	time	dac1	dac2	dac3	dac4	adc1.3	adc2.3	adc3.3	adc4.3	imu1accx	imu1accy	imu1accz	imu1gyrox	imu1gyroy	imu1gyroz	imu2accx	imu2accy	imu2accz	imu2gyrox	imu2gyroy	imu2gyroz	imu3accx	imu3accy	imu3accz	imu3gyrox	imu3gyroy	imu3gyroz	log
0	0.0	0.0	0.0	0.0	0.0	0.003	0.006	0.006	0.006	9.854534033203125	0.14484920043945312	0.047884033203124995	2.666473388671875	-3.8909912109375	-0.865936279296875	9.789890588378906	0.18136077575683593	0.16998831787109375	0.6866455078125	-4.825592041015625	-3.101348876953125	9.982623822021484	0.4177881896972656	-0.1867477294921875	2.590179443359375	-4.81414794921875	-1.804351806640625	Estabizou em 10s, 2210 rpm
1	0.004	0.0	0.0	0.0	0.0	0.006	0.006	0.003	0.003	9.852139831542969	0.1484405029296875	0.06284779357910156	2.593994140625	-3.62396240234375	-0.67138671875	9.783905084228515	0.18914193115234373	0.17896657409667968	0.78582763671875	-5.18035888671875	-3.265380859375	9.974244116210937	0.4333505004882812	-0.18076222534179687	2.83050537109375	-4.795074462890625	-1.613616943359375	Started
2	0.008	0.0	0.0	0.0	0.0	0.003	0.006	0.003	0.003	9.87009634399414	0.12988544006347655	0.05566518859863281	2.44903564453125	-3.8604736328125	-0.7171630859375	9.790489138793944	0.17238251953125	0.16460136413574217	0.507354736328125	-5.28717041015625	-3.124237060546875	9.98501802368164	0.4159925384521484	-0.18255787658691405	2.712249755859375	-4.69970703125	-1.842498779296875	IMU1|LSM6DS3|0x6A|I2C-1|±2g (±19,6m/s²)|±125º/s|400Hz
3	0.012	0.0	0.0	0.0	0.0	0.003	0.003	0.003	0.006	9.891644158935547	0.12330138549804687	0.06943184814453125	2.414703369140625	-3.7078857421875	-0.79345703125	9.819818109130859	0.1580173095703125	0.16519991455078123	0.6561279296875	-5.123138427734375	-3.147125244140625	10.005368737792969	0.3962403747558593	-0.19093758239746092	2.62451171875	-4.543304443359375	-1.5869140625	IMU2|LSM6DS3|0x6B|I2C-1|±2g (±19,6m/s²)|±125º/s|400Hz
4	0.016	0.0	0.0	0.0	0.0	0.0	0.003	0.006	0.006	9.855731134033203	0.12569558715820311	0.06105214233398437	2.44140625	-3.70025634765625	-0.713348388671875	9.791686239624022	0.16519991455078123	0.19812018737792966	0.431060791015625	-4.787445068359375	-3.162384033203125	9.980229620361328	0.40402153015136716	-0.13826514587402344	2.407073974609375	-4.49371337890625	-1.689910888671875	IMU3|LSM6DS3|0x6B|I2C-2|±2g (±19,6m/s²)|±125º/s|400Hz
5	0.02	0.0	0.0	0.0	0.0	0.006	0.006	0.006	0.003	9.858125335693359	0.07721300354003906	0.033518823242187495	2.471923828125	-4.039764404296875	-0.705718994140625	9.78689783630371	0.11552023010253906	0.16879121704101563	0.55694580078125	-5.176544189453125	-3.040313720703125	9.995791931152343	0.35613749694824215	-0.16220716247558592	2.628326416015625	-4.604339599609375	-1.682281494140625	ADC|ADS1015|0|0|1|0|±6,144 V|2400 SPS
6	0.024	0.0	0.0	0.0	0.0	0.006	0.003	0.003	0.009000000000000001	9.83238766784668	0.0939724151611328	0.052073886108398436	2.460479736328125	-3.635406494140625	-0.732421875	9.763554370117188	0.13407529296874998	0.16759411621093748	0.560760498046875	-4.970550537109375	-3.284454345703125	9.963470208740233	0.35613749694824215	-0.14125789794921875	2.55584716796875	-4.665374755859375	-1.9073486328125	Gen1|Disabled
7	0.028	0.0	0.0	0.0	0.0	0.009000000000000001	0.006	0.003	0.006	9.80066449584961	0.12210428466796874	0.06045359191894531	2.4261474609375	-3.59344482421875	-0.80108642578125	9.739013803100585	0.17238251953125	0.18734627990722655	0.492095947265625	-4.70733642578125	-3.170013427734375	9.92755718383789	0.42018239135742186	-0.1514332550048828	2.834320068359375	-4.7454833984375	-1.964569091796875	Gen2|Enabled|Noise|0.0|10.0|1668
8	0.032	0.0	0.0	0.0	0.0	0.003	0.006	0.003	0.006	9.842563024902343	0.11192892761230468	0.02454056701660156	2.422332763671875	-3.509521484375	-0.812530517578125	9.78629928588867	0.15023615417480468	0.16160861206054686	0.942230224609375	-5.084991455078125	-3.07464599609375	9.98501802368164	0.37409400939941406	-0.1945288848876953	2.643585205078125	-4.69207763671875	-1.57928466796875	Gen3|Enabled|Noise|0.0|10.0|128
9	0.036000000000000004	0.0	0.0	0.0	0.0	0.006	0.006	0.006	0.006	9.871293444824218	0.12449848632812499	0.040701428222656245	2.696990966796875	-3.94439697265625	-0.873565673828125	9.80665	0.17238251953125	0.14484920043945312	0.720977783203125	-5.06591796875	-3.276824951171875	9.993996279907225	0.411802685546875	-0.20051438903808594	2.651214599609375	-4.66156005859375	-1.911163330078125	Gen4|Enabled|Noise|0.0|10.0|128
10	0.04	0.0	0.0	0.0	0.0	0.006	0.003	0.006	0.006	9.867103591918944	0.17776947326660156	0.055066638183593745	2.544403076171875	-3.63922119140625	-0.93841552734375	9.809044201660155	0.22565350646972654	0.16220716247558592	0.6103515625	-5.04302978515625	-3.15093994140625	9.99160207824707	0.45968671875	-0.19812018737792966	2.78472900390625	-4.634857177734375	-1.735687255859375	Ctrl|Disabled
11	0.044	0.0	0.0	0.0	0.0	0.003	0.006	0.006	0.003	9.887454306030273	0.17776947326660156	0.047285482788085934	2.73895263671875	-3.925323486328125	-0.980377197265625	9.803657247924804	0.21248539733886718	0.15023615417480468	0.530242919921875	-5.222320556640625	-3.3416748046875	9.981426721191406	0.44891281127929683	-0.21966800231933592	2.90679931640625	-4.833221435546875	-1.560211181640625	
12	0.048	0.0	0.0	0.0	0.0	0.003	0.006	0.006	0.003	9.892841259765625	0.18375497741699218	0.034715924072265626	2.50244140625	-3.742218017578125	-0.70953369140625	9.816226806640625	0.22864625854492185	0.11731588134765625	0.54931640625	-4.955291748046875	-3.22723388671875	9.996390481567381	0.45669396667480466	-0.2442085693359375	2.811431884765625	-4.467010498046875	-1.705169677734375	
13	0.052000000000000005	0.0	0.0	0.0	0.0	0.006	0.006	0.006	0.003	9.852139831542969	0.19512743530273435	0.04369418029785156	2.38037109375	-4.02069091796875	-0.79345703125	9.776123928833007	0.22505495605468748	0.15981296081542967	0.30517578125	-4.84466552734375	-3.2806396484375	9.973047015380859	0.4740519287109375	-0.22026655273437498	2.521514892578125	-4.638671875	-1.827239990234375	
14	0.056	0.0	0.0	0.0	0.0	0.003	0.006	0.003	0.003	9.828197814941406	0.1514332550048828	0.05626373901367187	2.31170654296875	-3.818511962890625	-0.728607177734375	9.766547122192382	0.19812018737792966	0.17178396911621094	0.896453857421875	-5.168914794921875	-3.055572509765625	9.970054263305663	0.42437224426269526	-0.18854338073730467	2.8076171875	-4.749298095703125	-1.6021728515625	
15	0.06	0.0	0.0	0.0	0.0	0.0	0.003	0.003	0.006	9.84555577697754	0.1514332550048828	0.03411737365722656	2.483367919921875	-3.719329833984375	-0.720977783203125	9.777919580078125	0.19033903198242186	0.16160861206054686	0.659942626953125	-4.85992431640625	-3.07464599609375	9.986215124511718	0.4100070343017578	-0.19033903198242186	2.5634765625	-4.673004150390625	-1.735687255859375	
16	0.064	0.0	0.0	0.0	0.0	0.006	0.006	0.006	0.006	9.835978970336914	0.1753752716064453	0.025737667846679687	2.307891845703125	-3.932952880859375	-0.713348388671875	9.7683427734375	0.23343466186523437	0.16519991455078123	0.766754150390625	-5.1116943359375	-3.269195556640625	9.961076007080077	0.45669396667480466	-0.1945288848876953	2.468109130859375	-4.730224609375	-1.8463134765625	
17	0.068	0.0	0.0	0.0	0.0	0.003	0.006	0.006	0.006	9.849147079467773	0.17956512451171874	0.03411737365722656	2.38037109375	-3.772735595703125	-0.83160400390625	9.765948571777344	0.2262520568847656	0.18315642700195311	0.66375732421875	-5.18035888671875	-3.017425537109375	9.958083255004881	0.4572925170898437	-0.16220716247558592	2.78472900390625	-4.57000732421875	-1.71661376953125	
18	0.07200000000000001	0.0	0.0	0.0	0.0	0.003	0.006	0.003	0.003	9.8694977935791	0.16220716247558592	0.027533319091796873	2.544403076171875	-3.82232666015625	-0.762939453125	9.798868844604492	0.2292448089599609	0.16460136413574217	0.6561279296875	-5.092620849609375	-3.170013427734375	9.991003527832031	0.4471171600341797	-0.17058686828613281	2.64739990234375	-4.756927490234375	-1.7547607421875	
19	0.076	0.0	0.0	0.0	0.0	0.006	0.003	0.006	0.006	9.859322436523437	0.17417817077636719	0.040102877807617184	2.57110595703125	-3.742218017578125	-0.9765625	9.78629928588867	0.2280477081298828	0.17417817077636719	0.934600830078125	-5.077362060546875	-3.192901611328125	9.983820922851562	0.4638765716552734	-0.16280571289062498	2.719879150390625	-4.489898681640625	-1.857757568359375	
20	0.08	0.0	0.0	0.0	0.0	0.003	0.003	0.006	0.006	9.852738381958007	0.1897404815673828	0.05985504150390625	2.544403076171875	-3.6468505859375	-0.701904296875	9.782707983398437	0.23882161560058593	0.17178396911621094	0.518798828125	-4.9896240234375	-3.2501220703125	9.96586441040039	0.4686649749755859	-0.16759411621093748	2.61688232421875	-4.543304443359375	-1.88446044921875	
21	0.084	0.0	0.0	0.0	0.0	0.003	0.006	0.006	0.006	9.888052856445311	0.2328361114501953	0.0430956298828125	2.50244140625	-3.803253173828125	-0.93841552734375	9.7928833404541	0.2651578338623047	0.16280571289062498	0.553131103515625	-4.795074462890625	-3.009796142578125	9.975441217041014	0.5027823486328125	-0.18555062866210936	2.880096435546875	-4.741668701171875	-1.8463134765625	
22	0.088	0.0	0.0	0.0	0.0	0.006	0.003	0.006	0.006	9.875483297729492	0.21128829650878905	0.025737667846679687	2.689361572265625	-3.6773681640625	-0.7476806640625	9.791686239624022	0.24779987182617186	0.16280571289062498	0.52642822265625	-5.260467529296875	-3.261566162109375	9.98501802368164	0.4842272857666015	-0.17357962036132812	2.628326416015625	-4.642486572265625	-1.628875732421875	
23	0.092	0.0	0.0	0.0	0.0	0.006	0.003	0.003	0.006	9.85692823486328	0.17238251953125	0.044292730712890624	2.52532958984375	-3.692626953125	-0.766754150390625	9.79348189086914	0.2154781494140625	0.1693897674560547	0.698089599609375	-4.817962646484375	-3.154754638671875	9.97783541870117	0.45070846252441404	-0.17477672119140625	2.7618408203125	-4.642486572265625	-1.68609619140625	
24	0.096	0.0	0.0	0.0	0.0	0.006	0.006	0.006	0.003	9.835978970336914	0.18076222534179687	0.051475335693359374	2.521514892578125	-3.765106201171875	-0.87738037109375	9.771934075927733	0.2328361114501953	0.17357962036132812	0.408172607421875	-4.993438720703125	-3.28826904296875	9.97184991455078	0.45669396667480466	-0.16041151123046873	2.70843505859375	-4.638671875	-2.0599365234375	
25	0.1	0.0	0.0	0.0	0.0	0.006	0.006	0.006	0.003	9.83897172241211	0.1849520782470703	0.03950432739257812	2.468109130859375	-3.765106201171875	-0.5340576171875	9.770138424682617	0.23044190979003906	0.15203180541992187	0.545501708984375	-5.039215087890625	-3.173828125	9.963470208740233	0.46507367248535153	-0.19632453613281248	2.73895263671875	-4.5166015625	-1.644134521484375	
26	0.10400000000000001	0.0	0.0	0.0	0.0	0.006	0.006	0.003	0.006	9.85094273071289	0.1753752716064453	0.03890577697753906	2.376556396484375	-3.509521484375	-0.72479248046875	9.78031378173828	0.2280477081298828	0.15023615417480468	0.67138671875	-5.13458251953125	-3.246307373046875	9.964667309570311	0.4608838195800781	-0.2088940948486328	2.87628173828125	-4.772186279296875	-1.583099365234375	
27	0.108	0.0	0.0	0.0	0.0	0.006	0.003	0.006	0.006	9.859322436523437	0.1975216369628906	0.04608838195800781	2.5787353515625	-3.856658935546875	-0.98419189453125	9.785102185058593	0.2442085693359375	0.16639701538085935	0.629425048828125	-4.734039306640625	-3.124237060546875	9.95987890625	0.47704468078613277	-0.18914193115234373	2.81524658203125	-4.741668701171875	-1.8463134765625	
28	0.112	0.0	0.0	0.0	0.0	0.003	0.003	0.006	0.009000000000000001	9.855132583618163	0.16699556579589842	0.06284779357910156	2.597808837890625	-3.662109375	-0.7476806640625	9.789890588378906	0.2184709014892578	0.17298106994628906	0.675201416015625	-5.1727294921875	-3.173828125	9.980828170776366	0.45010991210937495	-0.19632453613281248	2.86102294921875	-4.802703857421875	-1.575469970703125	
29	0.116	0.0	0.0	0.0	0.0	0.009000000000000001	0.006	0.003	0.006	9.865307940673828	0.14006079711914063	0.047884033203124995	2.3956298828125	-3.711700439453125	-0.804901123046875	9.791087689208984	0.181959326171875	0.17238251953125	0.732421875	-5.04302978515625	-3.330230712890625	9.987412225341796	0.40761283264160153	-0.1879448303222656	2.727508544921875	-4.70733642578125	-1.678466796875	
30	0.12	0.0	0.0	0.0	0.0	0.003	0.006	0.006	0.006	9.87727894897461	0.17298106994628906	0.06045359191894531	2.25067138671875	-3.803253173828125	-0.946044921875	9.791087689208984	0.22565350646972654	0.17776947326660156	0.400543212890625	-5.02777099609375	-3.33404541015625	9.991003527832031	0.44532150878906246	-0.19213468322753904	2.719879150390625	-4.589080810546875	-1.76239013671875	
31	0.124	0.0	0.0	0.0	0.0	0.006	0.003	0.003	0.006	9.864709390258788	0.17058686828613281	0.059256491088867186	2.3193359375	-3.559112548828125	-0.7476806640625	9.791087689208984	0.21906945190429686	0.16220716247558592	0.553131103515625	-5.0506591796875	-3.101348876953125	9.97184991455078	0.4632780212402344	-0.19153613281249998	2.593994140625	-4.7760009765625	-1.60980224609375	
32	0.128	0.0	0.0	0.0	0.0	0.003	0.006	0.003	0.003	9.851541281127929	0.13108254089355467	0.05985504150390625	2.162933349609375	-3.635406494140625	-0.9002685546875	9.78629928588867	0.17238251953125	0.17896657409667968	0.4425048828125	-4.863739013671875	-3.23486328125	9.98501802368164	0.40402153015136716	-0.17896657409667968	2.64739990234375	-4.604339599609375	-1.70135498046875	
33	0.132	0.0	0.0	0.0	0.0	-0.003	0.006	0.003	0.006	9.864709390258788	0.11133037719726561	0.0796072052001953	2.460479736328125	-3.8299560546875	-0.8544921875	9.784503634643555	0.1484405029296875	0.1897404815673828	0.583648681640625	-4.99725341796875	-3.1585693359375	9.996390481567381	0.39264907226562495	-0.17118541870117188	2.735137939453125	-4.451751708984375	-1.77001953125	
34	0.136	0.0	0.0	0.0	0.0	0.003	0.006	0.003	0.006	9.850344180297851	0.09995791931152344	0.08499415893554688	2.315521240234375	-3.80706787109375	-0.774383544921875	9.785700735473633	0.14305354919433594	0.20829554443359374	0.57220458984375	-5.10406494140625	-3.36456298828125	9.980229620361328	0.3920505218505859	-0.14604630126953125	2.399444580078125	-4.634857177734375	-1.789093017578125	
35	0.14	0.0	0.0	0.0	0.0	0.0	0.003	0.003	0.003	9.855731134033203	0.0987608184814453	0.07900865478515624	2.368927001953125	-3.818511962890625	-0.77056884765625	9.785102185058593	0.13347674255371092	0.20829554443359374	0.423431396484375	-4.95147705078125	-3.21197509765625	9.967660061645507	0.373495458984375	-0.13946224670410157	2.552032470703125	-4.6234130859375	-1.7852783203125	
36	0.14400000000000002	0.0	0.0	0.0	0.0	0.003	0.006	0.006	0.006	9.861118087768554	0.08379705810546874	0.0718260498046875	2.5787353515625	-3.84521484375	-0.957489013671875	9.782707983398437	0.1197100830078125	0.1975216369628906	0.652313232421875	-5.008697509765625	-3.231048583984375	9.980229620361328	0.35134909362792965	-0.13407529296874998	2.54058837890625	-4.550933837890625	-1.556396484375	
37	0.148	0.0	0.0	0.0	0.0	0.003	0.006	0.003	0.003	9.850344180297851	0.06464344482421874	0.07541735229492187	2.47955322265625	-3.65447998046875	-0.637054443359375	9.785102185058593	0.09576806640624999	0.21188684692382811	0.392913818359375	-4.79888916015625	-3.204345703125	9.973047015380859	0.3435679382324219	-0.11252747802734374	2.593994140625	-4.802703857421875	-1.789093017578125	
38	0.152	0.0	0.0	0.0	0.0	0.009000000000000001	0.003	0.003	0.006	9.853336932373047	0.05027823486328125	0.08678981018066406	2.399444580078125	-3.833770751953125	-0.732421875	9.78031378173828	0.09217676391601562	0.21727380065917967	0.743865966796875	-5.2947998046875	-3.131866455078125	9.973047015380859	0.33099837951660155	-0.11731588134765625	2.803802490234375	-4.72259521484375	-1.76239013671875	
39	0.156	0.0	0.0	0.0	0.0	0.006	0.006	0.006	0.006	9.85632968444824	0.062249243164062495	0.07721300354003906	2.51007080078125	-3.7689208984375	-0.9613037109375	9.79348189086914	0.1083376251220703	0.2059013427734375	0.751495361328125	-5.138397216796875	-3.391265869140625	9.988010775756836	0.3459621398925781	-0.1352723937988281	2.826690673828125	-4.547119140625	-1.689910888671875	
40	0.16	0.0	0.0	0.0	0.0	0.006	0.006	0.003	0.003	9.86411083984375	0.07601590270996093	0.07541735229492187	2.50244140625	-3.818511962890625	-0.881195068359375	9.79408044128418	0.1197100830078125	0.20171148986816406	0.823974609375	-5.18035888671875	-3.2196044921875	9.986813674926758	0.35673604736328124	-0.14484920043945312	2.590179443359375	-4.474639892578125	-1.8768310546875	
41	0.164	0.0	0.0	0.0	0.0	0.006	0.006	0.006	0.006	9.866505041503906	0.08080430603027343	0.07601590270996093	2.5177001953125	-3.692626953125	-0.93841552734375	9.78629928588867	0.1292868896484375	0.19931728820800781	0.675201416015625	-4.718780517578125	-3.314971923828125	9.975441217041014	0.36391865234375	-0.16160861206054686	2.655029296875	-4.642486572265625	-1.67083740234375	
42	0.168	0.0	0.0	0.0	0.0	0.006	0.003	0.006	0.009000000000000001	9.86291373901367	0.07541735229492187	0.07003039855957031	2.315521240234375	-3.7841796875	-0.81634521484375	9.789890588378906	0.1304839904785156	0.19093758239746092	0.537872314453125	-4.940032958984375	-3.124237060546875	9.987412225341796	0.3764882110595703	-0.17118541870117188	2.4261474609375	-4.61578369140625	-1.7242431640625	
43	0.17200000000000001	0.0	0.0	0.0	0.0	0.009000000000000001	0.003	0.003	0.003	9.861716638183593	0.08559270935058594	0.07122749938964844	2.52532958984375	-3.79180908203125	-0.705718994140625	9.789890588378906	0.13287819213867186	0.1753752716064453	0.579833984375	-4.978179931640625	-3.21197509765625	9.996989031982421	0.36691140441894526	-0.1771709228515625	2.758026123046875	-4.425048828125	-2.01416015625	
44	0.176	0.0	0.0	0.0	0.0	0.003	0.006	0.006	0.003	9.866505041503906	0.10295067138671875	0.05386953735351562	2.513885498046875	-3.6773681640625	-0.885009765625	9.791686239624022	0.15382745666503905	0.16699556579589842	0.629425048828125	-5.0201416015625	-3.25775146484375	9.982623822021484	0.3908534210205078	-0.1975216369628906	2.559661865234375	-4.520416259765625	-1.5869140625	
45	0.18	0.0	0.0	0.0	0.0	0.006	0.003	0.003	0.003	9.861716638183593	0.12509703674316405	0.06464344482421874	2.46429443359375	-3.757476806640625	-0.69427490234375	9.784503634643555	0.1640028137207031	0.17298106994628906	0.74005126953125	-4.985809326171875	-3.04412841796875	9.980828170776366	0.4100070343017578	-0.18734627990722655	2.716064453125	-4.94384765625	-1.77001953125	
46	0.184	0.0	0.0	0.0	0.0	0.006	0.003	0.003	0.006	9.861118087768554	0.11013327636718749	0.040701428222656245	2.490997314453125	-3.864288330078125	-0.8697509765625	9.78629928588867	0.15502455749511718	0.16759411621093748	0.5950927734375	-5.069732666015625	-2.99072265625	9.988609326171874	0.39743747558593745	-0.21248539733886718	2.655029296875	-4.451751708984375	-1.7547607421875	
47	0.188	0.0	0.0	0.0	0.0	0.003	0.006	0.003	0.003	9.859322436523437	0.11791443176269531	0.044292730712890624	2.349853515625	-3.574371337890625	-0.99945068359375	9.785102185058593	0.15442600708007811	0.16819266662597654	0.396728515625	-5.18798828125	-3.086090087890625	9.977236868286132	0.3938461730957031	-0.19871873779296872	2.750396728515625	-4.67681884765625	-1.800537109375	
48	0.192	0.0	0.0	0.0	0.0	-0.003	0.006	0.006	0.003	9.85094273071289	0.13946224670410157	0.044891281127929686	2.727508544921875	-3.7078857421875	-0.637054443359375	9.773131176757811	0.18914193115234373	0.1610100616455078	0.667572021484375	-4.84466552734375	-3.192901611328125	9.967061511230469	0.4159925384521484	-0.1879448303222656	2.67791748046875	-4.52423095703125	-1.71661376953125	
49	0.196	0.0	0.0	0.0	0.0	0.003	0.006	0.006	0.006	9.871293444824218	0.15502455749511718	0.03890577697753906	2.54058837890625	-3.879547119140625	-0.7781982421875	9.789890588378906	0.20051438903808594	0.14484920043945312	0.67901611328125	-5.184173583984375	-3.208160400390625	9.987412225341796	0.43574470214843747	-0.2059013427734375	2.437591552734375	-4.405975341796875	-1.67083740234375	
50	0.2	0.0	0.0	0.0	0.0	0.006	0.006	0.003	0.003	9.867702142333984	0.15861585998535155	0.02154781494140625	2.43377685546875	-4.047393798828125	-0.888824462890625	9.788693487548828	0.21248539733886718	0.14903905334472656	0.583648681640625	-4.947662353515625	-3.0670166015625	9.980828170776366	0.43933600463867184	-0.2041056915283203	2.47955322265625	-4.6234130859375	-1.74713134765625	
51	0.20400000000000001	0.0	0.0	0.0	0.0	0.009000000000000001	0.006	0.006	0.006	9.865307940673828	0.17956512451171874	0.034715924072265626	2.51007080078125	-3.8909912109375	-0.90789794921875	9.789890588378906	0.22445640563964842	0.1562216583251953	0.583648681640625	-4.84466552734375	-3.15093994140625	9.983820922851562	0.45070846252441404	-0.20051438903808594	2.498626708984375	-4.375457763671875	-1.70135498046875	
52	0.20800000000000002	0.0	0.0	0.0	0.0	0.006	0.006	0.006	0.003	9.861716638183593	0.181959326171875	0.040102877807617184	2.34222412109375	-3.875732421875	-0.988006591796875	9.784503634643555	0.229843359375	0.16041151123046873	0.61798095703125	-5.123138427734375	-3.337860107421875	9.984419473266602	0.4584896179199218	-0.181959326171875	2.681732177734375	-4.75311279296875	-1.728057861328125	
53	0.212	0.0	0.0	0.0	0.0	0.003	0.006	0.006	0.003	9.861716638183593	0.1771709228515625	0.030526071166992186	2.483367919921875	-3.437042236328125	-0.789642333984375	9.79408044128418	0.22685060729980466	0.15382745666503905	0.67901611328125	-5.01251220703125	-3.223419189453125	9.982623822021484	0.4626794708251953	-0.19033903198242186	2.742767333984375	-4.5623779296875	-1.5411376953125	
54	0.216	0.0	0.0	0.0	0.0	0.006	0.006	0.006	0.003	9.871891995239258	0.20829554443359374	0.010175357055664061	2.685546875	-3.856658935546875	-0.942230224609375	9.788693487548828	0.2567781280517578	0.14784195251464843	0.79345703125	-5.306243896484375	-3.368377685546875	9.974244116210937	0.4842272857666015	-0.19692308654785154	2.635955810546875	-4.520416259765625	-1.8768310546875	
55	0.22	0.0	0.0	0.0	0.0	0.006	0.003	0.006	0.009000000000000001	9.86291373901367	0.21966800231933592	0.012569558715820313	2.5482177734375	-3.772735595703125	-0.79345703125	9.779116680908203	0.2705447875976562	0.14245499877929688	0.568389892578125	-4.993438720703125	-3.33404541015625	9.967061511230469	0.49320554199218747	-0.20470424194335937	2.716064453125	-4.5928955078125	-1.758575439453125	
56	0.224	0.0	0.0	0.0	0.0	0.009000000000000001	0.006	0.003	0.003	9.855731134033203	0.2136824981689453	0.016759411621093748	2.513885498046875	-3.963470458984375	-0.911712646484375	9.781510882568359	0.24600422058105467	0.15562310791015624	0.614166259765625	-4.764556884765625	-3.07464599609375	9.968258612060547	0.47884033203125	-0.19033903198242186	2.78472900390625	-4.413604736328125	-1.64794921875	
57	0.228	0.0	0.0	0.0	0.0	0.006	0.006	0.003	0.003	9.864709390258788	0.20949264526367187	0.012569558715820313	2.5787353515625	-3.795623779296875	-0.865936279296875	9.790489138793944	0.2609679809570312	0.14484920043945312	0.77056884765625	-5.069732666015625	-3.116607666015625	9.988010775756836	0.4752490295410156	-0.20171148986816406	2.620697021484375	-4.589080810546875	-1.6937255859375	
58	0.232	0.0	0.0	0.0	0.0	0.006	0.003	0.006	0.003	9.85632968444824	0.22744915771484372	0.018555062866210937	2.35748291015625	-3.692626953125	-0.789642333984375	9.787496386718749	0.2741360900878906	0.13108254089355467	0.720977783203125	-5.123138427734375	-3.276824951171875	9.96586441040039	0.5141548065185546	-0.20350714111328125	2.620697021484375	-4.711151123046875	-1.636505126953125	
59	0.23600000000000002	0.0	0.0	0.0	0.0	0.006	0.006	0.006	0.003	9.852738381958007	0.2424129180908203	0.022744915771484374	2.52532958984375	-3.95965576171875	-0.659942626953125	9.785102185058593	0.28371289672851563	0.1352723937988281	0.469207763671875	-4.94384765625	-2.979278564453125	9.969455712890625	0.5213374114990235	-0.21068974609375	2.471923828125	-4.474639892578125	-1.819610595703125	
60	0.24	0.0	0.0	0.0	0.0	0.003	0.006	0.003	0.003	9.8694977935791	0.24660277099609373	0.016160861206054686	2.38037109375	-3.604888916015625	-0.75531005859375	9.788094937133788	0.27892449340820313	0.12868833923339842	0.499725341796875	-4.92095947265625	-3.177642822265625	9.980229620361328	0.5153519073486328	-0.23044190979003906	2.727508544921875	-4.787445068359375	-1.728057861328125	
61	0.244	0.0	0.0	0.0	0.0	0.003	0.006	0.006	0.003	9.865307940673828	0.24061726684570311	0.025139117431640625	2.349853515625	-3.505706787109375	-0.83160400390625	9.78629928588867	0.2705447875976562	0.1466448516845703	0.60272216796875	-5.24139404296875	-3.2196044921875	9.987412225341796	0.5045779998779296	-0.22744915771484372	2.84576416015625	-4.76837158203125	-1.705169677734375	
62	0.248	0.0	0.0	0.0	0.0	0.003	0.006	0.003	0.006	9.85632968444824	0.22206220397949217	0.028131869506835935	2.452850341796875	-3.597259521484375	-0.621795654296875	9.782707983398437	0.26695348510742184	0.14305354919433594	0.6256103515625	-4.985809326171875	-3.200531005859375	9.973047015380859	0.5039794494628906	-0.2154781494140625	2.70843505859375	-4.673004150390625	-1.750946044921875	
63	0.252	0.0	0.0	0.0	0.0	0.006	0.006	0.006	0.006	9.861118087768554	0.23044190979003906	0.022744915771484374	2.44140625	-3.570556640625	-0.762939453125	9.787496386718749	0.2615665313720703	0.14305354919433594	0.5645751953125	-4.978179931640625	-3.170013427734375	9.974244116210937	0.5021837982177734	-0.21428104858398436	2.716064453125	-4.619598388671875	-1.659393310546875	
64	0.256	0.0	0.0	0.0	0.0	0.006	0.003	0.003	0.003	9.860519537353515	0.2214636535644531	0.022146365356445312	2.349853515625	-3.437042236328125	-0.789642333984375	9.78629928588867	0.2501940734863281	0.14724340209960937	0.591278076171875	-5.0201416015625	-3.200531005859375	9.974244116210937	0.4961982940673828	-0.21787235107421873	2.58636474609375	-4.642486572265625	-1.7242431640625	
65	0.26	0.0	0.0	0.0	0.0	0.006	0.006	0.003	0.003	9.853336932373047	0.19512743530273435	0.04189852905273437	2.574920654296875	-3.986358642578125	-0.8087158203125	9.781510882568359	0.23702596435546874	0.15682020874023436	0.568389892578125	-5.153656005859375	-3.2196044921875	9.977236868286132	0.48183308410644526	-0.18854338073730467	2.628326416015625	-4.581451416015625	-1.7242431640625	
66	0.264	0.0	0.0	0.0	0.0	0.006	0.006	0.006	0.003	9.85752678527832	0.18136077575683593	0.05746083984375	2.117156982421875	-3.620147705078125	-0.8087158203125	9.78629928588867	0.21607669982910155	0.16879121704101563	0.31280517578125	-4.89044189453125	-3.002166748046875	9.986215124511718	0.4495113616943359	-0.16460136413574217	2.658843994140625	-4.78363037109375	-1.7852783203125	
67	0.268	0.0	0.0	0.0	0.0	0.003	0.006	0.006	0.003	9.86351228942871	0.15322890625	0.055066638183593745	2.361297607421875	-3.70025634765625	-0.782012939453125	9.783905084228515	0.201112939453125	0.17776947326660156	0.614166259765625	-5.130767822265625	-3.15093994140625	9.986215124511718	0.43454760131835934	-0.16280571289062498	2.620697021484375	-4.5166015625	-1.583099365234375	
68	0.272	0.0	0.0	0.0	0.0	0.003	0.003	0.006	0.006	9.858723886108399	0.1370680450439453	0.06344634399414062	2.28118896484375	-3.7384033203125	-0.812530517578125	9.792284790039062	0.1849520782470703	0.18854338073730467	0.55694580078125	-4.92095947265625	-3.055572509765625	9.982623822021484	0.4213794921875	-0.15263035583496093	2.529144287109375	-4.642486572265625	-1.8157958984375	
69	0.276	0.0	0.0	0.0	0.0	0.006	0.006	0.003	0.003	9.853336932373047	0.14425065002441406	0.07721300354003906	2.460479736328125	-3.665924072265625	-0.751495361328125	9.78629928588867	0.17657237243652343	0.1945288848876953	0.751495361328125	-5.077362060546875	-3.322601318359375	9.980229620361328	0.4129997863769531	-0.1484405029296875	2.681732177734375	-4.76837158203125	-1.82342529296875	
70	0.28	0.0	0.0	0.0	0.0	0.006	0.003	0.003	0.006	9.858723886108399	0.10953472595214843	0.07062894897460938	2.40325927734375	-3.704071044921875	-0.701904296875	9.787496386718749	0.14784195251464843	0.1945288848876953	0.28228759765625	-4.764556884765625	-3.192901611328125	9.988609326171874	0.3908534210205078	-0.14006079711914063	2.6092529296875	-4.611968994140625	-1.953125	
71	0.28400000000000003	0.0	0.0	0.0	0.0	0.006	0.006	0.003	0.003	9.859322436523437	0.08918401184082031	0.06584054565429687	2.414703369140625	-3.65447998046875	-0.782012939453125	9.78689783630371	0.13108254089355467	0.20949264526367187	0.682830810546875	-4.932403564453125	-3.322601318359375	9.980229620361328	0.3699041564941406	-0.1370680450439453	2.635955810546875	-4.5928955078125	-1.781463623046875	
72	0.28800000000000003	0.0	0.0	0.0	0.0	0.003	0.003	0.006	0.006	9.861118087768554	0.09217676391601562	0.09636661682128905	2.376556396484375	-3.566741943359375	-0.95367431640625	9.785102185058593	0.1370680450439453	0.21128829650878905	0.72479248046875	-5.11932373046875	-3.1585693359375	9.990404977416992	0.3860650177001953	-0.12090718383789062	2.696990966796875	-4.67681884765625	-1.827239990234375	
73	0.292	0.0	0.0	0.0	0.0	0.003	0.003	0.006	0.003	9.865906491088866	0.08020575561523437	0.08918401184082031	2.391815185546875	-3.65447998046875	-0.568389892578125	9.792284790039062	0.1274912384033203	0.20709844360351562	0.74005126953125	-5.100250244140625	-3.18145751953125	9.97783541870117	0.373495458984375	-0.11851298217773437	2.78472900390625	-4.95147705078125	-1.850128173828125	
74	0.296	0.0	0.0	0.0	0.0	0.003	0.006	0.003	0.006	9.864709390258788	0.06883329772949218	0.0796072052001953	2.52532958984375	-3.92913818359375	-0.965118408203125	9.788693487548828	0.11432312927246092	0.19812018737792966	0.652313232421875	-5.031585693359375	-3.33404541015625	9.983820922851562	0.3525461944580078	-0.12629413757324218	2.613067626953125	-4.69207763671875	-1.86920166015625	
75	0.3	0.0	0.0	0.0	0.0	0.003	0.003	0.003	0.003	9.853336932373047	0.06883329772949218	0.08798691101074219	2.57110595703125	-3.810882568359375	-0.774383544921875	9.788094937133788	0.10953472595214843	0.20350714111328125	0.78582763671875	-5.02777099609375	-3.0517578125	9.986215124511718	0.3459621398925781	-0.14604630126953125	2.66265869140625	-4.505157470703125	-1.689910888671875	
76	0.304	0.0	0.0	0.0	0.0	0.003	0.003	0.003	0.003	9.85632968444824	0.07302315063476562	0.08918401184082031	2.7008056640625	-3.753662109375	-0.8697509765625	9.785700735473633	0.11192892761230468	0.20649989318847656	0.858306884765625	-5.05828857421875	-3.292083740234375	9.979631069946288	0.3495534423828125	-0.13946224670410157	2.8533935546875	-4.749298095703125	-1.74713134765625	
77	0.308	0.0	0.0	0.0	0.0	0.006	0.003	0.003	0.003	9.862315188598632	0.07003039855957031	0.08678981018066406	2.536773681640625	-3.9215087890625	-0.60272216796875	9.785700735473633	0.10474632263183593	0.19213468322753904	0.797271728515625	-4.913330078125	-3.223419189453125	9.983820922851562	0.3429693878173828	-0.17417817077636719	2.5787353515625	-4.886627197265625	-1.7852783203125	
78	0.312	0.0	0.0	0.0	0.0	0.003	0.003	0.006	0.006	9.866505041503906	0.076614453125	0.07841010437011718	2.490997314453125	-3.803253173828125	-0.888824462890625	9.789890588378906	0.11851298217773437	0.19153613281249998	0.614166259765625	-5.115509033203125	-3.078460693359375	9.97903251953125	0.36152445068359373	-0.17657237243652343	2.49481201171875	-4.6539306640625	-1.8157958984375	
79	0.316	0.0	0.0	0.0	0.0	0.003	0.006	0.006	0.006	9.861716638183593	0.07302315063476562	0.09038111267089843	2.429962158203125	-3.86810302734375	-0.75531005859375	9.789890588378906	0.12569558715820311	0.1849520782470703	0.789642333984375	-4.96673583984375	-3.1585693359375	9.982025271606444	0.35673604736328124	-0.17896657409667968	2.63214111328125	-4.718780517578125	-1.506805419921875	
80	0.32	0.0	0.0	0.0	0.0	0.003	0.006	0.006	0.003	9.860519537353515	0.06763619689941405	0.08080430603027343	2.38800048828125	-3.849029541015625	-0.80108642578125	9.78629928588867	0.11552023010253906	0.1753752716064453	0.583648681640625	-4.726409912109375	-2.99072265625	9.99160207824707	0.3459621398925781	-0.17058686828613281	2.7008056640625	-4.669189453125	-2.048492431640625	
81	0.324	0.0	0.0	0.0	0.0	0.006	0.003	0.006	0.003	9.860519537353515	0.08140285644531249	0.06284779357910156	2.429962158203125	-3.719329833984375	-0.820159912109375	9.785700735473633	0.1274912384033203	0.16340426330566404	0.537872314453125	-5.275726318359375	-3.231048583984375	9.97783541870117	0.3597287994384765	-0.17298106994628906	2.83050537109375	-4.41741943359375	-1.83868408203125	
82	0.328	0.0	0.0	0.0	0.0	0.003	0.003	0.003	0.009000000000000001	9.87009634399414	0.1005564697265625	0.0652419952392578	2.483367919921875	-4.070281982421875	-0.759124755859375	9.78629928588867	0.13587094421386717	0.1849520782470703	0.72479248046875	-5.023956298828125	-3.246307373046875	9.973645565795898	0.37708676147460934	-0.17298106994628906	2.74658203125	-4.7149658203125	-1.827239990234375	
83	0.332	0.0	0.0	0.0	0.0	0.006	0.003	0.003	0.006	9.854534033203125	0.11192892761230468	0.059256491088867186	2.452850341796875	-3.871917724609375	-0.83160400390625	9.782707983398437	0.1388636962890625	0.17118541870117188	0.293731689453125	-5.04302978515625	-3.009796142578125	9.97244846496582	0.38367081604003905	-0.19033903198242186	2.4261474609375	-4.604339599609375	-1.89971923828125	
84	0.336	0.0	0.0	0.0	0.0	0.006	0.006	0.006	0.006	9.858125335693359	0.10235212097167969	0.0652419952392578	2.43377685546875	-3.520965576171875	-0.667572021484375	9.784503634643555	0.1370680450439453	0.16220716247558592	0.5645751953125	-5.01251220703125	-2.99835205078125	9.973645565795898	0.3848679168701172	-0.17118541870117188	2.521514892578125	-4.550933837890625	-1.750946044921875	
85	0.34	0.0	0.0	0.0	0.0	0.003	0.003	0.003	0.006	9.860519537353515	0.10893617553710937	0.05686228942871093	2.452850341796875	-3.665924072265625	-0.885009765625	9.788693487548828	0.14006079711914063	0.16759411621093748	0.553131103515625	-5.126953125	-3.3111572265625	9.987412225341796	0.37409400939941406	-0.16879121704101563	2.567291259765625	-4.72259521484375	-1.953125	
86	0.34400000000000003	0.0	0.0	0.0	0.0	0.003	0.006	0.006	0.009000000000000001	9.858125335693359	0.12210428466796874	0.037708676147460936	2.37274169921875	-3.795623779296875	-0.797271728515625	9.79348189086914	0.16519991455078123	0.15861585998535155	0.63323974609375	-5.016326904296875	-3.108978271484375	9.974244116210937	0.39444472351074217	-0.17597382202148437	2.635955810546875	-4.451751708984375	-1.834869384765625	
87	0.34800000000000003	0.0	0.0	0.0	0.0	0.006	0.006	0.006	0.006	9.852139831542969	0.13287819213867186	0.04369418029785156	2.50244140625	-3.77655029296875	-0.86212158203125	9.785102185058593	0.17657237243652343	0.1592144104003906	0.52642822265625	-4.81414794921875	-3.170013427734375	9.974244116210937	0.4165910888671875	-0.16759411621093748	2.87628173828125	-4.8828125	-1.99127197265625	
88	0.352	0.0	0.0	0.0	0.0	0.003	0.003	0.003	0.003	9.847351428222655	0.14185644836425781	0.023942016601562498	2.483367919921875	-3.742218017578125	-0.83160400390625	9.78629928588867	0.18435352783203124	0.15502455749511718	0.30517578125	-5.126953125	-3.276824951171875	9.973645565795898	0.4159925384521484	-0.17896657409667968	2.593994140625	-4.8065185546875	-1.804351806640625	
89	0.356	0.0	0.0	0.0	0.0	0.003	0.003	0.003	0.003	9.855132583618163	0.15861585998535155	0.03232172241210937	2.819061279296875	-3.818511962890625	-0.873565673828125	9.777919580078125	0.20051438903808594	0.15322890625	0.644683837890625	-4.8065185546875	-3.13568115234375	9.96586441040039	0.4339490509033203	-0.181959326171875	2.582550048828125	-4.64630126953125	-1.720428466796875	
90	0.36	0.0	0.0	0.0	0.0	0.003	0.006	0.006	0.003	9.859322436523437	0.1753752716064453	0.037708676147460936	2.429962158203125	-3.7689208984375	-1.094818115234375	9.783905084228515	0.22685060729980466	0.16160861206054686	0.75531005859375	-5.146026611328125	-3.261566162109375	9.980229620361328	0.45669396667480466	-0.17956512451171874	2.590179443359375	-4.47845458984375	-1.728057861328125	
91	0.364	0.0	0.0	0.0	0.0	0.006	0.006	0.006	0.006	9.86411083984375	0.19093758239746092	0.02454056701660156	2.532958984375	-4.032135009765625	-0.965118408203125	9.785700735473633	0.239420166015625	0.14245499877929688	0.614166259765625	-5.176544189453125	-3.23486328125	9.981426721191406	0.47105917663574215	-0.2059013427734375	2.696990966796875	-4.69970703125	-1.827239990234375	
92	0.368	0.0	0.0	0.0	0.0	0.006	0.003	0.003	0.006	9.858723886108399	0.20470424194335937	0.031124621582031248	2.49481201171875	-3.833770751953125	-0.823974609375	9.787496386718749	0.24660277099609373	0.15023615417480468	0.69427490234375	-5.01251220703125	-3.116607666015625	9.977236868286132	0.4896142395019531	-0.21787235107421873	2.60162353515625	-4.535675048828125	-1.842498779296875	
93	0.372	0.0	0.0	0.0	0.0	0.009000000000000001	0.006	0.006	0.006	9.84435867614746	0.21068974609375	0.02154781494140625	2.54058837890625	-3.7994384765625	-0.98419189453125	9.789890588378906	0.2657563842773437	0.13826514587402344	0.720977783203125	-5.79833984375	-3.162384033203125	9.969455712890625	0.4961982940673828	-0.21308394775390624	2.681732177734375	-4.665374755859375	-1.76239013671875	
94	0.376	0.0	0.0	0.0	0.0	0.003	0.003	0.006	0.006	9.852139831542969	0.21487959899902342	0.0143652099609375	2.35748291015625	-3.734588623046875	-1.01470947265625	9.787496386718749	0.26396073303222656	0.13108254089355467	0.54931640625	-4.8675537109375	-3.192901611328125	9.969455712890625	0.4997895965576172	-0.20829554443359374	2.7923583984375	-4.566192626953125	-1.911163330078125	
95	0.38	0.0	0.0	0.0	0.0	0.006	0.006	0.006	0.003	9.858125335693359	0.22685060729980466	0.023942016601562498	2.620697021484375	-3.70025634765625	-0.843048095703125	9.785102185058593	0.2723404388427734	0.1352723937988281	0.66375732421875	-4.8065185546875	-3.170013427734375	9.974244116210937	0.5015852478027344	-0.21188684692382811	2.7618408203125	-4.856109619140625	-1.949310302734375	
96	0.384	0.0	0.0	0.0	0.0	0.003	0.006	0.003	0.003	9.853336932373047	0.239420166015625	0.02633621826171875	2.521514892578125	-3.7994384765625	-0.9307861328125	9.789890588378906	0.28730419921875	0.1514332550048828	0.530242919921875	-4.947662353515625	-3.238677978515625	9.96586441040039	0.5147533569335937	-0.2214636535644531	2.521514892578125	-4.405975341796875	-1.781463623046875	
97	0.388	0.0	0.0	0.0	0.0	0.006	0.006	0.006	0.006	9.847351428222655	0.23343466186523437	0.033518823242187495	2.593994140625	-3.757476806640625	-0.67138671875	9.785102185058593	0.2861070983886719	0.14425065002441406	0.377655029296875	-4.901885986328125	-2.971649169921875	9.969455712890625	0.5195417602539062	-0.22206220397949217	2.55584716796875	-4.688262939453125	-1.6021728515625	
98	0.392	0.0	0.0	0.0	0.0	0.003	0.003	0.003	0.003	9.858125335693359	0.22266075439453123	0.03411737365722656	2.83050537109375	-3.5552978515625	-0.583648681640625	9.792284790039062	0.2741360900878906	0.14544775085449219	0.6866455078125	-4.9896240234375	-3.173828125	9.974244116210937	0.5093664031982421	-0.21128829650878905	2.742767333984375	-4.802703857421875	-1.712799072265625	
99	0.396	0.0	0.0	0.0	0.0	0.006	0.003	0.003	0.006	9.858125335693359	0.2166752502441406	0.037708676147460936	2.315521240234375	-3.997802734375	-0.93841552734375	9.785102185058593	0.26216508178710934	0.15203180541992187	0.286102294921875	-4.84466552734375	-3.021240234375	9.961076007080077	0.5099649536132812	-0.2041056915283203	2.681732177734375	-4.6234130859375	-1.651763916015625	
100	0.4	0.0	0.0	0.0	0.0	0.006	0.006	0.003	0.006	9.85632968444824	0.22744915771484372	0.044891281127929686	2.216339111328125	-3.509521484375	-0.6256103515625	9.785102185058593	0.26755203552246093	0.15083470458984374	0.48065185546875	-5.077362060546875	-3.2806396484375	9.962871658325195	0.508169302368164	-0.19632453613281248	2.719879150390625	-4.840850830078125	-1.65557861328125	
101	0.404	0.0	0.0	0.0	0.0	0.006	0.003	0.006	0.003	9.854534033203125	0.2184709014892578	0.04548983154296875	2.64739990234375	-3.8299560546875	-0.644683837890625	9.78629928588867	0.25797522888183594	0.16160861206054686	0.732421875	-5.168914794921875	-3.0364990234375	9.967660061645507	0.49799394531249996	-0.1867477294921875	2.7008056640625	-4.47845458984375	-1.739501953125	
102	0.40800000000000003	0.0	0.0	0.0	0.0	0.003	0.006	0.006	0.006	9.85692823486328	0.20530279235839843	0.03950432739257812	2.44903564453125	-3.7841796875	-0.827789306640625	9.785102185058593	0.2424129180908203	0.16879121704101563	0.530242919921875	-5.06591796875	-3.391265869140625	9.976039767456054	0.4830301849365234	-0.17896657409667968	2.63214111328125	-4.37164306640625	-1.70135498046875	
103	0.41200000000000003	0.0	0.0	0.0	0.0	0.006	0.006	0.003	0.003	9.859322436523437	0.1849520782470703	0.052073886108398436	2.5634765625	-3.543853759765625	-0.728607177734375	9.783905084228515	0.23044190979003906	0.17896657409667968	0.514984130859375	-4.95147705078125	-3.093719482421875	9.983820922851562	0.4674678741455078	-0.1514332550048828	2.582550048828125	-4.802703857421875	-1.712799072265625	
104	0.41600000000000004	0.0	0.0	0.0	0.0	0.006	0.003	0.006	0.006	9.852139831542969	0.16879121704101563	0.05985504150390625	2.32696533203125	-4.009246826171875	-0.7171630859375	9.777919580078125	0.21906945190429686	0.17896657409667968	0.614166259765625	-4.863739013671875	-3.124237060546875	9.980828170776366	0.45669396667480466	-0.1610100616455078	2.803802490234375	-4.7607421875	-1.6937255859375	
105	0.42	0.0	0.0	0.0	0.0	0.003	0.006	0.006	0.006	9.861716638183593	0.16639701538085935	0.059256491088867186	2.5177001953125	-3.7384033203125	-0.720977783203125	9.785102185058593	0.20231004028320312	0.17657237243652343	0.385284423828125	-5.069732666015625	-3.017425537109375	9.982623822021484	0.44891281127929683	-0.1562216583251953	2.63214111328125	-4.924774169921875	-1.560211181640625	
106	0.424	0.0	0.0	0.0	0.0	0.009000000000000001	0.003	0.003	0.003	9.842563024902343	0.15083470458984374	0.059256491088867186	2.655029296875	-3.696441650390625	-0.7781982421875	9.782707983398437	0.19572598571777342	0.17776947326660156	0.537872314453125	-4.802703857421875	-3.330230712890625	9.970054263305663	0.4333505004882812	-0.16220716247558592	2.643585205078125	-4.5623779296875	-1.6632080078125	
107	0.428	0.0	0.0	0.0	0.0	0.006	0.006	0.006	0.006	9.850344180297851	0.1388636962890625	0.06404489440917968	2.5177001953125	-3.88336181640625	-0.64849853515625	9.783306533813477	0.1867477294921875	0.1927332336425781	0.83160400390625	-4.871368408203125	-3.265380859375	9.973645565795898	0.4321533996582031	-0.14484920043945312	2.69317626953125	-4.57763671875	-1.834869384765625	
108	0.432	0.0	0.0	0.0	0.0	0.006	0.006	0.003	0.006	9.850344180297851	0.13587094421386717	0.07003039855957031	2.529144287109375	-3.780364990234375	-0.6866455078125	9.785102185058593	0.16699556579589842	0.18315642700195311	0.732421875	-5.157470703125	-3.170013427734375	9.968857162475585	0.4159925384521484	-0.15263035583496093	2.773284912109375	-4.688262939453125	-1.804351806640625	
109	0.436	0.0	0.0	0.0	0.0	0.006	0.006	0.006	0.003	9.85692823486328	0.11372457885742186	0.06883329772949218	2.655029296875	-3.772735595703125	-0.888824462890625	9.779116680908203	0.16280571289062498	0.18435352783203124	0.54168701171875	-4.741668701171875	-3.139495849609375	9.97244846496582	0.39863457641601563	-0.15382745666503905	2.72369384765625	-4.8065185546875	-1.76239013671875	
110	0.44	0.0	0.0	0.0	0.0	0.003	0.003	0.006	0.003	9.858723886108399	0.10414777221679687	0.06584054565429687	2.597808837890625	-4.070281982421875	-0.6866455078125	9.789292037963866	0.15981296081542967	0.18076222534179687	0.812530517578125	-4.974365234375	-3.108978271484375	9.980229620361328	0.39803602600097654	-0.1562216583251953	2.712249755859375	-4.543304443359375	-1.70135498046875	
111	0.444	0.0	0.0	0.0	0.0	-0.003	0.003	0.006	0.003	9.859920986938477	0.10654197387695312	0.06464344482421874	2.40325927734375	-3.749847412109375	-0.80108642578125	9.787496386718749	0.14245499877929688	0.17776947326660156	0.64849853515625	-5.046844482421875	-3.173828125	9.980229620361328	0.3896563201904297	-0.16220716247558592	2.63214111328125	-4.5013427734375	-1.651763916015625	
112	0.448	0.0	0.0	0.0	0.0	0.003	0.006	0.006	0.006	9.871293444824218	0.09217676391601562	0.06943184814453125	2.4566650390625	-3.841400146484375	-0.8544921875	9.792284790039062	0.13646949462890623	0.17597382202148437	0.644683837890625	-5.008697509765625	-3.08990478515625	9.983820922851562	0.373495458984375	-0.16460136413574217	2.674102783203125	-4.730224609375	-1.781463623046875	
113	0.452	0.0	0.0	0.0	0.0	0.006	0.003	0.003	0.006	9.861716638183593	0.08379705810546874	0.07302315063476562	2.346038818359375	-3.7841796875	-0.84686279296875	9.783905084228515	0.12808978881835936	0.1753752716064453	0.568389892578125	-5.153656005859375	-3.18145751953125	9.97783541870117	0.364517202758789	-0.181959326171875	2.483367919921875	-4.64630126953125	-1.7242431640625	
114	0.456	0.0	0.0	0.0	0.0	0.003	0.003	0.003	0.006	9.85632968444824	0.08978256225585937	0.06464344482421874	2.414703369140625	-3.826141357421875	-0.881195068359375	9.785102185058593	0.12389993591308593	0.17776947326660156	0.48828125	-5.176544189453125	-3.208160400390625	9.989207876586914	0.3633201019287109	-0.1897404815673828	2.9144287109375	-4.64630126953125	-1.544952392578125	
115	0.46	0.0	0.0	0.0	0.0	0.003	0.003	0.003	0.003	9.860519537353515	0.07481880187988281	0.06344634399414062	2.613067626953125	-3.749847412109375	-0.96893310546875	9.785102185058593	0.12689268798828124	0.18076222534179687	0.80108642578125	-5.22613525390625	-3.2501220703125	9.98501802368164	0.36092590026855464	-0.1849520782470703	2.5177001953125	-4.76837158203125	-1.842498779296875	
116	0.464	0.0	0.0	0.0	0.0	0.003	0.003	0.006	0.003	9.860519537353515	0.06883329772949218	0.0652419952392578	2.4871826171875	-3.749847412109375	-0.820159912109375	9.790489138793944	0.11911153259277343	0.16519991455078123	0.659942626953125	-5.096435546875	-2.99835205078125	9.986813674926758	0.3591302490234375	-0.1849520782470703	2.635955810546875	-4.581451416015625	-1.705169677734375	
117	0.468	0.0	0.0	0.0	0.0	0.003	0.003	0.006	0.006	9.865307940673828	0.0652419952392578	0.05566518859863281	2.521514892578125	-3.536224365234375	-0.888824462890625	9.787496386718749	0.11911153259277343	0.16519991455078123	0.492095947265625	-4.87518310546875	-3.3416748046875	9.983222372436522	0.3507505432128906	-0.18136077575683593	2.7008056640625	-4.4097900390625	-1.6326904296875	
118	0.47200000000000003	0.0	0.0	0.0	0.0	0.003	0.003	0.003	0.003	9.853336932373047	0.06883329772949218	0.05027823486328125	2.422332763671875	-3.83758544921875	-0.827789306640625	9.791087689208984	0.11851298217773437	0.1592144104003906	0.58746337890625	-4.955291748046875	-3.02886962890625	9.986813674926758	0.34715924072265625	-0.1771709228515625	2.79998779296875	-4.772186279296875	-1.861572265625	
119	0.47600000000000003	0.0	0.0	0.0	0.0	0.006	0.006	0.003	0.003	9.862315188598632	0.07302315063476562	0.04967968444824218	2.483367919921875	-3.787994384765625	-0.89263916015625	9.785102185058593	0.12449848632812499	0.15682020874023436	0.698089599609375	-4.810333251953125	-3.040313720703125	9.98501802368164	0.34715924072265625	-0.17298106994628906	2.750396728515625	-4.67681884765625	-1.781463623046875	
120	0.48	0.0	0.0	0.0	0.0	0.006	0.006	0.003	0.006	9.859920986938477	0.09038111267089843	0.04908113403320312	2.5634765625	-3.787994384765625	-0.83160400390625	9.78629928588867	0.12449848632812499	0.15861585998535155	0.57220458984375	-4.96673583984375	-3.261566162109375	9.976638317871092	0.3537432952880859	-0.16879121704101563	2.70843505859375	-4.8370361328125	-1.9073486328125	
121	0.484	0.0	0.0	0.0	0.0	0.003	0.003	0.006	0.003	9.846154327392577	0.08319850769042968	0.044292730712890624	2.349853515625	-3.7841796875	-0.858306884765625	9.785102185058593	0.13467384338378904	0.16639701538085935	0.52642822265625	-5.1727294921875	-3.292083740234375	9.980828170776366	0.36391865234375	-0.17298106994628906	2.777099609375	-4.69970703125	-1.7852783203125	
122	0.488	0.0	0.0	0.0	0.0	0.003	0.003	0.006	0.006	9.858125335693359	0.09157821350097656	0.04668693237304687	2.6397705078125	-3.871917724609375	-0.782012939453125	9.794678991699218	0.13946224670410157	0.16519991455078123	0.67138671875	-5.031585693359375	-3.15093994140625	9.981426721191406	0.3716998077392578	-0.17597382202148437	2.6397705078125	-4.547119140625	-1.64794921875	
123	0.492	0.0	0.0	0.0	0.0	0.006	0.006	0.003	0.003	9.85752678527832	0.11013327636718749	0.05087678527832031	2.49481201171875	-4.03594970703125	-0.743865966796875	9.787496386718749	0.15263035583496093	0.1562216583251953	0.453948974609375	-5.100250244140625	-3.387451171875	9.97783541870117	0.37888241271972656	-0.18255787658691405	2.74658203125	-4.573822021484375	-1.766204833984375	
124	0.496	0.0	0.0	0.0	0.0	0.006	0.006	0.003	0.003	9.866505041503906	0.11851298217773437	0.031124621582031248	2.43377685546875	-3.719329833984375	-0.736236572265625	9.789890588378906	0.1592144104003906	0.16280571289062498	0.77056884765625	-4.756927490234375	-3.0517578125	9.986215124511718	0.40282442932128903	-0.20051438903808594	2.819061279296875	-4.7607421875	-1.850128173828125	
125	0.5	0.0	0.0	0.0	0.0	0.006	0.003	0.003	0.006	9.862315188598632	0.13287819213867186	0.03172317199707031	2.635955810546875	-3.96728515625	-0.797271728515625	9.78629928588867	0.17776947326660156	0.15023615417480468	0.5645751953125	-5.035400390625	-3.204345703125	9.974244116210937	0.41359833679199215	-0.20470424194335937	2.567291259765625	-4.642486572265625	-1.74713134765625	
126	0.504	0.0	0.0	0.0	0.0	0.006	0.006	0.006	0.006	9.86411083984375	0.13407529296874998	0.03651157531738281	2.349853515625	-3.986358642578125	-0.8087158203125	9.79408044128418	0.18854338073730467	0.14544775085449219	0.614166259765625	-5.07354736328125	-3.33404541015625	9.98501802368164	0.41838674011230464	-0.201112939453125	2.593994140625	-4.7760009765625	-1.544952392578125	
127	0.508	0.0	0.0	0.0	0.0	0.003	0.003	0.003	0.003	9.8449572265625	0.15562310791015624	0.022744915771484374	2.3193359375	-4.02069091796875	-0.843048095703125	9.785102185058593	0.19931728820800781	0.1514332550048828	0.629425048828125	-4.894256591796875	-3.154754638671875	9.981426721191406	0.4423287567138672	-0.20649989318847656	2.7618408203125	-4.581451416015625	-1.6021728515625	
128	0.512	0.0	0.0	0.0	0.0	0.006	0.006	0.006	0.006	9.859920986938477	0.17357962036132812	0.016759411621093748	2.46429443359375	-3.795623779296875	-0.7781982421875	9.7928833404541	0.21906945190429686	0.14604630126953125	0.67138671875	-4.871368408203125	-3.10516357421875	9.975441217041014	0.45190556335449217	-0.21009119567871093	2.910614013671875	-4.5928955078125	-2.048492431640625	
129	0.516	0.0	0.0	0.0	0.0	0.006	0.003	0.003	0.006	9.860519537353515	0.1849520782470703	0.027533319091796873	2.315521240234375	-3.45611572265625	-0.8697509765625	9.785102185058593	0.229843359375	0.1466448516845703	0.61798095703125	-4.970550537109375	-3.2501220703125	9.98501802368164	0.45968671875	-0.21308394775390624	2.536773681640625	-4.627227783203125	-1.735687255859375	
130	0.52	0.0	0.0	0.0	0.0	0.006	0.003	0.006	0.006	9.860519537353515	0.18914193115234373	0.032920272827148434	2.4566650390625	-3.66973876953125	-0.988006591796875	9.787496386718749	0.23403321228027343	0.1388636962890625	0.6561279296875	-4.98199462890625	-3.24249267578125	9.976638317871092	0.4746504791259765	-0.20949264526367187	2.689361572265625	-4.7454833984375	-1.605987548828125	
131	0.524	0.0	0.0	0.0	0.0	0.006	0.003	0.003	0.003	9.862315188598632	0.19991583862304688	0.023343466186523436	2.5177001953125	-3.692626953125	-0.980377197265625	9.791087689208984	0.23104046020507812	0.14963760375976562	0.797271728515625	-4.98199462890625	-2.96783447265625	9.97125136413574	0.48183308410644526	-0.2088940948486328	2.574920654296875	-4.840850830078125	-1.80816650390625	
132	0.528	0.0	0.0	0.0	0.0	0.006	0.003	0.006	0.003	9.855731134033203	0.22445640563964842	0.037708676147460936	2.4566650390625	-3.71551513671875	-0.78582763671875	9.805452899169921	0.24600422058105467	0.1466448516845703	0.67138671875	-4.93621826171875	-3.10516357421875	9.970652813720703	0.46686932373046874	-0.19572598571777342	2.777099609375	-4.5166015625	-1.6632080078125	
133	0.532	0.0	0.0	0.0	0.0	0.0	0.006	0.006	0.006	9.868899243164062	0.2501940734863281	0.03232172241210937	2.4871826171875	-3.726959228515625	-0.83160400390625	9.770138424682617	0.2753331909179687	0.19213468322753904	0.4730224609375	-5.046844482421875	-3.154754638671875	9.964667309570311	0.5512649322509765	-0.19572598571777342	2.735137939453125	-4.64630126953125	-1.590728759765625	
134	0.536	0.0	0.0	0.0	0.0	0.003	0.003	0.006	0.006	9.855731134033203	0.16160861206054686	0.05805939025878906	2.704620361328125	-3.9215087890625	-0.93841552734375	9.79946739501953	0.15741875915527342	0.14544775085449219	0.701904296875	-5.016326904296875	-3.284454345703125	9.993996279907225	0.38786066894531246	-0.20649989318847656	2.4566650390625	-4.7149658203125	-1.86920166015625	
135	0.54	0.0	0.0	0.0	0.0	0.003	0.003	0.006	0.003	9.85632968444824	0.28311434631347654	0.02633621826171875	2.605438232421875	-3.658294677734375	-0.820159912109375	9.76116016845703	0.3812766143798828	0.18375497741699218	0.720977783203125	-5.1727294921875	-3.353118896484375	9.962273107910155	0.6218938812255859	-0.16460136413574217	2.655029296875	-4.72259521484375	-1.7547607421875	
136	0.544	0.0	0.0	0.0	0.0	0.003	0.006	0.006	0.009000000000000001	9.8449572265625	0.24001871643066405	0.06943184814453125	2.49481201171875	-3.658294677734375	-0.614166259765625	9.810241302490233	0.1801636749267578	0.17956512451171874	0.431060791015625	-4.680633544921875	-3.0517578125	9.976638317871092	0.4429273071289062	-0.1867477294921875	2.69317626953125	-4.711151123046875	-1.598358154296875	
137	0.548	0.0	0.0	0.0	0.0	0.006	0.006	0.006	0.006	9.860519537353515	0.20231004028320312	0.030526071166992186	2.62451171875	-4.024505615234375	-1.926422119140625	9.763554370117188	0.2651578338623047	0.19812018737792966	0.732421875	-5.199432373046875	-3.41033935546875	9.945513696289062	0.43155484924316406	-0.14963760375976562	2.635955810546875	-4.650115966796875	-1.97601318359375	
138	0.552	0.0	0.0	0.0	0.0	0.006	0.003	0.006	0.003	9.868899243164062	0.2980781066894531	0.05985504150390625	2.658843994140625	-3.879547119140625	-0.83160400390625	9.769539874267577	0.27353753967285155	0.18375497741699218	0.4730224609375	-5.126953125	-3.223419189453125	9.986215124511718	0.4955997436523437	-0.17298106994628906	2.590179443359375	-4.459381103515625	-1.766204833984375	
139	0.556	0.0	0.0	0.0	0.0	0.006	0.003	0.003	0.009000000000000001	9.8694977935791	0.2454056701660156	0.09636661682128905	3.009796142578125	-3.77655029296875	-0.568389892578125	9.74859060974121	0.33399113159179683	0.21188684692382811	0.58746337890625	-4.8675537109375	-3.101348876953125	9.923965881347655	0.5542576843261718	-0.11432312927246092	2.532958984375	-4.6844482421875	-1.621246337890625	
140	0.56	0.0	0.0	0.0	0.0	0.006	0.003	0.006	0.009000000000000001	9.849147079467773	0.1771709228515625	0.06584054565429687	2.834320068359375	-4.077911376953125	-0.820159912109375	9.769539874267577	0.1149216796875	0.19333178405761717	0.850677490234375	-5.092620849609375	-3.143310546875	9.910199221801758	0.3716998077392578	-0.02693476867675781	2.63214111328125	-4.604339599609375	-1.674652099609375	
141	0.5640000000000001	0.0	0.0	0.0	0.0	0.006	0.006	0.003	0.003	9.892242709350585	0.23702596435546874	0.08499415893554688	3.173828125	-3.7078857421875	-0.881195068359375	9.783306533813477	0.28909985046386716	0.21966800231933592	0.90789794921875	-4.9285888671875	-3.54766845703125	9.943119494628906	0.5722141967773438	-0.11133037719726561	2.4566650390625	-4.634857177734375	-1.89208984375	
142	0.5680000000000001	0.0	0.0	0.0	0.0	0.003	0.006	0.003	0.003	9.897629663085937	0.17836802368164062	0.033518823242187495	1.8463134765625	-3.59344482421875	-0.782012939453125	9.762955819702148	0.19812018737792966	0.20290859069824219	0.568389892578125	-5.035400390625	-2.93731689453125	9.892841259765625	0.517746109008789	-0.0047884033203125	2.628326416015625	-4.730224609375	-1.659393310546875	
143	0.5720000000000001	0.0	0.0	0.0	0.0	0.006	0.003	0.006	0.006	9.86291373901367	0.14425065002441406	0.11731588134765625	3.082275390625	-4.077911376953125	-1.056671142578125	9.770138424682617	0.16340426330566404	0.22685060729980466	0.70953369140625	-4.852294921875	-3.337860107421875	10.022128149414062	0.30466216125488277	-0.21068974609375	2.593994140625	-4.688262939453125	-1.861572265625	
144	0.5760000000000001	0.0	0.0	0.0	0.0	0.003	0.006	0.006	0.006	9.917381826782226	0.16280571289062498	0.025139117431640625	2.185821533203125	-3.536224365234375	-0.8544921875	9.822212310791015	0.24121581726074218	0.14784195251464843	0.431060791015625	-5.157470703125	-3.162384033203125	9.910199221801758	0.48722003784179685	-0.012569558715820313	2.704620361328125	-4.924774169921875	-1.708984375	
145	0.58	0.0	0.0	0.0	0.0	0.006	0.003	0.003	0.0	9.871293444824218	0.19931728820800781	0.09277531433105468	3.34930419921875	-4.24957275390625	-0.640869140625	9.773131176757811	0.24061726684570311	0.2166752502441406	0.408172607421875	-4.795074462890625	-3.208160400390625	10.036493359375	0.41838674011230464	-0.25139117431640623	2.483367919921875	-4.390716552734375	-2.101898193359375	
146	0.584	0.0	0.0	0.0	0.0	0.003	0.006	0.006	0.003	9.903615167236328	0.08918401184082031	0.054468087768554684	2.18963623046875	-3.536224365234375	-0.95367431640625	9.801861596679688	0.12569558715820311	0.1388636962890625	0.1983642578125	-4.894256591796875	-2.99072265625	9.855132583618163	0.37768531188964843	0.022146365356445312	2.651214599609375	-4.6844482421875	-1.54876708984375	
147	0.588	0.0	0.0	0.0	0.0	0.006	0.003	0.006	0.003	9.900023864746093	-0.055066638183593745	-0.02154781494140625	2.0294189453125	-3.406524658203125	-0.873565673828125	9.847949978637695	0.07781155395507812	0.07003039855957031	0.698089599609375	-4.99725341796875	-3.265380859375	10.058041174316406	0.33758243408203126	-0.2663549346923828	2.61688232421875	-4.718780517578125	-1.983642578125	
148	0.592	0.0	0.0	0.0	0.0	0.006	0.006	0.006	0.006	9.922768780517577	0.1304839904785156	0.028131869506835935	2.086639404296875	-3.406524658203125	-0.75531005859375	9.80665	0.1849520782470703	0.11731588134765625	0.46539306640625	-4.8370361328125	-3.063201904296875	9.999383233642577	0.6440402465820312	-0.2346317626953125	2.86865234375	-4.76837158203125	-1.52587890625	
149	0.596	0.0	0.0	0.0	0.0	0.006	0.006	0.006	0.006	9.881468801879882	-0.1274912384033203	-0.005985504150390624	1.94549560546875	-3.635406494140625	-1.064300537109375	9.8311905670166	0.005985504150390624	0.07422025146484375	0.957489013671875	-5.157470703125	-3.337860107421875	10.034697708129881	0.25797522888183594	-0.25917232971191406	2.52532958984375	-4.4708251953125	-1.9378662109375	
150	0.6	0.0	0.0	0.0	0.0	0.006	0.006	0.006	0.009000000000000001	9.897031112670899	0.10594342346191406	0.031124621582031248	3.05938720703125	-3.02886962890625	-0.553131103515625	9.710881933593749	0.3136404174804687	0.26396073303222656	0.67138671875	-4.878997802734375	-3.017425537109375	9.9981861328125	0.5704185455322265	-0.229843359375	2.727508544921875	-4.669189453125	-1.64794921875	
151	0.604	0.0	0.0	0.0	0.0	0.006	0.006	0.003	0.006	9.897031112670899	-0.12689268798828124	-0.037708676147460936	1.57928466796875	-3.520965576171875	-0.949859619140625	9.885060104370117	0.059256491088867186	0.0383072265625	0.797271728515625	-5.092620849609375	-3.261566162109375	10.120290417480469	0.21906945190429686	-0.3226186737060547	2.87628173828125	-4.53948974609375	-1.6937255859375	
152	0.608	0.0	0.0	0.0	0.0	0.009000000000000001	0.003	0.006	0.009000000000000001	9.742605105590819	0.19812018737792966	0.18614917907714842	3.11279296875	-4.18853759765625	-0.4730224609375	9.724648593139648	0.2807201446533203	0.28311434631347654	0.560760498046875	-4.8980712890625	-2.7618408203125	9.989207876586914	0.5183446594238281	-0.21906945190429686	2.7923583984375	-4.825592041015625	-1.453399658203125	
153	0.612	0.0	0.0	0.0	0.0	0.003	0.003	0.003	0.003	9.899425314331054	-0.17597382202148437	-0.040701428222656245	1.461029052734375	-3.143310546875	-1.13677978515625	9.86291373901367	0.022744915771484374	0.06703764648437499	1.049041748046875	-5.214691162109375	-3.37982177734375	10.13884548034668	0.13108254089355467	-0.3315969299316406	2.902984619140625	-4.642486572265625	-1.6326904296875	
154	0.616	0.0	0.0	0.0	0.0	0.003	0.006	0.006	0.006	9.762955819702148	0.201112939453125	0.1514332550048828	3.086090087890625	-4.0130615234375	-0.61798095703125	9.720458740234374	0.34057518615722654	0.2723404388427734	0.492095947265625	-4.8675537109375	-2.84576416015625	9.96047745666504	0.5925649108886718	-0.1083376251220703	2.7313232421875	-4.78363037109375	-1.888275146484375	
155	0.62	0.0	0.0	0.0	0.0	0.003	0.006	0.003	0.003	9.866505041503906	-0.04548983154296875	0.09457096557617187	1.522064208984375	-3.154754638671875	-0.75531005859375	9.891045608520507	-0.04249707946777344	0.07841010437011718	0.835418701171875	-4.98199462890625	-2.941131591796875	10.144232434082031	0.1083376251220703	-0.3321954803466797	2.9144287109375	-4.49371337890625	-1.644134521484375	
156	0.624	0.0	0.0	0.0	0.0	0.003	0.006	0.006	0.009000000000000001	9.739013803100585	0.23343466186523437	0.19512743530273435	3.330230712890625	-3.97491455078125	-0.476837158203125	9.746196408081055	0.3286041778564453	0.277727392578125	0.759124755859375	-5.3863525390625	-2.918243408203125	9.94072529296875	0.526125814819336	-0.08678981018066406	2.605438232421875	-4.779815673828125	-1.953125	
157	0.628	0.0	0.0	0.0	0.0	0.003	0.006	0.006	0.003	9.860519537353515	0.018555062866210937	0.0718260498046875	1.22833251953125	-3.01361083984375	-0.591278076171875	9.917381826782226	-0.013168109130859374	0.012569558715820313	0.83160400390625	-5.06591796875	-3.223419189453125	10.165780249023436	0.13108254089355467	-0.36571430358886714	2.5177001953125	-4.856109619140625	-1.64031982421875	
158	0.632	0.0	0.0	0.0	0.0	0.003	0.006	0.003	0.003	9.734225399780273	0.2472013214111328	0.19871873779296872	3.116607666015625	-4.184722900390625	-0.46539306640625	9.707889181518555	0.3956418243408203	0.27174188842773433	0.9613037109375	-5.13458251953125	-3.467559814453125	9.945513696289062	0.5536591339111328	-0.1149216796875	2.552032470703125	-4.573822021484375	-1.80816650390625	
159	0.636	0.0	0.0	0.0	0.0	0.006	0.003	0.003	0.003	9.855132583618163	0.02454056701660156	0.08978256225585937	1.708984375	-3.16619873046875	-0.63323974609375	9.923965881347655	-0.03172317199707031	0.03651157531738281	0.659942626953125	-4.917144775390625	-3.173828125	10.001178884887695	0.201112939453125	-0.24839842224121092	2.532958984375	-4.9896240234375	-1.796722412109375	
160	0.64	0.0	0.0	0.0	0.0	0.006	0.006	0.006	0.006	9.791686239624022	0.20769699401855468	-0.011971008300781249	3.47900390625	-3.99017333984375	-1.125335693359375	9.6917283203125	0.48243163452148435	0.31543606872558594	0.8392333984375	-4.8370361328125	-3.292083740234375	9.942520944213866	0.6488286499023437	-0.10354922180175781	2.75421142578125	-4.89044189453125	-1.89208984375	
161	0.644	0.0	0.0	0.0	0.0	0.003	0.006	0.006	0.003	9.90241806640625	0.07122749938964844	0.07003039855957031	1.567840576171875	-3.3111572265625	-0.9002685546875	9.767145672607422	-0.013168109130859374	0.19931728820800781	0.469207763671875	-5.08880615234375	-3.047943115234375	10.007762939453125	0.20530279235839843	-0.25797522888183594	2.58636474609375	-4.8828125	-1.621246337890625	
162	0.648	0.0	0.0	0.0	0.0	0.003	0.006	0.006	0.003	9.777919580078125	0.15023615417480468	-0.016759411621093748	3.77655029296875	-4.390716552734375	-1.155853271484375	9.697115274047851	0.45010991210937495	0.3022679595947265	0.797271728515625	-4.8828125	-3.543853759765625	9.821015209960937	0.43155484924316406	-0.055066638183593745	2.40325927734375	-4.451751708984375	-2.254486083984375	
163	0.652	0.0	0.0	0.0	0.0	0.003	0.006	0.006	0.006	9.865906491088866	0.17896657409667968	0.08259995727539061	2.2430419921875	-3.12042236328125	-0.782012939453125	9.758765966796874	0.04249707946777344	0.1879448303222656	0.45013427734375	-4.76837158203125	-3.261566162109375	9.995791931152343	0.3082534637451172	-0.239420166015625	2.44903564453125	-4.85992431640625	-1.735687255859375	
164	0.656	0.0	0.0	0.0	0.0	0.006	0.006	0.006	0.003	9.78629928588867	0.17657237243652343	-0.01975216369628906	3.66973876953125	-4.314422607421875	-1.16729736328125	9.701305126953125	0.239420166015625	0.22206220397949217	0.377655029296875	-5.08880615234375	-3.5400390625	9.823409411621093	0.4896142395019531	-0.0526724365234375	2.429962158203125	-4.528045654296875	-2.117156982421875	
165	0.66	0.0	0.0	0.0	0.0	0.009000000000000001	0.003	0.006	0.006	9.855132583618163	0.34656069030761716	-0.11252747802734374	2.5787353515625	-3.971099853515625	-0.896453857421875	9.77432827758789	-0.031124621582031248	0.18435352783203124	0.316619873046875	-5.28717041015625	-3.02886962890625	9.80066449584961	0.4064157318115234	0.086191259765625	2.529144287109375	-4.72259521484375	-1.682281494140625	
166	0.664	0.0	0.0	0.0	0.0	0.003	0.003	0.003	0.006	9.791087689208984	0.18435352783203124	-0.008978256225585938	3.9215087890625	-4.268646240234375	-1.04522705078125	9.674968908691406	0.32501287536621093	0.23822306518554687	0.64849853515625	-4.87518310546875	-3.757476806640625	9.79348189086914	0.5596446380615234	-0.023942016601562498	2.4261474609375	-4.535675048828125	-2.3345947265625	
167	0.668	0.0	0.0	0.0	0.0	-0.003	0.006	0.003	0.006	9.868899243164062	0.39145197143554683	-0.11611878051757812	2.38800048828125	-3.871917724609375	-0.812530517578125	9.746794958496093	0.2561795776367187	0.06344634399414062	0.48828125	-5.34820556640625	-3.025054931640625	9.792284790039062	0.5159504577636719	0.09038111267089843	2.47955322265625	-4.8370361328125	-1.53350830078125	
168	0.672	0.0	0.0	0.0	0.0	0.006	0.003	0.003	0.003	9.67197615661621	-0.04967968444824218	0.015562310791015624	2.567291259765625	-3.4942626953125	-1.102447509765625	9.654618194580078	0.29568390502929687	0.2549824768066406	0.335693359375	-4.8980712890625	-3.875732421875	9.7928833404541	0.49320554199218747	-0.037110125732421874	2.483367919921875	-4.35638427734375	-1.865386962890625	
169	0.676	0.0	0.0	0.0	0.0	0.003	0.006	0.003	0.006	9.888651406860351	0.38786066894531246	-0.14185644836425781	2.277374267578125	-3.772735595703125	-0.9002685546875	9.737816702270507	0.2813186950683594	0.08678981018066406	0.5950927734375	-5.34820556640625	-3.13568115234375	9.789890588378906	0.4944026428222656	0.11133037719726561	2.468109130859375	-4.5623779296875	-1.651763916015625	
170	0.68	0.0	0.0	0.0	0.0	0.003	0.006	0.006	0.006	9.829993466186522	-0.033518823242187495	-0.00718260498046875	2.0751953125	-3.711700439453125	-0.78582763671875	9.871891995239258	0.1197100830078125	0.03651157531738281	0.675201416015625	-4.791259765625	-3.414154052734375	10.14542953491211	0.25139117431640623	-0.3896563201904297	2.69317626953125	-4.608154296875	-2.017974853515625	
171	0.684	0.0	0.0	0.0	0.0	0.003	0.006	0.006	0.006	9.862315188598632	0.34656069030761716	-0.11851298217773437	2.338409423828125	-3.948211669921875	-0.70953369140625	9.717465988159178	0.2549824768066406	0.11372457885742186	0.4425048828125	-5.100250244140625	-3.07464599609375	9.795876092529296	0.40581718139648437	0.11133037719726561	2.399444580078125	-4.6234130859375	-1.5106201171875	
172	0.6880000000000001	0.0	0.0	0.0	0.0	0.006	0.006	0.003	0.006	9.83897172241211	-0.07362170104980469	-0.03950432739257812	1.903533935546875	-3.66973876953125	-1.003265380859375	9.873687646484374	0.12509703674316405	0.037110125732421874	0.759124755859375	-5.092620849609375	-3.467559814453125	10.149020837402343	0.2041056915283203	-0.3333925811767578	2.605438232421875	-4.24957275390625	-2.010345458984375	
173	0.6920000000000001	0.0	0.0	0.0	0.0	0.006	0.003	0.006	0.003	9.861716638183593	0.40581718139648437	0.201112939453125	3.139495849609375	-4.299163818359375	-0.63323974609375	9.713276135253906	0.3172317199707031	0.1352723937988281	0.5035400390625	-5.22613525390625	-2.658843994140625	10.013149893188476	0.8026561065673827	-0.21787235107421873	2.864837646484375	-4.589080810546875	-1.293182373046875	
174	0.6960000000000001	0.0	0.0	0.0	0.0	0.003	0.003	0.006	0.003	9.817423907470703	-0.09516951599121093	-0.018555062866210937	1.598358154296875	-3.673553466796875	-1.026153564453125	9.858125335693359	0.08678981018066406	0.05566518859863281	0.96893310546875	-4.985809326171875	-3.475189208984375	10.123283169555663	0.15322890625	-0.31004911499023435	2.78472900390625	-4.306793212890625	-1.949310302734375	
175	0.7000000000000001	0.0	0.0	0.0	0.0	0.003	0.003	0.003	0.006	9.834183319091796	0.4572925170898437	0.2316390106201172	3.627777099609375	-4.543304443359375	-0.682830810546875	9.798270294189452	0.4961982940673828	0.3477577911376953	0.18310546875	-5.13458251953125	-2.81524658203125	10.01015714111328	0.7835024932861328	-0.2184709014892578	2.78472900390625	-4.634857177734375	-1.361846923828125	
176	0.704	0.0	0.0	0.0	0.0	0.006	0.006	0.006	0.003	9.830592016601562	-0.08559270935058594	-0.03950432739257812	1.071929931640625	-3.07464599609375	-0.980377197265625	9.855731134033203	0.15981296081542967	0.058657940673828124	0.537872314453125	-4.852294921875	-3.490447998046875	10.262745416259765	0.24600422058105467	-0.47285482788085936	2.964019775390625	-4.7454833984375	-1.644134521484375	
177	0.708	0.0	0.0	0.0	0.0	0.006	0.006	0.006	0.009000000000000001	9.79348189086914	0.43933600463867184	0.23223756103515625	3.70025634765625	-4.3792724609375	-0.60272216796875	9.796474642944336	0.42377369384765623	0.3399766357421875	0.3509521484375	-5.08880615234375	-2.895355224609375	10.002375985717773	0.7266402038574218	-0.22445640563964842	3.04412841796875	-4.604339599609375	-1.438140869140625	
178	0.712	0.0	0.0	0.0	0.0	0.003	0.006	0.006	0.006	9.951499200439452	0.018555062866210937	0.1406593475341797	-0.934600830078125	-2.262115478515625	-1.163482666015625	10.064026678466796	-0.19093758239746092	-0.05686228942871093	1.1138916015625	-4.894256591796875	-3.292083740234375	10.237606298828124	0.201112939453125	-0.41359833679199215	2.9144287109375	-4.70733642578125	-1.6632080078125	
179	0.716	0.0	0.0	0.0	0.0	0.003	0.006	0.006	0.003	9.804255798339844	0.47105917663574215	0.21906945190429686	3.658294677734375	-4.535675048828125	-0.652313232421875	9.81263550415039	0.4842272857666015	0.3082534637451172	0.54168701171875	-5.31005859375	-2.7923583984375	10.006565838623047	0.8726865051269531	-0.24301146850585936	2.81524658203125	-4.749298095703125	-2.170562744140625	
180	0.72	0.0	0.0	0.0	0.0	0.006	0.003	0.006	0.006	9.93354268798828	-0.0017956512451171875	0.1640028137207031	-1.163482666015625	-1.750946044921875	-1.102447509765625	10.053851321411132	-0.20470424194335937	-0.06404489440917968	0.919342041015625	-5.04302978515625	-3.177642822265625	10.223241088867187	0.24480711975097655	-0.42437224426269526	2.75421142578125	-4.840850830078125	-1.74713134765625	
181	0.724	0.0	0.0	0.0	0.0	0.003	0.003	0.003	0.003	9.776123928833007	0.4285620971679687	0.29448680419921874	4.26483154296875	-4.57000732421875	-0.873565673828125	9.656413845825195	0.5686228942871093	0.3752911102294922	0.52642822265625	-5.001068115234375	-3.1890869140625	9.888052856445311	0.8930372192382812	-0.04129997863769531	2.66265869140625	-4.940032958984375	-2.208709716796875	
182	0.728	0.0	0.0	0.0	0.0	0.006	0.003	0.006	0.006	9.93354268798828	-0.015562310791015624	0.14125789794921875	-1.003265380859375	-2.1209716796875	-1.0223388671875	10.071209283447265	-0.22086510314941404	-0.07242460021972656	0.873565673828125	-4.96673583984375	-3.10516357421875	10.259154113769531	0.2771288421630859	-0.4375403533935547	2.910614013671875	-4.70733642578125	-1.781463623046875	
183	0.732	0.0	0.0	0.0	0.0	0.006	0.003	0.006	0.006	9.813832604980469	0.22026655273437498	0.1322796417236328	4.070281982421875	-4.451751708984375	-1.155853271484375	9.634267480468749	0.546476528930664	0.37768531188964843	0.476837158203125	-4.909515380859375	-3.173828125	9.886855755615233	0.8655039001464844	-0.04608838195800781	2.681732177734375	-4.726409912109375	-1.8768310546875	
184	0.736	0.0	0.0	0.0	0.0	0.006	0.006	0.006	0.006	9.917980377197265	-0.07242460021972656	0.1406593475341797	-1.2969970703125	-2.0599365234375	-1.232147216796875	9.785102185058593	-0.16699556579589842	0.15322890625	0.69427490234375	-4.90570068359375	-2.99072265625	9.980229620361328	0.143652099609375	-0.14185644836425781	2.590179443359375	-4.852294921875	-1.934051513671875	
185	0.74	0.0	0.0	0.0	0.0	0.003	0.003	0.003	0.003	9.821015209960937	0.1927332336425781	0.12449848632812499	3.902435302734375	-4.337310791015625	-1.033782958984375	9.645639938354492	0.603338818359375	0.354940396118164	0.499725341796875	-5.069732666015625	-3.093719482421875	9.898228213500976	0.9187748870849609	-0.059256491088867186	2.7923583984375	-4.669189453125	-2.00653076171875	
186	0.744	0.0	0.0	0.0	0.0	0.003	0.006	0.006	0.006	9.923367330932617	0.4590881683349609	-0.033518823242187495	2.925872802734375	-4.146575927734375	-0.553131103515625	9.810241302490233	-0.1897404815673828	0.1227028350830078	0.782012939453125	-5.096435546875	-2.99072265625	10.000580334472655	0.16340426330566404	-0.14724340209960937	2.521514892578125	-4.642486572265625	-1.598358154296875	
187	0.748	0.0	0.0	0.0	0.0	0.003	0.006	0.006	0.006	9.805452899169921	0.09816226806640624	0.11911153259277343	3.7994384765625	-4.2877197265625	-1.15203857421875	9.58279214477539	0.41060558471679687	0.36391865234375	0.377655029296875	-4.970550537109375	-3.83758544921875	9.7683427734375	0.27174188842773433	0.030526071166992186	2.14385986328125	-4.451751708984375	-2.288818359375	
188	0.752	0.0	0.0	0.0	0.0	0.003	0.006	0.006	4.554	9.931148486328125	0.4542997650146484	-0.02693476867675781	2.777099609375	-3.9520263671875	-0.698089599609375	9.819818109130859	-0.229843359375	0.1197100830078125	0.48065185546875	-5.229949951171875	-3.070831298828125	10.000580334472655	0.12509703674316405	-0.1592144104003906	2.593994140625	-5.054473876953125	-1.79290771484375	
189	0.756	0.0	0.0	0.0	0.0	4.554	4.602	4.6080000000000005	4.548	9.815029705810547	0.09576806640624999	0.11671733093261719	2.941131591796875	-4.199981689453125	-0.92315673828125	9.56962403564453	0.4896142395019531	0.39743747558593745	0.476837158203125	-4.878997802734375	-3.7384033203125	9.769539874267577	0.3908534210205078	0.0143652099609375	2.3345947265625	-4.650115966796875	-2.201080322265625	
190	0.76	0.0	0.0	0.0	0.0	4.5600000000000005	4.611	4.611	4.53	9.923367330932617	0.5135562561035156	-0.02693476867675781	3.04412841796875	-3.780364990234375	-0.6256103515625	9.680355862426758	0.19033903198242186	0.16041151123046873	0.60272216796875	-5.176544189453125	-2.685546875	9.976638317871092	0.1388636962890625	-0.1322796417236328	2.35748291015625	-4.57763671875	-1.21307373046875	
191	0.764	0.0	0.0	0.0	0.0	4.569	4.6080000000000005	4.605	4.527	9.849147079467773	-0.105344873046875	0.029328970336914062	3.742218017578125	-4.215240478515625	-0.774383544921875	9.566032733154296	0.38367081604003905	0.3938461730957031	0.576019287109375	-4.69207763671875	-3.76129150390625	9.767145672607422	0.26755203552246093	0.029328970336914062	2.201080322265625	-4.398345947265625	-2.166748046875	
192	0.768	0.0	0.0	0.0	0.0	4.563	4.602	4.6080000000000005	4.545	9.925162982177733	0.5099649536132812	-0.0430956298828125	2.8839111328125	-4.1046142578125	-0.675201416015625	9.704896429443359	0.15981296081542967	0.1227028350830078	0.35858154296875	-4.96673583984375	-2.74658203125	9.805452899169921	0.3603273498535156	0.11432312927246092	2.399444580078125	-4.756927490234375	-1.331329345703125	
193	0.772	0.0	0.0	0.0	0.0	4.5600000000000005	4.611	4.614	4.554	9.85752678527832	-0.07062894897460938	0.023343466186523436	3.749847412109375	-4.38690185546875	-0.64849853515625	9.561244329833984	0.5003881469726562	0.4165910888671875	0.568389892578125	-4.78363037109375	-3.7384033203125	9.755773214721678	0.3573345977783203	0.028730419921875	2.239227294921875	-4.608154296875	-2.13623046875	
194	0.776	0.0	0.0	0.0	0.0	4.5600000000000005	4.611	4.6080000000000005	4.554	9.925162982177733	0.49021278991699213	-0.037110125732421874	4.1351318359375	-4.61578369140625	-0.064849853515625	9.695319622802733	0.07721300354003906	0.1304839904785156	0.301361083984375	-5.11932373046875	-2.605438232421875	9.795876092529296	0.35015199279785153	0.08738836059570312	2.513885498046875	-4.8370361328125	-1.21307373046875	
195	0.78	0.0	0.0	0.0	0.0	4.548	4.6080000000000005	4.602	4.566	9.891644158935547	-0.09157821350097656	-0.018555062866210937	3.627777099609375	-4.37164306640625	-0.67138671875	9.865307940673828	0.09217676391601562	-0.004189852905273437	0.78582763671875	-4.795074462890625	-3.70025634765625	10.186130963134765	0.06105214233398437	-0.4513070129394531	2.95257568359375	-4.444122314453125	-1.983642578125	
196	0.784	0.0	0.0	0.0	0.0	4.566	4.6080000000000005	4.611	4.542	10.028113653564452	0.18136077575683593	-0.002992752075195312	3.66973876953125	-4.58526611328125	-0.370025634765625	9.683947164916992	-0.033518823242187495	0.15263035583496093	0.263214111328125	-5.046844482421875	-2.73895263671875	9.785102185058593	0.5063736511230469	0.08439560852050781	2.315521240234375	-4.47845458984375	-1.2054443359375	
197	0.788	0.0	0.0	0.0	0.0	4.563	4.611	4.611	4.527	9.890447058105469	-0.0047884033203125	-0.0017956512451171875	3.23486328125	-4.00543212890625	-0.61798095703125	9.823409411621093	0.1975216369628906	0.037708676147460936	0.728607177734375	-4.8065185546875	-3.704071044921875	10.158597644042969	0.16519991455078123	-0.39983167724609375	2.811431884765625	-4.32586669921875	-1.590728759765625	
198	0.792	0.0	0.0	0.0	0.0	4.566	4.6080000000000005	4.6080000000000005	4.533	9.986215124511718	0.12808978881835936	0.03651157531738281	4.364013671875	-4.810333251953125	-0.225067138671875	9.861118087768554	0.06344634399414062	0.17657237243652343	0.25177001953125	-5.306243896484375	-2.765655517578125	9.998784683227539	0.8092401611328125	-0.25797522888183594	2.75421142578125	-4.5166015625	-1.1138916015625	
199	0.796	0.0	0.0	0.0	0.0	4.566	4.599	4.6080000000000005	4.551	9.928754284667969	-0.14604630126953125	-0.03531447448730469	-0.4425048828125	-2.285003662109375	-1.373291015625	9.843161575317382	0.4004302276611328	0.01915361328125	0.67138671875	-4.94384765625	-3.10516357421875	10.179546908569336	0.013168109130859374	-0.3968389251708984	2.685546875	-4.344940185546875	-1.979827880859375	
200	0.8	0.0	0.0	0.0	0.0	4.5600000000000005	4.611	4.614	4.557	9.967061511230469	0.19991583862304688	0.09935936889648436	4.924774169921875	-5.023956298828125	-0.263214111328125	9.867702142333984	-0.0939724151611328	0.22026655273437498	0.3814697265625	-5.18798828125	-3.032684326171875	9.968258612060547	0.8738836059570312	-0.19393033447265623	2.70843505859375	-4.6844482421875	-1.54876708984375	
201	0.804	0.0	0.0	0.0	0.0	4.557	4.6080000000000005	4.6080000000000005	4.557	9.950302099609374	-0.028730419921875	-0.012569558715820313	-1.361846923828125	-1.956939697265625	-1.28936767578125	10.035296258544921	0.39145197143554683	-0.18555062866210936	1.13677978515625	-5.2642822265625	-3.170013427734375	10.168174450683592	0.05327098693847656	-0.44532150878906246	2.651214599609375	-4.70733642578125	-1.689910888671875	
202	0.808	0.0	0.0	0.0	0.0	4.551	4.605	4.602	4.566	10.051457119750976	-0.10235212097167969	0.06404489440917968	4.245758056640625	-4.76837158203125	0.11444091796875	9.89523546142578	-0.013766659545898436	0.18315642700195311	0.125885009765625	-4.95147705078125	-3.326416015625	9.991003527832031	0.6973112335205077	-0.21128829650878905	2.712249755859375	-4.688262939453125	-1.522064208984375	
203	0.812	0.0	0.0	0.0	0.0	4.566	4.611	4.611	4.5360000000000005	9.888052856445311	0.14185644836425781	0.058657940673828124	1.42669677734375	-3.139495849609375	-0.797271728515625	10.043675964355469	0.35673604736328124	-0.21068974609375	0.789642333984375	-4.909515380859375	-2.8228759765625	10.305841046142577	0.4860229370117187	-0.5764040496826172	2.86102294921875	-4.63104248046875	-1.117706298828125	
204	0.8160000000000001	0.0	0.0	0.0	0.0	4.569	4.6080000000000005	4.611	4.527	9.55705447692871	0.13766659545898435	0.19991583862304688	0.759124755859375	-2.979278564453125	-1.434326171875	9.630676177978515	0.1945288848876953	0.30466216125488277	0.812530517578125	-5.31768798828125	-3.53240966796875	9.990404977416992	0.5003881469726562	-0.20051438903808594	2.803802490234375	-4.8828125	-1.865386962890625	
205	0.8200000000000001	0.0	0.0	0.0	0.0	4.566	4.605	4.6080000000000005	4.545	10.02990930480957	0.0383072265625	-0.0047884033203125	-2.681732177734375	-1.3885498046875	-1.392364501953125	10.049661468505859	0.20290859069824219	-0.20051438903808594	0.797271728515625	-5.092620849609375	-2.765655517578125	10.295067138671874	0.4112041351318359	-0.5291185668945312	2.666473388671875	-4.61578369140625	-1.399993896484375	
206	0.8240000000000001	0.0	0.0	0.0	0.0	4.563	4.611	4.611	4.551	9.645041387939452	0.08499415893554688	0.16041151123046873	4.82940673828125	-4.90570068359375	-0.55694580078125	9.647435589599608	0.3082534637451172	0.2609679809570312	0.888824462890625	-5.1422119140625	-3.2958984375	9.896432562255859	0.33099837951660155	0.0017956512451171875	2.685546875	-4.413604736328125	-1.7852783203125	
207	0.8280000000000001	0.0	0.0	0.0	0.0	4.5600000000000005	4.611	4.614	4.557	10.021529598999022	0.13946224670410157	-0.013168109130859374	0.74005126953125	-2.834320068359375	-1.27410888671875	9.894038360595703	0.1849520782470703	0.07841010437011718	0.86212158203125	-5.0201416015625	-3.021240234375	10.29865844116211	0.3890577697753906	-0.5506663818359374	2.826690673828125	-4.779815673828125	-1.39617919921875	
208	0.8320000000000001	0.0	0.0	0.0	0.0	4.551	4.6080000000000005	4.6080000000000005	4.563	9.530119708251952	0.18734627990722655	0.25258827514648435	2.7313232421875	-3.856658935546875	-1.07574462890625	9.641450085449218	0.39983167724609375	0.28311434631347654	0.48828125	-5.252838134765625	-3.314971923828125	9.85632968444824	0.411802685546875	0.0005985504150390625	2.67791748046875	-4.69970703125	-1.9073486328125	
209	0.836	0.0	0.0	0.0	0.0	4.563	4.6080000000000005	4.596	4.548	9.944316595458984	0.4429273071289062	-0.004189852905273437	-0.110626220703125	-2.44903564453125	-1.354217529296875	9.90900212097168	0.09337386474609374	0.07362170104980469	0.9613037109375	-4.802703857421875	-3.3111572265625	9.920374578857421	0.5207388610839844	-0.012569558715820313	2.3651123046875	-4.9285888671875	-1.64031982421875	
210	0.84	0.0	0.0	0.0	0.0	4.5600000000000005	4.614	4.611	4.53	9.679158761596678	0.05027823486328125	0.18555062866210936	2.498626708984375	-3.79180908203125	-1.033782958984375	9.579200842285156	0.2747346405029297	0.5093664031982421	0.743865966796875	-4.913330078125	-3.6468505859375	9.873687646484374	0.37888241271972656	0.00718260498046875	2.742767333984375	-4.863739013671875	-1.9378662109375	
211	0.844	0.0	0.0	0.0	0.0	4.569	4.6080000000000005	4.6080000000000005	4.524	9.886855755615233	0.4842272857666015	0.05746083984375	3.173828125	-3.70025634765625	-0.7781982421875	9.900622415161132	0.12629413757324218	0.0939724151611328	0.79345703125	-5.31768798828125	-3.19671630859375	9.911994873046874	0.5925649108886718	0.004189852905273437	2.437591552734375	-4.64630126953125	-1.766204833984375	
212	0.848	0.0	0.0	0.0	0.0	4.563	4.602	4.6080000000000005	4.548	9.735422500610351	0.18255787658691405	0.10414777221679687	2.285003662109375	-3.345489501953125	-1.247406005859375	9.580397943115234	0.2711433380126953	0.4991910461425781	0.6256103515625	-4.779815673828125	-3.467559814453125	9.919776028442381	0.3184288208007812	-0.022146365356445312	2.216339111328125	-4.69207763671875	-2.20489501953125	
213	0.852	0.0	0.0	0.0	0.0	4.557	4.611	4.614	4.557	9.858723886108399	0.5225345123291015	0.07601590270996093	1.9989013671875	-3.387451171875	-1.270294189453125	9.898826763916015	0.12808978881835936	0.06643909606933593	0.347137451171875	-5.24139404296875	-3.200531005859375	9.94671079711914	0.6440402465820312	-0.06823474731445311	2.178192138671875	-4.852294921875	-1.575469970703125	
214	0.856	0.0	0.0	0.0	0.0	4.5600000000000005	4.611	4.611	4.554	9.803058697509766	0.07362170104980469	-0.0005985504150390625	2.1820068359375	-3.50189208984375	-1.049041748046875	9.591770401000977	0.2741360900878906	0.4417302062988281	0.598907470703125	-4.833221435546875	-3.490447998046875	9.770138424682617	0.143652099609375	-0.017357962036132813	2.376556396484375	-4.581451416015625	-1.972198486328125	
215	0.86	0.0	0.0	0.0	0.0	4.548	4.6080000000000005	4.605	4.566	9.880870251464843	0.4572925170898437	0.0718260498046875	2.399444580078125	-3.662109375	-0.885009765625	9.647435589599608	0.1867477294921875	0.3058592620849609	0.392913818359375	-4.909515380859375	-2.90679931640625	9.923965881347655	0.7056909393310546	-0.07122749938964844	2.513885498046875	-4.894256591796875	-1.8768310546875	
216	0.864	0.0	0.0	0.0	0.0	4.566	4.6080000000000005	4.614	4.542	9.7928833404541	0.15861585998535155	0.010773907470703125	2.66265869140625	-3.59344482421875	-0.988006591796875	9.612719665527344	0.3172317199707031	0.4327519500732422	0.54931640625	-3.9215087890625	-3.627777099609375	9.791686239624022	0.143652099609375	-0.05027823486328125	2.277374267578125	-4.482269287109375	-1.83868408203125	
217	0.868	0.0	0.0	0.0	0.0	4.563	4.614	4.614	4.53	9.903016616821288	0.14185644836425781	-0.05985504150390625	3.765106201171875	-4.39453125	-0.743865966796875	9.63307037963867	0.14484920043945312	0.34117373657226563	0.362396240234375	-5.168914794921875	-2.92205810546875	9.788094937133788	0.6440402465820312	0.009576806640625	2.716064453125	-4.63104248046875	-2.025604248046875	
218	0.872	0.0	0.0	0.0	0.0	4.569	4.605	4.605	4.533	9.812036953735351	0.19871873779296872	0.010175357055664061	1.57928466796875	-3.322601318359375	-1.155853271484375	9.765948571777344	0.2214636535644531	0.1514332550048828	0.202178955078125	-4.87518310546875	-3.559112548828125	9.762955819702148	0.19812018737792966	-0.031124621582031248	2.239227294921875	-4.436492919921875	-1.781463623046875	
219	0.876	0.0	0.0	0.0	0.0	4.566	4.599	4.6080000000000005	4.551	9.926360083007811	0.06344634399414062	-0.12150573425292968	4.764556884765625	-4.787445068359375	-0.52642822265625	9.673771807861328	0.10414777221679687	0.3441664886474609	0.0152587890625	-4.932403564453125	-2.941131591796875	9.835380419921874	0.6177040283203125	-0.008379705810546874	2.483367919921875	-4.52423095703125	-1.842498779296875	
220	0.88	0.0	0.0	0.0	0.0	4.5600000000000005	4.611	4.614	4.557	9.828796365356444	0.201112939453125	0.03232172241210937	2.5634765625	-4.06646728515625	-0.331878662109375	9.764751470947266	0.22086510314941404	0.18614917907714842	0.301361083984375	-4.60052490234375	-3.421783447265625	10.226832391357421	0.42377369384765623	-0.5039794494628906	2.887725830078125	-4.413604736328125	-1.3580322265625	
221	0.884	0.0	0.0	0.0	0.0	4.5600000000000005	4.6080000000000005	4.611	4.557	9.879673150634765	0.09157821350097656	-0.05686228942871093	4.734039306640625	-4.962921142578125	-0.423431396484375	9.843161575317382	0.1927332336425781	0.023942016601562498	0.26702880859375	-5.023956298828125	-2.9754638671875	9.82460651245117	0.5847837554931641	-0.027533319091796873	2.758026123046875	-4.665374755859375	-1.9683837890625	
222	0.888	0.0	0.0	0.0	0.0	4.548	4.6080000000000005	4.602	4.566	9.988609326171874	0.10953472595214843	-0.1131260284423828	1.667022705078125	-3.627777099609375	-0.469207763671875	9.752780462646484	0.2214636535644531	0.16639701538085935	0.209808349609375	-4.8370361328125	-3.2806396484375	10.192116467285155	0.44891281127929683	-0.47165772705078124	2.887725830078125	-4.47845458984375	-1.36566162109375	
223	0.892	0.0	0.0	0.0	0.0	4.566	4.611	0.23700000000000002	0.006	9.938929641723632	0.05027823486328125	-0.11552023010253906	4.35638427734375	-5.035400390625	-0.530242919921875	9.868300692749022	0.18136077575683593	-0.008978256225585938	0.347137451171875	-5.523681640625	-2.95257568359375	10.056245523071288	0.3591302490234375	-0.23523031311035156	2.902984619140625	-4.703521728515625	-1.834869384765625	
224	0.896	0.0	0.0	0.0	0.0	0.003	0.006	0.006	0.003	10.01075569152832	0.002992752075195312	-0.1304839904785156	1.766204833984375	-3.34930419921875	-0.4119873046875	10.043675964355469	0.12689268798828124	-0.15382745666503905	0.55694580078125	-5.077362060546875	-3.177642822265625	10.225635290527343	0.5063736511230469	-0.5015852478027344	2.902984619140625	-4.589080810546875	-1.583099365234375	
225	0.9	0.0	0.0	0.0	0.0	0.003	0.003	0.006	0.003	9.622296472167967	0.12030863342285156	0.31064766540527344	3.215789794921875	-4.21142578125	-0.537872314453125	9.815029705810547	0.2184709014892578	0.05327098693847656	0.335693359375	-5.24139404296875	-3.131866455078125	10.026916552734374	0.29867665710449215	-0.19213468322753904	2.98309326171875	-4.779815673828125	-1.5106201171875	
226	0.904	0.0	0.0	0.0	0.0	0.006	0.003	0.006	0.006	10.005368737792969	-0.013766659545898436	-0.143652099609375	0.86212158203125	-3.086090087890625	-0.64849853515625	10.041281762695311	0.07003039855957031	-0.18255787658691405	1.010894775390625	-4.99725341796875	-3.02886962890625	10.238204849243164	0.5153519073486328	-0.5255272644042969	2.8076171875	-4.4708251953125	-1.52587890625	
227	0.908	0.0	0.0	0.0	0.0	0.003	0.003	0.006	0.006	9.680355862426758	0.2136824981689453	0.21128829650878905	3.231048583984375	-4.14276123046875	-0.446319580078125	9.703100778198241	0.4171896392822265	0.30346506042480464	1.01470947265625	-5.336761474609375	-2.78472900390625	10.060435375976562	0.2902969512939453	-0.23822306518554687	3.040313720703125	-4.6234130859375	-1.689910888671875	
228	0.912	0.0	0.0	0.0	0.0	0.003	0.003	0.006	0.006	9.93354268798828	-0.10594342346191406	-0.10115502014160156	1.689910888671875	-3.2196044921875	-0.93841552734375	9.999981784057617	0.028730419921875	-0.14784195251464843	0.766754150390625	-4.955291748046875	-3.047943115234375	10.175955606079102	0.5500678314208984	-0.31962592163085934	3.070831298828125	-4.741668701171875	-1.644134521484375	
229	0.916	0.0	0.0	0.0	0.0	0.006	0.006	0.006	0.006	9.662997900390625	0.2651578338623047	0.2699462371826172	2.52532958984375	-3.85284423828125	-0.58746337890625	9.703100778198241	0.4531026641845703	0.23403321228027343	0.942230224609375	-5.252838134765625	-2.819061279296875	10.028113653564452	0.27293898925781246	-0.25737667846679685	2.986907958984375	-4.734039306640625	-1.659393310546875	
230	0.92	0.0	0.0	0.0	0.0	0.006	0.006	0.003	0.003	9.88266590270996	0.11611878051757812	-0.008978256225585938	1.079559326171875	-2.971649169921875	-1.0986328125	9.949703549194336	0.05746083984375	0.03890577697753906	0.827789306640625	-5.18798828125	-3.322601318359375	10.26035121459961	0.5728127471923827	-0.4429273071289062	3.055572509765625	-4.85992431640625	-1.3580322265625	
231	0.924	0.0	0.0	0.0	0.0	0.006	0.003	0.003	0.006	9.591770401000977	0.12689268798828124	0.32920272827148434	0.911712646484375	-2.964019775390625	-0.6866455078125	9.686341366577148	0.33698388366699217	0.2813186950683594	0.885009765625	-5.184173583984375	-2.895355224609375	9.811438403320311	0.24779987182617186	0.2346317626953125	2.288818359375	-4.673004150390625	-2.03704833984375	
232	0.928	0.0	0.0	0.0	0.0	0.006	0.003	0.003	0.006	9.873089096069336	0.3268085266113281	0.02693476867675781	2.67791748046875	-3.83758544921875	-1.132965087890625	9.90900212097168	0.10654197387695312	0.07362170104980469	0.759124755859375	-5.077362060546875	-3.39508056640625	10.250175857543944	0.6464344482421874	-0.5692214447021484	3.1280517578125	-4.7760009765625	-1.522064208984375	
233	0.932	0.0	0.0	0.0	0.0	0.0	0.006	0.006	0.0	9.578602291870117	0.037708676147460936	0.32142157287597656	-1.277923583984375	-2.201080322265625	-1.6632080078125	9.756371765136718	0.37708676147460934	0.2825157958984375	1.16729736328125	-5.046844482421875	-3.62396240234375	9.847351428222655	0.34117373657226563	0.08259995727539061	2.61688232421875	-4.72259521484375	-1.834869384765625	
234	0.936	0.0	0.0	0.0	0.0	0.006	0.003	0.003	0.003	9.931148486328125	0.32441432495117184	0.029328970336914062	2.14385986328125	-3.60107421875	-0.90789794921875	9.945513696289062	0.025139117431640625	0.086191259765625	0.7781982421875	-4.8370361328125	-3.41796875	10.038887561035155	0.32561142578124996	-0.3136404174804687	2.140045166015625	-4.932403564453125	-2.330780029296875	
235	0.9400000000000001	0.0	0.0	0.0	0.0	0.003	0.006	0.006	0.006	9.765948571777344	0.06943184814453125	0.10474632263183593	0.293731689453125	-2.735137939453125	-1.773834228515625	9.666589202880859	0.3286041778564453	0.3603273498535156	0.797271728515625	-5.0201416015625	-3.520965576171875	9.756371765136718	0.36750995483398435	0.2932897033691406	2.46429443359375	-4.871368408203125	-1.796722412109375	
236	0.9440000000000001	0.0	0.0	0.0	0.0	0.006	0.006	0.006	0.006	9.86411083984375	0.3226186737060547	0.03950432739257812	1.010894775390625	-2.8533935546875	-1.2664794921875	9.949703549194336	0.04189852905273437	0.1352723937988281	0.34332275390625	-5.2337646484375	-3.02886962890625	9.92217023010254	0.32501287536621093	-0.18255787658691405	2.08282470703125	-4.9896240234375	-2.41851806640625	
237	0.9480000000000001	0.0	0.0	0.0	0.0	0.003	0.003	0.003	0.003	9.884461553955077	0.20949264526367187	-0.05566518859863281	1.461029052734375	-3.269195556640625	-1.270294189453125	9.732429748535155	0.35194764404296874	0.32561142578124996	0.7781982421875	-5.0506591796875	-3.57818603515625	9.926958633422851	0.3752911102294922	0.028730419921875	2.62451171875	-4.06646728515625	-1.979827880859375	
238	0.9520000000000001	0.0	0.0	0.0	0.0	0.003	0.006	0.006	0.003	9.796474642944336	0.18076222534179687	0.06943184814453125	4.6539306640625	-4.886627197265625	-0.8544921875	9.604339959716796	0.0005985504150390625	0.4722562774658203	0.034332275390625	-5.046844482421875	-3.231048583984375	9.944316595458984	0.3010708587646484	-0.2549824768066406	2.5177001953125	-4.703521728515625	-1.83868408203125	
239	0.9560000000000001	0.0	0.0	0.0	0.0	0.006	0.003	0.003	0.006	9.892841259765625	0.22026655273437498	-0.02633621826171875	-0.919342041015625	-2.01416015625	-1.567840576171875	9.667786303710937	0.40282442932128903	0.35134909362792965	0.782012939453125	-4.703521728515625	-3.30352783203125	9.752181912231444	0.48722003784179685	-0.06703764648437499	2.410888671875	-4.32586669921875	-1.7547607421875	
240	0.96	0.0	0.0	0.0	0.0	0.006	0.003	0.006	0.006	9.873687646484374	0.13946224670410157	-0.06344634399414062	7.579803466796875	-6.107330322265625	-0.125885009765625	9.733626849365233	-0.0005985504150390625	0.3232172241210937	0.263214111328125	-5.138397216796875	-2.84576416015625	10.035894808959961	0.3591302490234375	-0.2950853546142578	2.773284912109375	-4.878997802734375	-1.911163330078125	
241	0.964	0.0	0.0	0.0	0.0	0.003	0.006	0.003	0.003	9.794678991699218	0.21966800231933592	-0.012569558715820313	1.148223876953125	-2.773284912109375	-1.384735107421875	9.725247143554688	0.15203180541992187	0.14185644836425781	0.316619873046875	-4.78363037109375	-3.398895263671875	9.805452899169921	0.354940396118164	-0.06703764648437499	2.605438232421875	-4.5623779296875	-1.94549560546875	
242	0.968	0.0	0.0	0.0	0.0	0.003	0.003	0.003	0.003	9.867103591918944	0.1292868896484375	0.00239420166015625	5.523681640625	-5.19561767578125	-0.530242919921875	9.60194575805664	0.08678981018066406	0.5021837982177734	0.030517578125	-4.93621826171875	-3.047943115234375	9.769539874267577	0.4016273284912109	0.017956512451171875	2.777099609375	-4.909515380859375	-1.850128173828125	
243	0.972	0.0	0.0	0.0	0.0	0.003	0.006	0.006	0.006	9.969455712890625	0.2861070983886719	0.001197100830078125	4.76837158203125	-4.741668701171875	-0.232696533203125	9.758167416381836	0.16699556579589842	0.006584054565429687	0.438690185546875	-5.001068115234375	-3.719329833984375	9.804854348754882	0.36212300109863277	-0.08080430603027343	2.422332763671875	-4.26483154296875	-1.54876708984375	
244	0.976	0.0	0.0	0.0	0.0	0.003	0.006	0.006	0.003	9.816825357055663	0.11611878051757812	-0.08858546142578125	6.275177001953125	-5.550384521484375	-0.1983642578125	9.771335525512695	0.12030863342285156	0.04249707946777344	0.06866455078125	-5.11932373046875	-3.204345703125	9.84435867614746	0.35613749694824215	-0.05386953735351562	2.685546875	-4.627227783203125	-1.79290771484375	
245	0.98	0.0	0.0	0.0	0.0	0.003	0.006	0.006	0.003	9.93952819213867	0.047884033203124995	-0.040102877807617184	1.949310302734375	-3.34930419921875	-0.774383544921875	9.706093530273437	0.24361001892089842	0.08798691101074219	0.64849853515625	-4.878997802734375	-3.60107421875	10.206481677246094	0.4171896392822265	-0.421978042602539	2.7313232421875	-4.39453125	-1.659393310546875	
246	0.984	0.0	0.0	0.0	0.0	0.003	0.003	0.006	0.003	9.874884747314452	-0.06404489440917968	-0.08858546142578125	2.246856689453125	-4.0283203125	-0.3662109375	9.73602105102539	0.17238251953125	0.040102877807617184	0.270843505859375	-5.279541015625	-2.918243408203125	9.775525378417969	0.4435258575439453	-0.044292730712890624	2.86102294921875	-5.046844482421875	-1.949310302734375	
247	0.988	0.0	0.0	0.0	0.0	0.0	0.003	0.006	0.003	9.962273107910155	0.2262520568847656	-0.1227028350830078	4.268646240234375	-4.749298095703125	-0.03814697265625	9.9981861328125	0.044891281127929686	-0.10354922180175781	0.820159912109375	-5.153656005859375	-3.1585693359375	10.250774407958984	0.4417302062988281	-0.4842272857666015	2.635955810546875	-4.4097900390625	-1.491546630859375	
248	0.992	0.0	0.0	0.0	0.0	0.0	0.006	0.003	0.003	9.720458740234374	-0.2885013000488281	0.28311434631347654	-0.6561279296875	-2.384185791015625	-1.33514404296875	9.752780462646484	0.15442600708007811	-0.04848258361816406	0.17547607421875	-4.764556884765625	-3.01361083984375	9.805452899169921	0.4273649963378906	-0.143652099609375	2.712249755859375	-4.634857177734375	-1.590728759765625	
249	0.996	0.0	0.0	0.0	0.0	0.003	0.006	0.003	0.006	9.955090502929687	-0.05087678527832031	-0.09277531433105468	-0.06103515625	-2.696990966796875	-1.041412353515625	9.909600671386718	0.11671733093261719	-0.040102877807617184	0.904083251953125	-5.313873291015625	-3.2806396484375	10.146626635742187	0.5129577056884765	-0.4207809417724609	2.811431884765625	-4.390716552734375	-1.689910888671875	
250	1.0	0.0	0.0	0.0	0.0	0.006	0.006	0.006	0.003	9.87668039855957	-0.19213468322753904	0.19692308654785154	2.506256103515625	-3.875732421875	-0.362396240234375	9.76774422302246	0.38247371520996093	0.43514615173339843	0.934600830078125	-4.913330078125	-2.75421142578125	10.122684619140625	0.3459621398925781	-0.14544775085449219	2.887725830078125	-4.6539306640625	-1.70135498046875	
251	1.004	0.0	0.0	0.0	0.0	0.006	0.006	0.006	0.006	9.819219558715819	0.4082113830566406	0.26396073303222656	2.1820068359375	-3.459930419921875	-0.904083251953125	9.952696301269532	0.09756371765136718	-0.09576806640624999	1.071929931640625	-4.795074462890625	-3.231048583984375	10.237606298828124	0.4375403533935547	-0.421978042602539	2.727508544921875	-4.261016845703125	-1.22833251953125	
252	1.008	0.0	0.0	0.0	0.0	0.0	0.006	0.006	0.0	9.573813888549804	0.09157821350097656	0.5446808776855468	-1.67083740234375	-1.995086669921875	-1.277923583984375	9.693523971557617	0.3705027069091797	0.4991910461425781	1.12152099609375	-5.138397216796875	-2.78472900390625	10.031704956054687	0.39444472351074217	-0.13946224670410157	2.788543701171875	-4.791259765625	-1.544952392578125	
253	1.012	0.0	0.0	0.0	0.0	0.006	0.003	0.003	0.006	10.116699114990233	0.2316390106201172	0.13407529296874998	1.1444091796875	-3.025054931640625	-1.247406005859375	9.95389340209961	0.2914940521240234	0.2507926239013672	0.675201416015625	-4.993438720703125	-3.627777099609375	10.327388861083984	0.5632359405517577	-0.6476315490722656	2.9754638671875	-4.695892333984375	-1.50299072265625	
254	1.016	0.0	0.0	0.0	0.0	0.006	0.006	0.003	0.006	9.871293444824218	-0.09457096557617187	0.4800374328613281	1.65557861328125	-3.253936767578125	-0.392913818359375	9.744999307250977	0.29089550170898437	0.6027402679443359	1.4801025390625	-5.260467529296875	-3.31878662109375	10.182539660644531	0.2747346405029297	-0.11851298217773437	2.92205810546875	-4.791259765625	-1.651763916015625	
255	1.02	0.0	0.0	0.0	0.0	0.003	0.006	0.006	0.009000000000000001	9.87009634399414	0.7116764434814453	0.32920272827148434	5.2642822265625	-4.7454833984375	-0.331878662109375	9.913790524291992	0.10594342346191406	0.27174188842773433	0.5035400390625	-5.001068115234375	-3.53240966796875	10.244788903808594	0.5183446594238281	-0.5039794494628906	2.887725830078125	-4.53948974609375	-1.964569091796875	
256	1.024	0.0	0.0	0.0	0.0	0.009000000000000001	0.003	0.003	0.006	9.750386260986328	0.5781997009277343	0.04848258361816406	0.102996826171875	-2.34222412109375	-1.956939697265625	9.711480484008788	0.3112462158203125	0.5907692596435546	0.682830810546875	-4.970550537109375	-3.185272216796875	9.773131176757811	0.3603273498535156	0.062249243164062495	2.696990966796875	-4.58526611328125	-1.59454345703125	
257	1.028	0.0	0.0	0.0	0.0	0.006	0.003	0.006	0.009000000000000001	9.958083255004881	0.4423287567138672	0.1370680450439453	0.34332275390625	-2.475738525390625	-1.922607421875	10.01733974609375	0.14724340209960937	0.14784195251464843	0.560760498046875	-4.573822021484375	-3.330230712890625	10.308235247802735	0.47165772705078124	-0.612915625	2.7618408203125	-4.6234130859375	-1.7547607421875	
258	1.032	0.0	0.0	0.0	0.0	0.009000000000000001	0.006	0.006	0.006	10.071807833862303	-0.06464344482421874	-0.258573779296875	2.8839111328125	-3.7841796875	-0.762939453125	9.71686743774414	0.27293898925781246	0.2819172454833984	0.213623046875	-4.8065185546875	-3.22723388671875	9.797073193359374	0.29269115295410153	0.12629413757324218	2.696990966796875	-4.520416259765625	-1.773834228515625	
259	1.036	0.0	0.0	0.0	0.0	0.003	0.006	0.006	0.003	10.169371551513672	0.20709844360351562	-0.03890577697753906	9.342193603515625	-7.038116455078125	0.64849853515625	9.97125136413574	0.20350714111328125	0.13646949462890623	0.78582763671875	-4.917144775390625	-3.33404541015625	10.205284576416014	0.5865794067382812	-0.5249287139892578	2.223968505859375	-4.810333251953125	-1.926422119140625	
260	1.04	0.0	0.0	0.0	0.0	0.006	0.003	0.003	0.003	9.773131176757811	0.3758896606445312	-0.21009119567871093	4.7760009765625	-4.833221435546875	-0.640869140625	9.77492682800293	0.239420166015625	0.04189852905273437	0.217437744140625	-4.8065185546875	-3.173828125	9.765350021362304	0.2693476867675781	0.12569558715820311	2.37274169921875	-4.657745361328125	-1.85394287109375	
261	1.044	0.0	0.0	0.0	0.0	0.003	0.003	0.003	0.003	9.76235726928711	0.09038111267089843	-0.15562310791015624	0.354766845703125	-2.73895263671875	-1.7547607421875	9.824007962036132	0.14245499877929688	-0.0652419952392578	0.06103515625	-5.096435546875	-3.086090087890625	9.913790524291992	0.5207388610839844	-0.1753752716064453	2.349853515625	-4.8980712890625	-2.132415771484375	
262	1.048	0.0	0.0	0.0	0.0	0.006	0.006	0.006	0.003	9.835380419921874	-0.0017956512451171875	-0.18555062866210936	-1.07574462890625	-1.995086669921875	-1.94549560546875	9.673173257446289	0.45010991210937495	0.21188684692382811	0.087738037109375	-4.901885986328125	-3.238677978515625	9.715670336914062	0.3495534423828125	0.13168109130859373	2.8228759765625	-4.947662353515625	-2.231597900390625	
263	1.052	0.0	0.0	0.0	0.0	0.003	0.003	0.006	0.006	9.867702142333984	0.13946224670410157	0.08798691101074219	4.268646240234375	-4.8980712890625	-0.194549560546875	9.765948571777344	0.16759411621093748	0.05027823486328125	0.42724609375	-5.13458251953125	-3.086090087890625	9.852139831542969	0.642244595336914	-0.1005564697265625	2.12860107421875	-4.718780517578125	-1.972198486328125	
264	1.056	0.0	0.0	0.0	0.0	0.0	0.006	0.006	0.006	9.879673150634765	0.30885201416015623	0.05027823486328125	3.940582275390625	-4.24957275390625	-0.507354736328125	9.673771807861328	0.19692308654785154	0.16639701538085935	0.576019287109375	-4.93621826171875	-3.33404541015625	9.913790524291992	0.25258827514648435	-0.047285482788085934	2.2430419921875	-4.726409912109375	-1.6632080078125	
265	1.06	0.0	0.0	0.0	0.0	0.006	0.003	0.006	0.003	9.738415252685547	0.49859249572753905	0.19812018737792966	5.405426025390625	-5.2490234375	-0.621795654296875	9.73063409729004	0.1753752716064453	0.16819266662597654	0.728607177734375	-5.214691162109375	-3.448486328125	9.832986218261718	0.5973533142089843	-0.13946224670410157	2.391815185546875	-4.932403564453125	-2.3651123046875	
266	1.064	0.0	0.0	0.0	0.0	0.006	0.006	0.003	0.006	9.866505041503906	0.13766659545898435	0.05746083984375	1.007080078125	-3.13568115234375	-1.186370849609375	9.587580548095703	0.3094505645751953	0.20350714111328125	0.42724609375	-4.669189453125	-3.30352783203125	9.751583361816406	0.31184476623535157	-0.04967968444824218	2.49481201171875	-4.657745361328125	-1.65557861328125	
267	1.068	0.0	0.0	0.0	0.0	0.006	0.006	0.003	0.0	9.911396322631836	0.36691140441894526	-0.007781155395507812	3.63922119140625	-4.52423095703125	-0.888824462890625	9.79946739501953	0.03651157531738281	0.017357962036132813	0.530242919921875	-5.4168701171875	-3.173828125	9.892841259765625	0.5548562347412109	-0.07062894897460938	2.8228759765625	-4.924774169921875	-1.651763916015625	
268	1.072	0.0	0.0	0.0	0.0	0.009000000000000001	0.006	0.003	0.006	9.922768780517577	0.034715924072265626	0.010773907470703125	3.993988037109375	-4.543304443359375	-0.293731689453125	9.629479077148437	0.17178396911621094	0.16759411621093748	0.518798828125	-4.64630126953125	-3.05938720703125	9.859322436523437	0.19333178405761717	-0.07481880187988281	2.521514892578125	-4.2724609375	-1.972198486328125	
269	1.076	0.0	0.0	0.0	0.0	0.006	0.006	0.006	0.006	9.77492682800293	-0.032920272827148434	0.1352723937988281	2.033233642578125	-3.65447998046875	-0.720977783203125	9.683348614501952	0.1580173095703125	0.1879448303222656	0.736236572265625	-5.2032470703125	-3.22723388671875	9.792284790039062	0.5883750579833984	0.06045359191894531	2.38800048828125	-4.53948974609375	-1.667022705078125	
270	1.08	0.0	0.0	0.0	0.0	0.006	0.003	0.003	0.006	9.834183319091796	0.14245499877929688	0.16519991455078123	0.644683837890625	-3.070831298828125	-1.1444091796875	9.93952819213867	0.19333178405761717	0.013766659545898436	0.67138671875	-4.96673583984375	-2.9296875	9.892242709350585	0.2280477081298828	-0.08020575561523437	2.9754638671875	-4.405975341796875	-1.216888427734375	
271	1.084	0.0	0.0	0.0	0.0	0.006	0.006	0.003	0.006	10.066420880126952	-0.08559270935058594	-0.061650692749023434	2.288818359375	-3.726959228515625	-0.48065185546875	9.775525378417969	0.17477672119140625	0.09516951599121093	0.743865966796875	-5.092620849609375	-3.299713134765625	9.935338339233398	0.489015689086914	-0.033518823242187495	2.7313232421875	-4.589080810546875	-1.804351806640625	
272	1.088	0.0	0.0	0.0	0.0	0.006	0.003	0.006	0.003	9.913191973876952	0.020350714111328123	0.13766659545898435	2.15911865234375	-3.604888916015625	-0.392913818359375	9.8694977935791	0.16699556579589842	0.059256491088867186	0.438690185546875	-4.69207763671875	-2.956390380859375	10.268730920410155	0.5207388610839844	-0.6338648895263671	2.788543701171875	-4.43267822265625	-1.50299072265625	
273	1.092	0.0	0.0	0.0	0.0	0.003	0.006	0.003	0.009000000000000001	9.957484704589843	-0.07062894897460938	0.044292730712890624	4.558563232421875	-4.82940673828125	-0.164031982421875	9.750984811401366	0.2519897247314453	0.40940848388671874	0.667572021484375	-5.260467529296875	-3.070831298828125	9.85752678527832	0.48243163452148435	0.044292730712890624	2.559661865234375	-4.566192626953125	-1.6937255859375	
274	1.096	0.0	0.0	0.0	0.0	0.0	0.003	0.006	0.003	9.937133990478515	-0.1945288848876953	-0.09696516723632811	-0.93841552734375	-2.22015380859375	-1.003265380859375	9.935338339233398	0.029328970336914062	0.006584054565429687	0.934600830078125	-4.878997802734375	-3.025054931640625	10.344746823120117	0.39145197143554683	-0.6153098266601562	2.857208251953125	-4.291534423828125	-1.636505126953125	
275	1.1	0.0	0.0	0.0	0.0	0.003	0.003	0.006	0.003	9.99160207824707	-0.15442600708007811	0.04548983154296875	2.948760986328125	-4.322052001953125	-0.400543212890625	9.765948571777344	0.2376245147705078	0.46028526916503903	0.45013427734375	-5.05828857421875	-2.971649169921875	10.059238275146484	0.2765302917480469	-0.2292448089599609	3.223419189453125	-4.825592041015625	-1.903533935546875	
276	1.104	0.0	0.0	0.0	0.0	0.003	0.003	0.006	0.006	9.926360083007811	-0.13108254089355467	0.012569558715820313	-0.232696533203125	-2.498626708984375	-0.80108642578125	9.87608184814453	0.16460136413574217	0.008978256225585938	1.07574462890625	-4.9591064453125	-3.009796142578125	10.209474429321288	0.5422866760253906	-0.5153519073486328	2.994537353515625	-4.55474853515625	-1.04522705078125	
277	1.108	0.0	0.0	0.0	0.0	0.006	0.006	0.003	0.003	9.551667523193359	0.40222587890625	0.2855085479736328	4.82940673828125	-4.35638427734375	-0.705718994140625	9.798868844604492	0.13347674255371092	0.3950432739257812	0.530242919921875	-5.1116943359375	-2.95257568359375	10.09395419921875	0.2184709014892578	-0.14425065002441406	3.082275390625	-4.69970703125	-1.71661376953125	
278	1.112	0.0	0.0	0.0	0.0	0.006	0.006	0.006	0.006	9.858125335693359	0.01915361328125	0.047884033203124995	-0.22125244140625	-2.330780029296875	-0.86212158203125	10.095749850463866	0.10773907470703124	-0.1562216583251953	1.41143798828125	-4.84466552734375	-3.246307373046875	10.19570776977539	0.46148236999511716	-0.28311434631347654	2.666473388671875	-4.581451416015625	-1.64794921875	
279	1.116	0.0	0.0	0.0	0.0	0.0	0.003	0.006	0.006	9.532513909912108	0.3082534637451172	0.2914940521240234	3.7841796875	-4.18853759765625	-0.926971435546875	9.760561618041992	0.2424129180908203	0.44891281127929683	0.576019287109375	-5.512237548828125	-3.0059814453125	9.970652813720703	0.3603273498535156	-0.16759411621093748	3.01361083984375	-5.02777099609375	-1.644134521484375	
280	1.12	0.0	0.0	0.0	0.0	0.006	0.003	0.003	0.003	10.002375985717773	-0.029328970336914062	-0.058657940673828124	-1.3427734375	-1.88446044921875	-0.95367431640625	10.091559997558592	0.18136077575683593	-0.12509703674316405	1.10626220703125	-4.833221435546875	-3.177642822265625	10.143035333251953	0.546476528930664	-0.2711433380126953	2.689361572265625	-4.87518310546875	-1.495361328125	
281	1.124	0.0	0.0	0.0	0.0	0.006	0.006	0.006	0.003	9.625289224243163	0.20709844360351562	0.20470424194335937	4.848480224609375	-4.913330078125	-0.637054443359375	9.625887774658203	0.23403321228027343	0.4734533782958984	0.392913818359375	-4.695892333984375	-3.459930419921875	10.114304913330077	0.2472013214111328	-0.2184709014892578	2.2430419921875	-4.634857177734375	-2.14385986328125	
282	1.1280000000000001	0.0	0.0	0.0	0.0	0.009000000000000001	0.003	0.006	4.548	9.858125335693359	0.4572925170898437	0.05386953735351562	-0.095367431640625	-2.38037109375	-1.48773193359375	10.050858569335936	0.13347674255371092	-0.12210428466796874	1.316070556640625	-4.98199462890625	-3.192901611328125	10.073603485107421	0.5476736297607422	-0.20949264526367187	2.7313232421875	-4.886627197265625	-1.651763916015625	
283	1.1320000000000001	0.0	0.0	0.0	0.0	4.548	4.602	4.6080000000000005	4.539	9.5630399810791	0.23822306518554687	0.28311434631347654	3.528594970703125	-4.1351318359375	-0.843048095703125	9.576806640625	0.3794809631347656	0.44532150878906246	0.67138671875	-5.191802978515625	-3.376007080078125	9.627084875488281	0.2292448089599609	0.24181436767578124	2.155303955078125	-4.78363037109375	-2.048492431640625	
284	1.1360000000000001	0.0	0.0	0.0	0.0	4.563	4.611	4.611	4.524	10.00417163696289	0.4465186096191406	-0.0987608184814453	0.6103515625	-3.040313720703125	-0.92315673828125	9.852139831542969	0.08259995727539061	0.08080430603027343	0.49591064453125	-4.863739013671875	-3.10516357421875	10.212467181396484	0.47764323120117186	-0.3956418243408203	2.66265869140625	-4.67681884765625	-1.48773193359375	
285	1.1400000000000001	0.0	0.0	0.0	0.0	4.563	4.6080000000000005	4.605	4.5360000000000005	9.639055883789062	0.13826514587402344	0.2549824768066406	5.260467529296875	-4.840850830078125	-0.766754150390625	9.567828384399414	0.3896563201904297	0.41838674011230464	0.614166259765625	-5.18035888671875	-3.50189208984375	9.692326870727538	0.13646949462890623	0.18614917907714842	2.471923828125	-4.589080810546875	-2.040863037109375	
286	1.1440000000000001	0.0	0.0	0.0	0.0	4.566	4.599	4.6080000000000005	4.551	9.888651406860351	0.4034229797363281	-0.0143652099609375	0.942230224609375	-2.971649169921875	-0.98419189453125	9.714473236083984	0.09696516723632811	0.20350714111328125	0.560760498046875	-4.84466552734375	-3.25775146484375	9.74859060974121	0.6793547210693359	0.09516951599121093	2.35748291015625	-5.016326904296875	-1.911163330078125	
287	1.1480000000000001	0.0	0.0	0.0	0.0	4.563	4.611	4.614	4.554	9.71686743774414	0.02454056701660156	0.09038111267089843	3.6163330078125	-4.33349609375	-0.86212158203125	9.541492166137695	0.2765302917480469	0.4016273284912109	0.446319580078125	-4.932403564453125	-3.631591796875	9.773131176757811	0.1227028350830078	0.13407529296874998	2.37274169921875	-4.6539306640625	-2.11334228515625	
288	1.1520000000000001	0.0	0.0	0.0	0.0	4.557	4.611	4.611	4.5600000000000005	9.924564431762695	0.25797522888183594	-0.029328970336914062	0.736236572265625	-2.933502197265625	-0.96893310546875	9.819818109130859	-0.0143652099609375	0.08319850769042968	0.995635986328125	-4.8980712890625	-3.337860107421875	9.912593423461914	0.584185205078125	-0.06584054565429687	2.323150634765625	-4.7454833984375	-2.11334228515625	
289	1.156	0.0	0.0	0.0	0.0	4.548	4.6080000000000005	4.602	4.566	9.718064538574218	0.010773907470703125	0.12210428466796874	3.650665283203125	-4.1656494140625	-0.762939453125	9.424774835205078	0.3178302703857422	0.49260699157714843	0.45013427734375	-5.035400390625	-3.612518310546875	9.79348189086914	0.2615665313720703	-0.09756371765136718	2.376556396484375	-4.52423095703125	-1.605987548828125	
290	1.16	0.0	0.0	0.0	0.0	4.566	4.611	4.614	4.539	9.920374578857421	0.2472013214111328	-0.05566518859863281	4.34112548828125	-4.680633544921875	-0.41961669921875	9.651026892089844	0.10295067138671875	0.2747346405029297	0.492095947265625	-5.1116943359375	-3.017425537109375	9.819818109130859	0.6494272003173828	0.05386953735351562	2.28118896484375	-4.913330078125	-2.25830078125	
291	1.164	0.0	0.0	0.0	0.0	4.569	4.614	4.611	4.524	9.819818109130859	-0.16879121704101563	-0.059256491088867186	2.330780029296875	-3.643035888671875	-0.926971435546875	9.590573300170897	0.23044190979003906	0.3315969299316406	0.438690185546875	-4.638671875	-3.63922119140625	9.967061511230469	0.2232593048095703	-0.17956512451171874	2.475738525390625	-4.467010498046875	-1.758575439453125	
292	1.168	0.0	0.0	0.0	0.0	4.572	4.605	4.6080000000000005	4.545	9.95329485168457	0.09696516723632811	-0.08439560852050781	4.344940185546875	-4.69970703125	-0.46539306640625	9.654618194580078	0.07841010437011718	0.2615665313720703	0.55694580078125	-5.0201416015625	-3.307342529296875	9.778518130493163	0.6111199737548828	0.05746083984375	2.819061279296875	-4.64630126953125	-1.89971923828125	
293	1.172	0.0	0.0	0.0	0.0	4.563	4.611	4.611	4.554	9.756371765136718	0.07541735229492187	0.11671733093261719	2.95257568359375	-3.814697265625	-0.789642333984375	9.73602105102539	0.13646949462890623	0.21068974609375	0.67138671875	-4.848480224609375	-3.2501220703125	9.770736975097655	0.3477577911376953	-0.07122749938964844	2.567291259765625	-4.55474853515625	-1.529693603515625	
294	1.176	0.0	0.0	0.0	0.0	4.5600000000000005	4.611	4.614	4.5600000000000005	10.02332525024414	0.12629413757324218	-0.19632453613281248	4.5928955078125	-4.9896240234375	-0.40435791015625	9.765948571777344	0.09457096557617187	0.19991583862304688	0.57220458984375	-5.05828857421875	-2.98309326171875	9.986813674926758	0.4447229583740234	-0.17956512451171874	2.593994140625	-4.547119140625	-1.800537109375	
295	1.18	0.0	0.0	0.0	0.0	4.545	4.6080000000000005	4.6080000000000005	4.563	9.957484704589843	-0.08559270935058594	-0.08678981018066406	1.96075439453125	-3.223419189453125	-0.63323974609375	9.879673150634765	0.11133037719726561	0.011971008300781249	0.492095947265625	-4.573822021484375	-3.345489501953125	9.919177478027343	0.34835634155273437	-0.23582886352539062	2.58636474609375	-4.29534912109375	-1.739501953125	
296	1.184	0.0	0.0	0.0	0.0	4.563	0.006	0.006	0.009000000000000001	9.907206469726562	0.20231004028320312	-0.016160861206054686	4.23431396484375	-4.9285888671875	-0.66375732421875	9.585186346435547	0.061650692749023434	0.3764882110595703	0.213623046875	-5.229949951171875	-2.64739990234375	9.840168823242188	0.43574470214843747	-0.12030863342285156	2.9449462890625	-4.741668701171875	-1.80816650390625	
297	1.188	0.0	0.0	0.0	0.0	0.003	0.003	0.003	0.003	9.92217023010254	0.08319850769042968	-0.055066638183593745	2.83050537109375	-4.08935546875	-0.621795654296875	9.826402163696288	0.19692308654785154	0.1149216796875	0.614166259765625	-4.947662353515625	-3.1280517578125	10.28489178161621	0.5835866546630859	-0.6015431671142578	3.07464599609375	-4.589080810546875	-1.3885498046875	
298	1.192	0.0	0.0	0.0	0.0	0.003	0.003	0.003	0.003	9.989806427001952	0.04369418029785156	-0.20171148986816406	2.76947021484375	-4.87518310546875	-0.621795654296875	9.982025271606444	0.23702596435546874	0.022744915771484374	0.102996826171875	-4.985809326171875	-2.92205810546875	10.067617980957031	0.39863457641601563	-0.3345896820068359	2.719879150390625	-4.703521728515625	-1.556396484375	
299	1.196	0.0	0.0	0.0	0.0	0.009000000000000001	0.006	0.006	0.006	9.88266590270996	0.09277531433105468	-0.04189852905273437	1.9073486328125	-3.513336181640625	-0.8697509765625	9.783905084228515	0.18914193115234373	0.11791443176269531	0.78582763671875	-4.93621826171875	-3.143310546875	10.245986004638672	0.6003460662841796	-0.5536591339111328	2.89154052734375	-4.444122314453125	-1.399993896484375	
300	1.2	0.0	0.0	0.0	0.0	0.0	0.003	0.006	0.003	9.613318215942382	0.23882161560058593	0.3854664672851562	2.47955322265625	-3.856658935546875	-0.576019287109375	9.801861596679688	0.2699462371826172	0.23642741394042968	0.507354736328125	-5.0048828125	-2.8076171875	9.955090502929687	0.31663316955566406	-0.12808978881835936	2.81524658203125	-4.634857177734375	-1.720428466796875	
301	1.204	0.0	0.0	0.0	0.0	0.003	0.006	0.003	0.006	10.066420880126952	-0.037708676147460936	-0.23104046020507812	1.972198486328125	-3.72314453125	-0.60272216796875	10.127473022460936	0.09337386474609374	-0.15861585998535155	1.148223876953125	-5.218505859375	-3.002166748046875	10.378864196777343	0.5770026000976562	-0.6578069061279297	2.78472900390625	-4.60052490234375	-1.560211181640625	
302	1.208	0.0	0.0	0.0	0.0	0.003	0.003	0.006	0.003	9.667187753295899	0.12150573425292968	0.2813186950683594	2.6092529296875	-3.692626953125	-0.423431396484375	9.833584768676758	0.2705447875976562	0.11073182678222655	0.576019287109375	-5.157470703125	-3.12042236328125	10.089165795898436	0.2807201446533203	-0.1580173095703125	2.880096435546875	-4.756927490234375	-1.5106201171875	
303	1.212	0.0	0.0	0.0	0.0	0.003	0.003	0.006	0.003	9.852738381958007	0.26874913635253905	0.12210428466796874	0.682830810546875	-3.082275390625	-1.2054443359375	9.934739788818359	0.08918401184082031	-0.06284779357910156	1.186370849609375	-5.2490234375	-3.23486328125	10.235810647583007	0.7643488800048828	-0.33758243408203126	2.727508544921875	-4.9285888671875	-1.857757568359375	
304	1.216	0.0	0.0	0.0	0.0	0.003	0.003	0.003	0.003	9.640851535034178	0.21248539733886718	0.3477577911376953	1.5411376953125	-3.4637451171875	-0.92315673828125	9.655216744995117	0.5452794281005859	0.2292448089599609	1.129150390625	-5.298614501953125	-3.025054931640625	10.038887561035155	0.32441432495117184	-0.15263035583496093	3.108978271484375	-5.054473876953125	-1.64031982421875	
305	1.22	0.0	0.0	0.0	0.0	0.003	0.003	0.003	0.006	9.969455712890625	0.29388825378417965	-0.028730419921875	1.2054443359375	-3.170013427734375	-1.293182373046875	10.089165795898436	0.03950432739257812	-0.13587094421386717	0.820159912109375	-5.176544189453125	-3.215789794921875	10.302249743652343	0.5823895538330078	-0.48183308410644526	2.956390380859375	-4.787445068359375	-1.773834228515625	
306	1.224	0.0	0.0	0.0	0.0	0.003	0.006	0.003	0.0	9.522937103271484	0.2346317626953125	0.42437224426269526	1.850128173828125	-3.452301025390625	-0.682830810546875	9.637260232543944	0.5309142181396485	0.29867665710449215	0.7476806640625	-4.76837158203125	-2.9449462890625	10.00417163696289	0.3393780853271484	-0.08798691101074219	3.173828125	-4.680633544921875	-1.743316650390625	
