	time	dac1	dac2	dac3	dac4	adc1.3	adc2.3	adc3.3	adc4.3	imu1accx	imu1accy	imu1accz	imu1gyrox	imu1gyroy	imu1gyroz	imu2accx	imu2accy	imu2accz	imu2gyrox	imu2gyroy	imu2gyroz	imu3accx	imu3accy	imu3accz	imu3gyrox	imu3gyroy	imu3gyroz	log
0	0.0	0.0	0.0	0.0	0.0	0.003	0.006	0.003	0.006	9.85094273071289	0.13347674255371092	-0.010175357055664061	2.593994140625	-4.0130615234375	-0.858306884765625	9.784503634643555	0.17657237243652343	0.08259995727539061	0.545501708984375	-5.2337646484375	-3.078460693359375	9.984419473266602	0.4171896392822265	-0.18435352783203124	2.44140625	-4.73785400390625	-1.7852783203125	Estabizou em 7s, 1468 rpm
1	0.004	0.0	0.0	0.0	0.0	0.003	0.003	0.003	0.003	9.849147079467773	0.13766659545898435	-0.018555062866210937	2.590179443359375	-3.673553466796875	-0.823974609375	9.779116680908203	0.1771709228515625	0.08439560852050781	0.629425048828125	-4.913330078125	-2.86102294921875	9.986813674926758	0.41539398803710936	-0.18136077575683593	2.544403076171875	-4.642486572265625	-1.819610595703125	Started
2	0.008	0.0	0.0	0.0	0.0	0.003	0.006	0.003	0.003	9.839570272827148	0.18136077575683593	-0.011372457885742187	2.51007080078125	-3.841400146484375	-0.78582763671875	9.765948571777344	0.22385785522460935	0.1149216796875	0.476837158203125	-5.123138427734375	-3.398895263671875	9.967061511230469	0.46208092041015625	-0.15682020874023436	2.605438232421875	-4.650115966796875	-1.880645751953125	IMU1|LSM6DS3|0x6A|I2C-1|±2g (±19,6m/s²)|±125º/s|400Hz
3	0.012	0.0	0.0	0.0	0.0	0.006	0.003	0.003	0.003	9.85094273071289	0.18914193115234373	-0.014963760375976562	2.410888671875	-3.742218017578125	-0.690460205078125	9.78629928588867	0.2214636535644531	0.10773907470703124	0.579833984375	-4.787445068359375	-3.0364990234375	9.97903251953125	0.46507367248535153	-0.16639701538085935	2.956390380859375	-4.66156005859375	-1.7242431640625	IMU2|LSM6DS3|0x6B|I2C-1|±2g (±19,6m/s²)|±125º/s|400Hz
4	0.016	0.0	0.0	0.0	0.0	0.006	0.003	0.003	0.003	9.883264453125	0.16160861206054686	-0.037110125732421874	2.7618408203125	-3.66973876953125	-0.476837158203125	9.805452899169921	0.21009119567871093	0.09516951599121093	0.736236572265625	-4.89044189453125	-3.36456298828125	10.00955859069824	0.4465186096191406	-0.18435352783203124	2.925872802734375	-4.756927490234375	-1.9378662109375	IMU3|LSM6DS3|0x6B|I2C-2|±2g (±19,6m/s²)|±125º/s|400Hz
5	0.02	0.0	0.0	0.0	0.0	0.003	0.003	0.006	0.006	9.8694977935791	0.19213468322753904	0.002992752075195312	2.471923828125	-3.803253173828125	-0.78582763671875	9.788693487548828	0.22864625854492185	0.12868833923339842	0.54931640625	-5.2490234375	-2.95257568359375	9.97903251953125	0.4686649749755859	-0.16998831787109375	2.76947021484375	-4.642486572265625	-1.80816650390625	ADC|ADS1015|0|0|1|0|±6,144 V|2400 SPS
6	0.024	0.0	0.0	0.0	0.0	0.006	0.006	0.003	0.006	9.851541281127929	0.19931728820800781	0.017956512451171875	2.590179443359375	-3.925323486328125	-0.614166259765625	9.783905084228515	0.22505495605468748	0.14425065002441406	0.54931640625	-4.978179931640625	-3.131866455078125	9.986813674926758	0.4638765716552734	-0.14903905334472656	2.574920654296875	-4.650115966796875	-1.7242431640625	Gen1|Disabled
7	0.028	0.0	0.0	0.0	0.0	0.003	0.006	0.006	0.003	9.853935482788085	0.1562216583251953	-0.0053869537353515625	2.655029296875	-3.68499755859375	-0.720977783203125	9.791087689208984	0.19991583862304688	0.13467384338378904	0.835418701171875	-4.871368408203125	-3.208160400390625	9.992799179077148	0.4273649963378906	-0.17417817077636719	2.773284912109375	-4.749298095703125	-1.903533935546875	Gen2|Enabled|Noise|0.0|10.0|1668
8	0.032	0.0	0.0	0.0	0.0	0.003	0.006	0.003	0.003	9.860519537353515	0.15981296081542967	0.004189852905273437	2.559661865234375	-3.85284423828125	-0.54168701171875	9.762955819702148	0.22385785522460935	0.1466448516845703	0.74005126953125	-5.01251220703125	-3.387451171875	9.974244116210937	0.43155484924316406	-0.1753752716064453	2.73895263671875	-4.650115966796875	-1.911163330078125	Gen3|Enabled|Noise|0.0|10.0|128
9	0.036000000000000004	0.0	0.0	0.0	0.0	0.006	0.003	0.006	0.006	9.83777462158203	0.17477672119140625	0.03172317199707031	2.40325927734375	-3.60107421875	-0.80108642578125	9.7545761138916	0.23104046020507812	0.1610100616455078	0.5035400390625	-5.07354736328125	-3.2196044921875	9.943119494628906	0.4656722229003906	-0.16819266662597654	2.544403076171875	-4.535675048828125	-1.678466796875	Gen4|Enabled|Noise|0.0|10.0|128
10	0.04	0.0	0.0	0.0	0.0	0.003	0.003	0.006	0.003	9.840767373657226	0.15023615417480468	0.03651157531738281	2.399444580078125	-3.65447998046875	-0.89263916015625	9.78031378173828	0.201112939453125	0.15562310791015624	0.591278076171875	-4.90570068359375	-3.31878662109375	9.974244116210937	0.42437224426269526	-0.1771709228515625	2.73895263671875	-4.734039306640625	-1.9378662109375	Ctrl|Disabled
11	0.044	0.0	0.0	0.0	0.0	0.003	0.006	0.006	0.003	9.859920986938477	0.13826514587402344	0.03411737365722656	2.63214111328125	-3.71551513671875	-0.64849853515625	9.787496386718749	0.1801636749267578	0.1388636962890625	0.579833984375	-5.096435546875	-3.299713134765625	9.994594830322265	0.4159925384521484	-0.19991583862304688	2.81524658203125	-4.817962646484375	-1.766204833984375	
12	0.048	0.0	0.0	0.0	0.0	0.003	0.003	0.003	0.006	9.850344180297851	0.15322890625	0.04369418029785156	2.38037109375	-3.84521484375	-0.70953369140625	9.787496386718749	0.19812018737792966	0.16220716247558592	0.28228759765625	-5.008697509765625	-2.98309326171875	9.986215124511718	0.43574470214843747	-0.19153613281249998	2.6702880859375	-4.734039306640625	-1.903533935546875	
13	0.052000000000000005	0.0	0.0	0.0	0.0	0.006	0.006	0.006	0.003	9.864709390258788	0.14963760375976562	0.051475335693359374	2.536773681640625	-3.925323486328125	-0.835418701171875	9.787496386718749	0.17776947326660156	0.16819266662597654	0.579833984375	-4.863739013671875	-3.223419189453125	9.974244116210937	0.4321533996582031	-0.18076222534179687	2.429962158203125	-4.41741943359375	-1.621246337890625	
14	0.056	0.0	0.0	0.0	0.0	0.006	0.006	0.003	0.006	9.871891995239258	0.12569558715820311	0.054468087768554684	2.292633056640625	-3.92913818359375	-0.7171630859375	9.791087689208984	0.16519991455078123	0.17058686828613281	0.54931640625	-4.848480224609375	-3.208160400390625	9.993397729492187	0.3962403747558593	-0.18854338073730467	2.628326416015625	-4.61578369140625	-1.888275146484375	
15	0.06	0.0	0.0	0.0	0.0	0.003	0.006	0.006	0.006	9.853336932373047	0.11851298217773437	0.06703764648437499	2.620697021484375	-3.795623779296875	-0.926971435546875	9.781510882568359	0.1640028137207031	0.19153613281249998	0.67138671875	-4.886627197265625	-3.18145751953125	9.974842666625976	0.38367081604003905	-0.16280571289062498	2.8076171875	-4.64630126953125	-1.773834228515625	
16	0.064	0.0	0.0	0.0	0.0	0.009000000000000001	0.003	0.003	0.003	9.859322436523437	0.11851298217773437	0.07781155395507812	2.407073974609375	-3.795623779296875	-0.79345703125	9.784503634643555	0.15741875915527342	0.20290859069824219	0.6256103515625	-4.89044189453125	-3.162384033203125	9.95987890625	0.40581718139648437	-0.1466448516845703	2.34222412109375	-4.604339599609375	-1.773834228515625	
17	0.068	0.0	0.0	0.0	0.0	0.006	0.003	0.003	0.003	9.866505041503906	0.07841010437011718	0.05626373901367187	2.330780029296875	-3.7841796875	-0.9002685546875	9.80066449584961	0.143652099609375	0.19812018737792966	0.6103515625	-4.84466552734375	-3.269195556640625	9.989207876586914	0.37229835815429685	-0.14125789794921875	2.55584716796875	-4.4708251953125	-1.83868408203125	
18	0.07200000000000001	0.0	0.0	0.0	0.0	0.006	0.003	0.003	0.003	9.854534033203125	0.0652419952392578	0.06284779357910156	2.559661865234375	-3.833770751953125	-0.9002685546875	9.792284790039062	0.1083376251220703	0.20530279235839843	0.858306884765625	-5.229949951171875	-3.2196044921875	10.001777435302733	0.35613749694824215	-0.1466448516845703	2.593994140625	-4.909515380859375	-1.52587890625	
19	0.076	0.0	0.0	0.0	0.0	0.003	0.003	0.003	0.003	9.847351428222655	0.0718260498046875	0.10235212097167969	2.513885498046875	-3.734588623046875	-0.89263916015625	9.780912332153319	0.105344873046875	0.2292448089599609	0.63323974609375	-4.886627197265625	-3.21197509765625	9.981426721191406	0.35194764404296874	-0.10773907470703124	2.643585205078125	-4.67681884765625	-1.628875732421875	
20	0.08	0.0	0.0	0.0	0.0	0.003	0.003	0.003	0.003	9.83777462158203	0.06823474731445311	0.08978256225585937	2.285003662109375	-3.513336181640625	-0.64849853515625	9.771934075927733	0.09935936889648436	0.22445640563964842	0.3204345703125	-5.0048828125	-3.1280517578125	9.97903251953125	0.34715924072265625	-0.10654197387695312	2.9144287109375	-4.558563232421875	-1.834869384765625	
21	0.084	0.0	0.0	0.0	0.0	0.006	0.006	0.006	0.003	9.848548529052733	0.04908113403320312	0.06763619689941405	2.437591552734375	-3.77655029296875	-0.83160400390625	9.781510882568359	0.08319850769042968	0.21009119567871093	0.873565673828125	-4.913330078125	-3.322601318359375	9.991003527832031	0.32561142578124996	-0.12808978881835936	2.76947021484375	-4.6539306640625	-1.911163330078125	
22	0.088	0.0	0.0	0.0	0.0	0.012	0.003	0.006	0.006	9.855132583618163	0.08559270935058594	0.07362170104980469	2.5787353515625	-3.826141357421875	-0.911712646484375	9.783905084228515	0.11013327636718749	0.19692308654785154	0.57220458984375	-5.0506591796875	-3.021240234375	9.964068759155273	0.35194764404296874	-0.13407529296874998	2.689361572265625	-4.734039306640625	-1.70135498046875	
23	0.092	0.0	0.0	0.0	0.0	0.003	0.003	0.003	0.006	9.855731134033203	0.09516951599121093	0.07781155395507812	2.567291259765625	-3.650665283203125	-0.78582763671875	9.78031378173828	0.1304839904785156	0.2059013427734375	0.7781982421875	-5.039215087890625	-3.215789794921875	9.974842666625976	0.3746925598144531	-0.13946224670410157	2.765655517578125	-4.69207763671875	-1.76239013671875	
24	0.096	0.0	0.0	0.0	0.0	-0.003	0.006	0.006	0.003	9.85632968444824	0.08080430603027343	0.07601590270996093	2.666473388671875	-3.894805908203125	-0.99945068359375	9.787496386718749	0.12030863342285156	0.19333178405761717	0.60272216796875	-4.913330078125	-3.18145751953125	9.993996279907225	0.3651157531738281	-0.16699556579589842	2.7618408203125	-4.886627197265625	-1.819610595703125	
25	0.1	0.0	0.0	0.0	0.0	0.003	0.006	0.003	0.003	9.866505041503906	0.09636661682128905	0.07242460021972656	2.559661865234375	-3.627777099609375	-0.80108642578125	9.798270294189452	0.14245499877929688	0.18375497741699218	0.52642822265625	-4.955291748046875	-3.223419189453125	9.995791931152343	0.37828386230468747	-0.18734627990722655	2.773284912109375	-4.787445068359375	-1.949310302734375	
26	0.10400000000000001	0.0	0.0	0.0	0.0	0.003	0.003	0.003	0.006	9.86411083984375	0.13168109130859373	0.0652419952392578	2.3345947265625	-3.543853759765625	-0.812530517578125	9.78629928588867	0.18136077575683593	0.17896657409667968	0.606536865234375	-4.95147705078125	-3.284454345703125	9.970652813720703	0.41898529052734373	-0.20530279235839843	2.574920654296875	-4.87518310546875	-1.80816650390625	
27	0.108	0.0	0.0	0.0	0.0	0.006	0.003	0.003	0.006	9.86411083984375	0.14544775085449219	0.04848258361816406	2.44140625	-3.765106201171875	-0.682830810546875	9.794678991699218	0.1879448303222656	0.15861585998535155	0.732421875	-4.932403564453125	-3.314971923828125	9.973047015380859	0.42975919799804685	-0.21607669982910155	2.50244140625	-4.512786865234375	-1.708984375	
28	0.112	0.0	0.0	0.0	0.0	0.006	0.003	0.003	0.006	9.86411083984375	0.143652099609375	0.037708676147460936	2.376556396484375	-3.765106201171875	-0.86212158203125	9.791686239624022	0.18375497741699218	0.14305354919433594	0.80108642578125	-5.06591796875	-3.208160400390625	9.981426721191406	0.41419688720703124	-0.239420166015625	2.674102783203125	-4.512786865234375	-1.743316650390625	
29	0.116	0.0	0.0	0.0	0.0	0.003	0.003	0.003	0.006	9.846752877807617	0.15682020874023436	0.0383072265625	2.5787353515625	-3.72314453125	-0.90789794921875	9.781510882568359	0.20290859069824219	0.1406593475341797	0.400543212890625	-4.89044189453125	-3.177642822265625	9.973047015380859	0.4273649963378906	-0.21727380065917967	2.460479736328125	-4.589080810546875	-1.86920166015625	
30	0.12	0.0	0.0	0.0	0.0	0.006	0.006	0.003	0.003	9.843760125732421	0.17477672119140625	0.044292730712890624	2.414703369140625	-3.631591796875	-0.732421875	9.775525378417969	0.21906945190429686	0.15263035583496093	0.652313232421875	-4.985809326171875	-3.204345703125	9.974244116210937	0.45489831542968745	-0.21966800231933592	2.6092529296875	-4.703521728515625	-1.804351806640625	
31	0.124	0.0	0.0	0.0	0.0	0.009000000000000001	0.003	0.006	0.003	9.852139831542969	0.19093758239746092	0.028730419921875	2.559661865234375	-3.604888916015625	-0.736236572265625	9.785102185058593	0.22864625854492185	0.1484405029296875	0.42724609375	-4.978179931640625	-2.948760986328125	9.977236868286132	0.46507367248535153	-0.2136824981689453	2.666473388671875	-4.6844482421875	-1.7547607421875	
32	0.128	0.0	0.0	0.0	0.0	0.006	0.006	0.006	0.003	9.85692823486328	0.19692308654785154	0.018555062866210937	2.62451171875	-3.917694091796875	-0.8392333984375	9.789890588378906	0.2328361114501953	0.1322796417236328	0.6103515625	-4.89044189453125	-3.13568115234375	9.976039767456054	0.4734533782958984	-0.21428104858398436	2.54058837890625	-4.608154296875	-1.7852783203125	
33	0.132	0.0	0.0	0.0	0.0	0.003	0.006	0.006	0.003	9.851541281127929	0.21009119567871093	0.03531447448730469	2.422332763671875	-3.77655029296875	-0.69427490234375	9.776722479248047	0.26276363220214843	0.15682020874023436	0.766754150390625	-5.100250244140625	-3.177642822265625	9.964667309570311	0.49260699157714843	-0.19991583862304688	2.64739990234375	-4.52423095703125	-1.57928466796875	
34	0.136	0.0	0.0	0.0	0.0	0.003	0.003	0.006	0.006	9.854534033203125	0.2154781494140625	0.03172317199707031	2.3651123046875	-3.589630126953125	-0.766754150390625	9.782109432983399	0.2603694305419922	0.1640028137207031	0.377655029296875	-4.66156005859375	-3.2196044921875	9.976039767456054	0.4896142395019531	-0.20530279235839843	2.620697021484375	-4.802703857421875	-1.682281494140625	
35	0.14	0.0	0.0	0.0	0.0	0.0	0.003	0.003	0.006	9.858723886108399	0.21607669982910155	0.022744915771484374	2.346038818359375	-4.730224609375	-0.804901123046875	9.787496386718749	0.2555810272216797	0.15741875915527342	0.61798095703125	-5.214691162109375	-3.360748291015625	9.986215124511718	0.49200844116210934	-0.19871873779296872	2.54058837890625	-4.619598388671875	-1.6937255859375	
36	0.14400000000000002	0.0	0.0	0.0	0.0	0.003	0.006	0.003	0.006	9.864709390258788	0.23523031311035156	0.018555062866210937	2.597808837890625	-3.704071044921875	-0.743865966796875	9.787496386718749	0.277727392578125	0.16519991455078123	0.5950927734375	-5.123138427734375	-3.139495849609375	9.975441217041014	0.5063736511230469	-0.1849520782470703	2.54058837890625	-4.66156005859375	-1.861572265625	
37	0.148	0.0	0.0	0.0	0.0	0.003	0.006	0.003	0.003	9.871891995239258	0.23882161560058593	0.02633621826171875	2.422332763671875	-3.814697265625	-0.644683837890625	9.78629928588867	0.2759317413330078	0.15382745666503905	0.32806396484375	-5.092620849609375	-3.0670166015625	9.97783541870117	0.5165490081787109	-0.1897404815673828	2.6092529296875	-4.3792724609375	-1.583099365234375	
38	0.152	0.0	0.0	0.0	0.0	0.006	0.003	0.006	0.006	9.868899243164062	0.2316390106201172	0.011971008300781249	2.590179443359375	-3.97491455078125	-0.850677490234375	9.788693487548828	0.26815058593749996	0.1484405029296875	0.431060791015625	-5.07354736328125	-3.139495849609375	9.982623822021484	0.5159504577636719	-0.1945288848876953	2.78472900390625	-4.5928955078125	-1.71661376953125	
39	0.156	0.0	0.0	0.0	0.0	0.006	0.006	0.006	0.006	9.840767373657226	0.21966800231933592	0.023343466186523436	2.696990966796875	-3.91387939453125	-0.7476806640625	9.780912332153319	0.2663549346923828	0.1580173095703125	0.591278076171875	-5.08880615234375	-3.101348876953125	9.979631069946288	0.5057751007080078	-0.1867477294921875	2.613067626953125	-4.573822021484375	-1.834869384765625	
40	0.16	0.0	0.0	0.0	0.0	0.006	0.003	0.006	0.006	9.843161575317382	0.23523031311035156	0.037110125732421874	2.635955810546875	-3.65447998046875	-0.858306884765625	9.778518130493163	0.2759317413330078	0.1592144104003906	0.568389892578125	-4.8675537109375	-3.223419189453125	9.97783541870117	0.5099649536132812	-0.19153613281249998	2.76947021484375	-4.756927490234375	-1.70135498046875	
41	0.164	0.0	0.0	0.0	0.0	0.003	0.006	0.006	0.003	9.837176071166992	0.24301146850585936	0.0383072265625	2.414703369140625	-3.7078857421875	-0.75531005859375	9.771934075927733	0.2962824554443359	0.15741875915527342	0.591278076171875	-5.05828857421875	-3.082275390625	9.95987890625	0.5207388610839844	-0.19812018737792966	2.74658203125	-4.78363037109375	-1.77001953125	
42	0.168	0.0	0.0	0.0	0.0	0.006	0.003	0.003	0.006	9.859322436523437	0.2232593048095703	0.040102877807617184	2.67791748046875	-3.54766845703125	-0.9002685546875	9.78629928588867	0.2705447875976562	0.15322890625	0.48065185546875	-4.756927490234375	-3.08990478515625	9.97783541870117	0.5039794494628906	-0.21248539733886718	2.685546875	-4.573822021484375	-1.91497802734375	
43	0.17200000000000001	0.0	0.0	0.0	0.0	0.006	0.006	0.006	0.003	9.861716638183593	0.21607669982910155	0.03411737365722656	2.880096435546875	-3.513336181640625	-0.9613037109375	9.78629928588867	0.26216508178710934	0.15502455749511718	0.90789794921875	-5.08880615234375	-3.2501220703125	9.983820922851562	0.5015852478027344	-0.2088940948486328	2.58636474609375	-4.61578369140625	-1.6632080078125	
44	0.176	0.0	0.0	0.0	0.0	0.003	0.006	0.006	0.003	9.865307940673828	0.21906945190429686	0.051475335693359374	2.506256103515625	-3.765106201171875	-0.8087158203125	9.785102185058593	0.26815058593749996	0.15741875915527342	0.377655029296875	-4.8065185546875	-3.11279296875	9.986813674926758	0.49799394531249996	-0.19931728820800781	2.712249755859375	-4.57000732421875	-1.8463134765625	
45	0.18	0.0	0.0	0.0	0.0	0.003	0.006	0.003	0.003	9.86291373901367	0.21009119567871093	0.05566518859863281	2.445220947265625	-3.757476806640625	-0.9307861328125	9.777919580078125	0.24839842224121092	0.15682020874023436	0.438690185546875	-5.06591796875	-3.21197509765625	9.976638317871092	0.48183308410644526	-0.2041056915283203	2.605438232421875	-4.66156005859375	-1.70135498046875	
46	0.184	0.0	0.0	0.0	0.0	0.003	0.003	0.003	0.006	9.855731134033203	0.19213468322753904	0.062249243164062495	2.32696533203125	-3.692626953125	-0.484466552734375	9.785102185058593	0.2424129180908203	0.1592144104003906	0.675201416015625	-5.214691162109375	-3.353118896484375	9.98501802368164	0.4626794708251953	-0.21787235107421873	2.819061279296875	-4.486083984375	-1.827239990234375	
47	0.188	0.0	0.0	0.0	0.0	0.006	0.003	0.006	0.0	9.858125335693359	0.17956512451171874	0.052073886108398436	2.300262451171875	-3.5552978515625	-0.5645751953125	9.781510882568359	0.2184709014892578	0.16041151123046873	0.42724609375	-5.0048828125	-3.002166748046875	9.97783541870117	0.4531026641845703	-0.20051438903808594	2.655029296875	-4.7760009765625	-1.86920166015625	
48	0.192	0.0	0.0	0.0	0.0	0.006	0.003	0.003	0.003	9.852738381958007	0.1406593475341797	0.05985504150390625	2.490997314453125	-3.7078857421875	-0.7781982421875	9.781510882568359	0.1867477294921875	0.17477672119140625	0.415802001953125	-5.016326904296875	-3.238677978515625	9.97783541870117	0.4171896392822265	-0.1867477294921875	2.849578857421875	-4.688262939453125	-1.819610595703125	
49	0.196	0.0	0.0	0.0	0.0	0.006	0.006	0.006	0.003	9.860519537353515	0.1197100830078125	0.076614453125	2.559661865234375	-3.96728515625	-0.7171630859375	9.78629928588867	0.15861585998535155	0.1897404815673828	0.713348388671875	-4.817962646484375	-3.383636474609375	9.981426721191406	0.39743747558593745	-0.17896657409667968	2.750396728515625	-4.73785400390625	-1.758575439453125	
50	0.2	0.0	0.0	0.0	0.0	0.003	0.003	0.006	0.009000000000000001	9.85094273071289	0.10295067138671875	0.0796072052001953	2.613067626953125	-3.97491455078125	-0.705718994140625	9.785102185058593	0.13347674255371092	0.2041056915283203	0.667572021484375	-5.06591796875	-3.055572509765625	9.976638317871092	0.37768531188964843	-0.1562216583251953	2.567291259765625	-4.73785400390625	-1.922607421875	
51	0.20400000000000001	0.0	0.0	0.0	0.0	0.009000000000000001	0.003	0.003	0.003	9.858125335693359	0.08140285644531249	0.08319850769042968	2.69317626953125	-3.9825439453125	-0.804901123046875	9.782707983398437	0.12030863342285156	0.2166752502441406	0.431060791015625	-5.130767822265625	-3.27301025390625	9.970652813720703	0.3585316986083984	-0.14185644836425781	2.704620361328125	-4.756927490234375	-1.773834228515625	
52	0.20800000000000002	0.0	0.0	0.0	0.0	0.003	0.006	0.003	0.003	9.861716638183593	0.059256491088867186	0.08858546142578125	2.41851806640625	-3.57818603515625	-0.86212158203125	9.787496386718749	0.09636661682128905	0.21308394775390624	0.67901611328125	-4.810333251953125	-3.10516357421875	9.980828170776366	0.3393780853271484	-0.1322796417236328	2.521514892578125	-4.695892333984375	-1.77001953125	
53	0.212	0.0	0.0	0.0	0.0	0.003	0.006	0.006	0.003	9.866505041503906	0.04369418029785156	0.076614453125	2.437591552734375	-4.00543212890625	-0.949859619140625	9.787496386718749	0.08080430603027343	0.20530279235839843	0.766754150390625	-5.092620849609375	-3.147125244140625	9.996390481567381	0.32082302246093747	-0.13766659545898435	2.674102783203125	-4.78363037109375	-1.80816650390625	
54	0.216	0.0	0.0	0.0	0.0	0.006	0.006	0.006	0.006	9.867702142333984	0.03890577697753906	0.08798691101074219	2.5177001953125	-3.650665283203125	-0.850677490234375	9.788693487548828	0.07781155395507812	0.22565350646972654	0.48828125	-4.856109619140625	-3.253936767578125	9.989207876586914	0.3094505645751953	-0.13168109130859373	2.70843505859375	-4.8828125	-1.7547607421875	
55	0.22	0.0	0.0	0.0	0.0	0.006	0.006	0.006	0.006	9.86291373901367	0.03651157531738281	0.10354922180175781	2.49481201171875	-3.749847412109375	-0.957489013671875	9.787496386718749	0.07900865478515624	0.21727380065917967	0.614166259765625	-5.22613525390625	-3.16619873046875	9.982623822021484	0.30705636291503907	-0.12389993591308593	2.681732177734375	-4.665374755859375	-1.827239990234375	
56	0.224	0.0	0.0	0.0	0.0	0.003	0.003	0.003	0.003	9.867702142333984	0.025139117431640625	0.08140285644531249	2.7923583984375	-3.658294677734375	-0.79345703125	9.785102185058593	0.05805939025878906	0.21068974609375	0.659942626953125	-4.878997802734375	-3.18145751953125	9.99220062866211	0.3094505645751953	-0.13168109130859373	2.635955810546875	-4.703521728515625	-1.667022705078125	
57	0.228	0.0	0.0	0.0	0.0	0.006	0.006	0.006	0.006	9.867702142333984	0.014963760375976562	0.08020575561523437	2.468109130859375	-3.681182861328125	-0.583648681640625	9.785102185058593	0.05805939025878906	0.19871873779296872	0.904083251953125	-4.970550537109375	-3.2196044921875	9.98501802368164	0.296881005859375	-0.14245499877929688	2.78472900390625	-4.57763671875	-1.556396484375	
58	0.232	0.0	0.0	0.0	0.0	0.003	0.003	0.003	0.006	9.853935482788085	0.02454056701660156	0.076614453125	2.716064453125	-3.8299560546875	-0.812530517578125	9.78629928588867	0.06344634399414062	0.19632453613281248	0.682830810546875	-4.9896240234375	-3.16619873046875	9.980229620361328	0.30705636291503907	-0.15382745666503905	2.99072265625	-4.85992431640625	-2.00653076171875	
59	0.23600000000000002	0.0	0.0	0.0	0.0	0.006	0.006	0.003	0.003	9.85094273071289	0.030526071166992186	0.06763619689941405	2.490997314453125	-3.726959228515625	-1.102447509765625	9.787496386718749	0.07422025146484375	0.18614917907714842	0.63323974609375	-4.711151123046875	-3.101348876953125	9.986215124511718	0.31064766540527344	-0.1640028137207031	2.880096435546875	-4.535675048828125	-1.47247314453125	
60	0.24	0.0	0.0	0.0	0.0	0.003	0.006	0.006	0.006	9.8449572265625	0.04189852905273437	0.06464344482421874	2.666473388671875	-3.90625	-0.946044921875	9.785102185058593	0.09217676391601562	0.18734627990722655	0.6103515625	-4.8980712890625	-3.284454345703125	9.977236868286132	0.32022447204589843	-0.17477672119140625	2.582550048828125	-4.619598388671875	-1.979827880859375	
61	0.244	0.0	0.0	0.0	0.0	0.003	0.006	0.006	0.003	9.842563024902343	0.06943184814453125	0.0652419952392578	2.4566650390625	-3.48663330078125	-0.644683837890625	9.785102185058593	0.10594342346191406	0.17178396911621094	0.69427490234375	-5.1727294921875	-3.28826904296875	9.97903251953125	0.3429693878173828	-0.1975216369628906	2.4871826171875	-4.619598388671875	-1.667022705078125	
62	0.248	0.0	0.0	0.0	0.0	0.009000000000000001	0.003	0.003	0.003	9.849745629882811	0.07362170104980469	0.06404489440917968	2.727508544921875	-3.509521484375	-0.705718994140625	9.78629928588867	0.11731588134765625	0.16160861206054686	0.637054443359375	-5.1422119140625	-3.3111572265625	9.991003527832031	0.35015199279785153	-0.18734627990722655	2.696990966796875	-4.520416259765625	-1.758575439453125	
63	0.252	0.0	0.0	0.0	0.0	0.003	0.006	0.003	0.006	9.854534033203125	0.086191259765625	0.06584054565429687	2.536773681640625	-3.772735595703125	-0.682830810546875	9.787496386718749	0.12509703674316405	0.16519991455078123	0.7476806640625	-5.168914794921875	-3.147125244140625	9.993397729492187	0.3633201019287109	-0.20709844360351562	2.719879150390625	-4.67681884765625	-1.712799072265625	
64	0.256	0.0	0.0	0.0	0.0	0.003	0.006	0.006	0.006	9.850344180297851	0.11252747802734374	0.05746083984375	2.483367919921875	-3.5858154296875	-0.90789794921875	9.785102185058593	0.14544775085449219	0.16759411621093748	0.66375732421875	-4.99725341796875	-3.124237060546875	9.989806427001952	0.3860650177001953	-0.20649989318847656	2.6092529296875	-4.92095947265625	-1.743316650390625	
65	0.26	0.0	0.0	0.0	0.0	0.012	0.006	0.003	0.003	9.86291373901367	0.12689268798828124	0.05686228942871093	2.5177001953125	-3.696441650390625	-0.87738037109375	9.795876092529296	0.17357962036132812	0.16340426330566404	0.492095947265625	-5.023956298828125	-3.269195556640625	9.987412225341796	0.41060558471679687	-0.20949264526367187	2.605438232421875	-4.840850830078125	-1.85394287109375	
66	0.264	0.0	0.0	0.0	0.0	0.003	0.006	0.006	0.003	9.859920986938477	0.13826514587402344	0.05027823486328125	2.4261474609375	-3.498077392578125	-0.8087158203125	9.784503634643555	0.18315642700195311	0.15263035583496093	0.858306884765625	-5.19561767578125	-3.326416015625	9.986215124511718	0.41958384094238277	-0.20051438903808594	2.490997314453125	-4.673004150390625	-1.88446044921875	
67	0.268	0.0	0.0	0.0	0.0	0.003	0.003	0.003	0.003	9.855132583618163	0.1610100616455078	0.04668693237304687	2.285003662109375	-3.719329833984375	-0.827789306640625	9.783905084228515	0.20470424194335937	0.15682020874023436	0.54168701171875	-4.95147705078125	-3.16619873046875	9.970054263305663	0.4423287567138672	-0.1945288848876953	2.574920654296875	-4.543304443359375	-1.567840576171875	
68	0.272	0.0	0.0	0.0	0.0	0.003	0.003	0.003	0.006	9.849745629882811	0.1753752716064453	0.03890577697753906	2.44903564453125	-3.635406494140625	-0.91552734375	9.78689783630371	0.229843359375	0.16280571289062498	0.797271728515625	-5.45501708984375	-3.28826904296875	9.982025271606444	0.4656722229003906	-0.19153613281249998	2.61688232421875	-4.627227783203125	-1.89208984375	
69	0.276	0.0	0.0	0.0	0.0	0.003	0.003	0.006	0.006	9.868899243164062	0.19512743530273435	0.03591302490234375	2.368927001953125	-3.814697265625	-0.873565673828125	9.784503634643555	0.24301146850585936	0.15382745666503905	0.614166259765625	-5.062103271484375	-3.31878662109375	9.97843396911621	0.48243163452148435	-0.17357962036132812	2.6397705078125	-4.848480224609375	-1.842498779296875	
70	0.28	0.0	0.0	0.0	0.0	0.006	0.006	0.006	0.006	9.873089096069336	0.21308394775390624	0.032920272827148434	2.513885498046875	-3.814697265625	-0.69427490234375	9.785102185058593	0.2567781280517578	0.16460136413574217	0.415802001953125	-5.001068115234375	-3.35693359375	9.975441217041014	0.49739539489746093	-0.17657237243652343	2.414703369140625	-4.756927490234375	-1.804351806640625	
71	0.28400000000000003	0.0	0.0	0.0	0.0	0.006	0.006	0.006	0.006	9.859920986938477	0.2154781494140625	0.03531447448730469	2.605438232421875	-3.7689208984375	-0.789642333984375	9.782707983398437	0.27892449340820313	0.17058686828613281	0.5645751953125	-4.90570068359375	-3.170013427734375	9.970652813720703	0.5093664031982421	-0.16879121704101563	2.532958984375	-4.688262939453125	-1.8157958984375	
72	0.28800000000000003	0.0	0.0	0.0	0.0	0.003	0.003	0.003	0.003	9.8449572265625	0.23882161560058593	0.034715924072265626	2.6092529296875	-3.910064697265625	-0.972747802734375	9.77432827758789	0.2855085479736328	0.1753752716064453	0.75531005859375	-5.153656005859375	-3.31878662109375	9.976638317871092	0.526125814819336	-0.17417817077636719	2.918243408203125	-4.558563232421875	-1.77001953125	
73	0.292	0.0	0.0	0.0	0.0	0.003	0.003	0.003	0.003	9.852738381958007	0.2609679809570312	0.03531447448730469	2.574920654296875	-3.7078857421875	-0.78582763671875	9.781510882568359	0.3010708587646484	0.16879121704101563	0.797271728515625	-5.092620849609375	-3.124237060546875	9.969455712890625	0.5404910247802734	-0.17298106994628906	2.727508544921875	-4.913330078125	-1.9683837890625	
74	0.296	0.0	0.0	0.0	0.0	0.003	0.006	0.006	0.006	9.86291373901367	0.26815058593749996	0.037110125732421874	2.574920654296875	-3.757476806640625	-0.74005126953125	9.781510882568359	0.3130418670654297	0.17657237243652343	0.537872314453125	-4.886627197265625	-3.131866455078125	9.975441217041014	0.5536591339111328	-0.1867477294921875	2.490997314453125	-4.634857177734375	-1.8463134765625	
75	0.3	0.0	0.0	0.0	0.0	0.003	0.003	0.003	0.003	9.855132583618163	0.2825157958984375	0.0526724365234375	2.70843505859375	-3.765106201171875	-0.7476806640625	9.785102185058593	0.3190273712158203	0.1592144104003906	0.629425048828125	-5.031585693359375	-3.192901611328125	9.980229620361328	0.5632359405517577	-0.1879448303222656	2.727508544921875	-4.550933837890625	-1.911163330078125	
76	0.304	0.0	0.0	0.0	0.0	0.006	0.003	0.003	0.006	9.852139831542969	0.2885013000488281	0.04548983154296875	2.788543701171875	-3.59344482421875	-0.965118408203125	9.785102185058593	0.32022447204589843	0.1801636749267578	0.530242919921875	-5.046844482421875	-3.147125244140625	9.980828170776366	0.5644330413818359	-0.19213468322753904	2.86102294921875	-4.695892333984375	-1.766204833984375	
77	0.308	0.0	0.0	0.0	0.0	0.003	0.003	0.003	0.0	9.854534033203125	0.2813186950683594	0.054468087768554684	2.506256103515625	-3.7689208984375	-0.84686279296875	9.777321029663085	0.32920272827148434	0.1753752716064453	0.514984130859375	-4.985809326171875	-3.07464599609375	9.970652813720703	0.5620388397216797	-0.1927332336425781	2.384185791015625	-4.550933837890625	-1.76239013671875	
78	0.312	0.0	0.0	0.0	0.0	0.003	0.003	0.003	0.003	9.85692823486328	0.2861070983886719	0.05327098693847656	2.51007080078125	-4.001617431640625	-0.5950927734375	9.780912332153319	0.32561142578124996	0.1657984649658203	0.629425048828125	-5.31768798828125	-3.421783447265625	9.974244116210937	0.5602431884765625	-0.1897404815673828	2.841949462890625	-4.75311279296875	-2.033233642578125	
79	0.316	0.0	0.0	0.0	0.0	0.003	0.003	0.006	0.006	9.852139831542969	0.2813186950683594	0.052073886108398436	2.529144287109375	-3.83758544921875	-0.873565673828125	9.783306533813477	0.31962592163085934	0.16699556579589842	0.6561279296875	-4.67681884765625	-3.16619873046875	9.97244846496582	0.5608417388916015	-0.1879448303222656	2.590179443359375	-4.772186279296875	-1.628875732421875	
80	0.32	0.0	0.0	0.0	0.0	0.006	0.006	0.003	0.0	9.854534033203125	0.2711433380126953	0.06045359191894531	2.349853515625	-3.6773681640625	-0.774383544921875	9.784503634643555	0.30047230834960936	0.18076222534179687	0.614166259765625	-5.062103271484375	-3.204345703125	9.970054263305663	0.5351040710449219	-0.17836802368164062	2.4566650390625	-4.5318603515625	-1.651763916015625	
81	0.324	0.0	0.0	0.0	0.0	0.006	0.006	0.006	0.003	9.849745629882811	0.24361001892089842	0.0652419952392578	2.40325927734375	-3.73077392578125	-0.885009765625	9.782109432983399	0.28311434631347654	0.18614917907714842	0.507354736328125	-5.035400390625	-3.101348876953125	9.974244116210937	0.51714755859375	-0.17776947326660156	2.74658203125	-4.558563232421875	-1.911163330078125	
82	0.328	0.0	0.0	0.0	0.0	0.003	0.006	0.006	0.006	9.853336932373047	0.22505495605468748	0.07721300354003906	2.613067626953125	-3.5552978515625	-0.782012939453125	9.778518130493163	0.2699462371826172	0.17776947326660156	0.476837158203125	-4.96673583984375	-2.994537353515625	9.97244846496582	0.5015852478027344	-0.1801636749267578	2.75421142578125	-4.95147705078125	-1.689910888671875	
83	0.332	0.0	0.0	0.0	0.0	0.003	0.006	0.006	0.003	9.854534033203125	0.20709844360351562	0.07422025146484375	2.44903564453125	-3.719329833984375	-0.865936279296875	9.779715231323241	0.25797522888183594	0.19333178405761717	0.58746337890625	-5.107879638671875	-3.13568115234375	9.974842666625976	0.4830301849365234	-0.16340426330566404	2.590179443359375	-4.64630126953125	-1.605987548828125	
84	0.336	0.0	0.0	0.0	0.0	0.006	0.006	0.006	0.006	9.858723886108399	0.1927332336425781	0.06584054565429687	2.193450927734375	-3.917694091796875	-0.904083251953125	9.78629928588867	0.2292448089599609	0.20530279235839843	0.568389892578125	-5.1116943359375	-3.3416748046875	9.973645565795898	0.46208092041015625	-0.1592144104003906	2.7008056640625	-4.8065185546875	-1.77001953125	
85	0.34	0.0	0.0	0.0	0.0	0.003	0.003	0.006	0.006	9.859322436523437	0.16639701538085935	0.07422025146484375	2.315521240234375	-3.520965576171875	-0.965118408203125	9.785700735473633	0.19033903198242186	0.20171148986816406	0.293731689453125	-4.848480224609375	-3.131866455078125	9.983820922851562	0.43634325256347656	-0.1562216583251953	2.63214111328125	-4.57763671875	-1.636505126953125	
86	0.34400000000000003	0.0	0.0	0.0	0.0	0.006	0.003	0.006	0.006	9.852738381958007	0.14125789794921875	0.08439560852050781	2.349853515625	-3.7689208984375	-0.774383544921875	9.78629928588867	0.16160861206054686	0.20649989318847656	0.57220458984375	-4.94384765625	-3.07464599609375	9.98501802368164	0.40282442932128903	-0.13646949462890623	2.7313232421875	-4.90570068359375	-1.857757568359375	
87	0.34800000000000003	0.0	0.0	0.0	0.0	0.006	0.003	0.006	0.006	9.858125335693359	0.11252747802734374	0.07481880187988281	2.52532958984375	-3.932952880859375	-0.93841552734375	9.785102185058593	0.14544775085449219	0.20350714111328125	0.690460205078125	-5.062103271484375	-3.223419189453125	9.981426721191406	0.3848679168701172	-0.13168109130859373	2.5482177734375	-4.642486572265625	-1.74713134765625	
88	0.352	0.0	0.0	0.0	0.0	0.003	0.006	0.006	0.003	9.860519537353515	0.09217676391601562	0.07422025146484375	2.475738525390625	-3.5400390625	-0.89263916015625	9.782707983398437	0.12509703674316405	0.20171148986816406	0.37384033203125	-4.82940673828125	-3.2806396484375	9.982025271606444	0.36571430358886714	-0.13108254089355467	2.7923583984375	-4.638671875	-1.45721435546875	
89	0.356	0.0	0.0	0.0	0.0	0.006	0.006	0.003	0.003	9.85692823486328	0.06045359191894531	0.0718260498046875	2.55584716796875	-3.803253173828125	-0.885009765625	9.788094937133788	0.11372457885742186	0.19093758239746092	0.667572021484375	-4.852294921875	-3.0670166015625	9.976039767456054	0.3459621398925781	-0.13287819213867186	2.811431884765625	-4.82177734375	-1.956939697265625	
90	0.36	0.0	0.0	0.0	0.0	0.003	0.006	0.006	0.003	9.85692823486328	0.04608838195800781	0.07122749938964844	2.6397705078125	-4.001617431640625	-0.873565673828125	9.784503634643555	0.08798691101074219	0.1975216369628906	0.667572021484375	-4.9285888671875	-3.1585693359375	9.986215124511718	0.3190273712158203	-0.14784195251464843	2.620697021484375	-4.7760009765625	-1.712799072265625	
91	0.364	0.0	0.0	0.0	0.0	0.003	0.003	0.003	0.006	9.85094273071289	0.037110125732421874	0.07122749938964844	2.78472900390625	-3.910064697265625	-0.675201416015625	9.783905084228515	0.06943184814453125	0.19512743530273435	0.52642822265625	-5.0811767578125	-3.231048583984375	9.973047015380859	0.30406361083984373	-0.1562216583251953	2.758026123046875	-4.665374755859375	-1.743316650390625	
92	0.368	0.0	0.0	0.0	0.0	0.006	0.006	0.006	0.006	9.85752678527832	0.02633621826171875	0.06584054565429687	2.64739990234375	-3.597259521484375	-0.89263916015625	9.791087689208984	0.06823474731445311	0.18854338073730467	0.823974609375	-5.0201416015625	-3.1280517578125	9.988609326171874	0.297479556274414	-0.16220716247558592	2.727508544921875	-4.833221435546875	-1.781463623046875	
93	0.372	0.0	0.0	0.0	0.0	0.006	0.003	0.003	0.0	9.852139831542969	0.023942016601562498	0.05985504150390625	2.605438232421875	-3.89862060546875	-0.83160400390625	9.788693487548828	0.0718260498046875	0.17597382202148437	0.5035400390625	-4.82177734375	-3.200531005859375	9.983222372436522	0.2962824554443359	-0.17657237243652343	2.719879150390625	-4.64630126953125	-1.880645751953125	
94	0.376	0.0	0.0	0.0	0.0	0.003	0.003	0.003	0.003	9.8694977935791	0.013766659545898436	0.04967968444824218	2.483367919921875	-3.520965576171875	-0.850677490234375	9.791087689208984	0.06105214233398437	0.15981296081542967	0.591278076171875	-4.89044189453125	-3.33404541015625	9.97783541870117	0.29089550170898437	-0.1879448303222656	2.689361572265625	-4.57763671875	-1.659393310546875	
95	0.38	0.0	0.0	0.0	0.0	0.003	0.006	0.003	0.003	9.86411083984375	0.013168109130859374	0.059256491088867186	2.40325927734375	-3.7994384765625	-0.873565673828125	9.789890588378906	0.05686228942871093	0.15741875915527342	0.576019287109375	-5.10406494140625	-3.143310546875	9.976039767456054	0.29448680419921874	-0.19931728820800781	2.67791748046875	-4.901885986328125	-1.789093017578125	
96	0.384	0.0	0.0	0.0	0.0	0.006	0.003	0.006	0.006	9.87009634399414	0.023343466186523436	0.055066638183593745	2.52532958984375	-3.85284423828125	-0.766754150390625	9.788693487548828	0.061650692749023434	0.14963760375976562	0.6866455078125	-5.096435546875	-3.223419189453125	9.981426721191406	0.30526071166992186	-0.21009119567871093	2.66265869140625	-4.5623779296875	-1.64031982421875	
97	0.388	0.0	0.0	0.0	0.0	0.003	0.006	0.003	0.006	9.868899243164062	0.01975216369628906	0.04369418029785156	2.41851806640625	-3.84521484375	-0.8697509765625	9.788693487548828	0.07302315063476562	0.14544775085449219	0.667572021484375	-4.9285888671875	-3.360748291015625	9.984419473266602	0.30885201416015623	-0.20769699401855468	2.70843505859375	-4.688262939453125	-1.834869384765625	
98	0.392	0.0	0.0	0.0	0.0	0.003	0.003	0.003	0.003	9.861716638183593	0.03411737365722656	0.0430956298828125	2.46429443359375	-3.8299560546875	-0.652313232421875	9.79348189086914	0.08200140686035155	0.14903905334472656	0.766754150390625	-5.222320556640625	-3.11279296875	9.97903251953125	0.3058592620849609	-0.22026655273437498	2.582550048828125	-4.41741943359375	-1.77764892578125	
99	0.396	0.0	0.0	0.0	0.0	0.003	0.003	0.006	0.003	9.871293444824218	0.04548983154296875	0.037110125732421874	2.40325927734375	-3.86810302734375	-0.949859619140625	9.782109432983399	0.09277531433105468	0.14006079711914063	0.244140625	-4.962921142578125	-3.124237060546875	9.987412225341796	0.3232172241210937	-0.2184709014892578	2.5177001953125	-4.421234130859375	-1.7242431640625	
100	0.4	0.0	0.0	0.0	0.0	0.003	0.006	0.003	0.006	9.854534033203125	0.061650692749023434	0.01915361328125	2.315521240234375	-3.7384033203125	-0.96893310546875	9.783905084228515	0.09756371765136718	0.14185644836425781	0.60272216796875	-5.084991455078125	-3.1890869140625	9.987412225341796	0.33578678283691404	-0.20949264526367187	2.55584716796875	-4.688262939453125	-1.842498779296875	
101	0.404	0.0	0.0	0.0	0.0	0.003	0.003	0.006	0.006	9.858125335693359	0.06823474731445311	0.029328970336914062	2.61688232421875	-3.82232666015625	-0.789642333984375	9.78629928588867	0.11552023010253906	0.15083470458984374	0.774383544921875	-5.039215087890625	-3.223419189453125	9.987412225341796	0.3447650390625	-0.2059013427734375	2.78472900390625	-4.573822021484375	-1.705169677734375	
102	0.40800000000000003	0.0	0.0	0.0	0.0	0.006	0.006	0.006	0.003	9.855132583618163	0.08918401184082031	0.025139117431640625	2.597808837890625	-3.734588623046875	-0.652313232421875	9.785102185058593	0.13766659545898435	0.15382745666503905	0.48828125	-4.75311279296875	-3.34930419921875	9.988609326171874	0.36272155151367186	-0.20470424194335937	2.7313232421875	-4.6539306640625	-1.68609619140625	
103	0.41200000000000003	0.0	0.0	0.0	0.0	0.003	0.006	0.003	0.003	9.86351228942871	0.11791443176269531	0.03172317199707031	2.51007080078125	-3.85284423828125	-0.957489013671875	9.783905084228515	0.15981296081542967	0.15322890625	0.79345703125	-5.107879638671875	-3.314971923828125	9.97783541870117	0.3938461730957031	-0.19033903198242186	2.750396728515625	-4.78363037109375	-1.804351806640625	
104	0.41600000000000004	0.0	0.0	0.0	0.0	0.003	0.003	0.006	0.003	9.859920986938477	0.12509703674316405	0.037110125732421874	2.750396728515625	-3.7994384765625	-0.84686279296875	9.785102185058593	0.17058686828613281	0.15203180541992187	0.49591064453125	-4.932403564453125	-3.0975341796875	9.986215124511718	0.40761283264160153	-0.1801636749267578	2.651214599609375	-4.47845458984375	-1.77001953125	
105	0.42	0.0	0.0	0.0	0.0	0.003	0.006	0.003	0.003	9.858125335693359	0.10953472595214843	0.016759411621093748	2.54058837890625	-3.63922119140625	-0.980377197265625	9.782707983398437	0.17357962036132812	0.15203180541992187	0.67901611328125	-4.711151123046875	-3.23486328125	9.97184991455078	0.39324762268066404	-0.17597382202148437	2.60162353515625	-4.76837158203125	-1.789093017578125	
106	0.424	0.0	0.0	0.0	0.0	0.003	0.003	0.003	0.003	9.858125335693359	0.18375497741699218	0.025139117431640625	2.597808837890625	-3.89862060546875	-0.77056884765625	9.787496386718749	0.2609679809570312	0.15861585998535155	0.675201416015625	-5.22613525390625	-3.231048583984375	10.020332498168944	0.48662148742675776	-0.21727380065917967	2.70843505859375	-4.764556884765625	-1.697540283203125	
107	0.428	0.0	0.0	0.0	0.0	0.003	0.006	0.006	0.006	9.828197814941406	0.21487959899902342	0.0909796630859375	2.52532958984375	-3.662109375	-0.988006591796875	9.752181912231444	0.25438392639160157	0.20769699401855468	0.457763671875	-4.8828125	-3.238677978515625	9.982623822021484	0.5135562561035156	-0.18435352783203124	2.78472900390625	-4.76837158203125	-1.674652099609375	
108	0.432	0.0	0.0	0.0	0.0	0.006	0.003	0.003	0.003	9.840168823242188	0.17956512451171874	0.028730419921875	2.5482177734375	-3.810882568359375	-0.98419189453125	9.794678991699218	0.24361001892089842	0.14784195251464843	0.698089599609375	-4.810333251953125	-3.154754638671875	10.014945544433592	0.4674678741455078	-0.21487959899902342	2.506256103515625	-4.7149658203125	-1.89208984375	
109	0.436	0.0	0.0	0.0	0.0	0.003	0.006	0.006	0.003	9.82580361328125	0.2861070983886719	0.12150573425292968	2.567291259765625	-3.82232666015625	-0.667572021484375	9.753977563476562	0.33518823242187495	0.229843359375	0.5645751953125	-4.81414794921875	-3.27301025390625	9.976638317871092	0.6039373687744141	-0.19213468322753904	2.735137939453125	-4.528045654296875	-1.735687255859375	
110	0.44	0.0	0.0	0.0	0.0	0.003	0.003	0.006	0.006	9.84435867614746	0.21009119567871093	0.08140285644531249	2.38800048828125	-3.528594970703125	-0.9307861328125	9.810839852905273	0.2292448089599609	0.14724340209960937	0.762939453125	-5.290985107421875	-3.30352783203125	10.01733974609375	0.45489831542968745	-0.2555810272216797	2.590179443359375	-4.413604736328125	-1.697540283203125	
111	0.444	0.0	0.0	0.0	0.0	0.006	0.003	0.006	0.003	9.802460147094726	0.3298012786865234	0.15023615417480468	2.75421142578125	-4.016876220703125	-0.621795654296875	9.745597857666015	0.3872621185302734	0.25438392639160157	0.446319580078125	-5.237579345703125	-3.246307373046875	9.976638317871092	0.6404489440917969	-0.17238251953125	2.529144287109375	-4.894256591796875	-1.926422119140625	
112	0.448	0.0	0.0	0.0	0.0	0.003	0.003	0.003	0.003	9.858125335693359	0.24959552307128904	0.0939724151611328	2.040863037109375	-3.73077392578125	-0.759124755859375	9.815029705810547	0.2663549346923828	0.12868833923339842	0.69427490234375	-5.06591796875	-3.337860107421875	10.043675964355469	0.4746504791259765	-0.2765302917480469	2.849578857421875	-4.657745361328125	-1.796722412109375	
113	0.452	0.0	0.0	0.0	0.0	0.003	0.006	0.006	0.009000000000000001	9.788693487548828	0.3525461944580078	0.17058686828613281	2.605438232421875	-3.696441650390625	-0.6256103515625	9.765948571777344	0.4333505004882812	0.19812018737792966	0.469207763671875	-4.673004150390625	-3.185272216796875	9.958681805419921	0.6673837127685547	-0.16160861206054686	2.75421142578125	-4.67681884765625	-1.8463134765625	
114	0.456	0.0	0.0	0.0	0.0	0.006	0.003	0.006	0.003	9.847949978637695	0.2507926239013672	0.12210428466796874	2.277374267578125	-3.34930419921875	-0.835418701171875	9.83897172241211	0.24839842224121092	0.13587094421386717	0.67901611328125	-5.01251220703125	-3.528594970703125	10.043077413940429	0.4644751220703125	-0.2861070983886719	2.780914306640625	-4.64630126953125	-1.918792724609375	
115	0.46	0.0	0.0	0.0	0.0	0.006	0.006	0.003	0.006	9.853935482788085	0.3950432739257812	0.058657940673828124	2.64739990234375	-4.1656494140625	-0.873565673828125	9.752780462646484	0.4590881683349609	0.24660277099609373	0.751495361328125	-4.985809326171875	-3.10516357421875	9.916184725952148	0.7026981872558593	-0.15083470458984374	2.475738525390625	-4.5928955078125	-1.789093017578125	
116	0.464	0.0	0.0	0.0	0.0	0.006	0.003	0.006	0.006	9.867702142333984	0.2346317626953125	0.14604630126953125	2.26593017578125	-3.551483154296875	-0.682830810546875	9.851541281127929	0.21607669982910155	0.13347674255371092	0.43487548828125	-5.207061767578125	-3.307342529296875	10.064625228881836	0.4261678955078125	-0.28311434631347654	2.73895263671875	-4.8065185546875	-1.89208984375	
117	0.468	0.0	0.0	0.0	0.0	0.003	0.003	0.006	0.006	9.852139831542969	0.3896563201904297	0.07242460021972656	2.765655517578125	-3.72314453125	-0.9307861328125	9.74799205932617	0.44891281127929683	0.25737667846679685	0.774383544921875	-5.1422119140625	-3.490447998046875	9.931148486328125	0.6877344268798827	-0.12988544006347655	2.6397705078125	-4.57763671875	-2.025604248046875	
118	0.47200000000000003	0.0	0.0	0.0	0.0	0.006	0.003	0.006	0.006	9.85692823486328	0.2184709014892578	0.12689268798828124	2.819061279296875	-3.902435302734375	-0.732421875	9.78031378173828	0.22445640563964842	0.2555810272216797	0.52642822265625	-5.184173583984375	-3.154754638671875	9.94730934753418	0.47644613037109373	-0.10714052429199218	2.49481201171875	-4.64630126953125	-1.621246337890625	
119	0.47600000000000003	0.0	0.0	0.0	0.0	0.003	0.006	0.006	0.003	9.827000714111328	0.3477577911376953	0.0718260498046875	2.788543701171875	-3.662109375	-0.919342041015625	9.744400756835937	0.43035774841308594	0.2902969512939453	0.81634521484375	-4.695892333984375	-3.07464599609375	9.912593423461914	0.6590040069580078	-0.09457096557617187	2.58636474609375	-4.650115966796875	-1.758575439453125	
120	0.48	0.0	0.0	0.0	0.0	0.003	0.006	0.003	0.006	9.847351428222655	0.37229835815429685	0.08140285644531249	3.269195556640625	-3.92913818359375	-0.820159912109375	9.791087689208984	0.15741875915527342	0.26695348510742184	0.331878662109375	-5.0201416015625	-3.101348876953125	9.930549935913085	0.42437224426269526	-0.08918401184082031	2.613067626953125	-4.7607421875	-1.567840576171875	
121	0.484	0.0	0.0	0.0	0.0	0.003	0.003	0.006	0.003	9.817423907470703	0.3280056274414062	0.0652419952392578	2.7313232421875	-3.72314453125	-0.946044921875	9.728239895629882	0.23582886352539062	0.22445640563964842	0.54168701171875	-5.023956298828125	-3.368377685546875	9.919177478027343	0.469263525390625	-0.061650692749023434	2.593994140625	-4.8828125	-1.99127197265625	
122	0.488	0.0	0.0	0.0	0.0	0.003	0.003	0.003	0.003	9.848548529052733	0.36391865234375	0.076614453125	3.5552978515625	-4.12750244140625	-0.79345703125	9.794678991699218	0.1304839904785156	0.26755203552246093	0.74005126953125	-4.917144775390625	-3.009796142578125	9.9461122467041	0.38786066894531246	-0.07781155395507812	2.64739990234375	-4.596710205078125	-1.628875732421875	
123	0.492	0.0	0.0	0.0	0.0	0.003	0.006	0.003	0.003	9.87668039855957	0.17417817077636719	0.08020575561523437	2.43377685546875	-3.936767578125	-1.2054443359375	9.715670336914062	0.16879121704101563	0.23044190979003906	0.60272216796875	-4.67681884765625	-3.398895263671875	9.909600671386718	0.41898529052734373	-0.04668693237304687	2.73895263671875	-4.734039306640625	-2.1209716796875	
124	0.496	0.0	0.0	0.0	0.0	0.006	0.006	0.003	0.003	9.83837317199707	0.34715924072265625	0.06703764648437499	3.50189208984375	-4.108428955078125	-0.720977783203125	9.708487731933593	0.19931728820800781	0.21128829650878905	0.457763671875	-4.932403564453125	-2.895355224609375	9.937133990478515	0.3280056274414062	-0.09038111267089843	2.4566650390625	-4.67681884765625	-1.567840576171875	
125	0.5	0.0	0.0	0.0	0.0	0.006	0.006	0.003	0.003	9.873089096069336	0.12449848632812499	0.08080430603027343	2.422332763671875	-3.74603271484375	-0.95367431640625	9.719261639404296	0.13108254089355467	0.23343466186523437	0.579833984375	-4.57000732421875	-3.124237060546875	9.907206469726562	0.39264907226562495	-0.05686228942871093	2.44140625	-4.52423095703125	-2.044677734375	
126	0.504	0.0	0.0	0.0	0.0	0.006	0.003	0.006	0.003	9.83837317199707	0.3238157745361328	0.044891281127929686	3.559112548828125	-4.2877197265625	-0.7171630859375	9.718663088989258	0.15382745666503905	0.20290859069824219	0.457763671875	-5.031585693359375	-2.979278564453125	9.880870251464843	0.4429273071289062	-0.022146365356445312	2.67791748046875	-4.66156005859375	-1.5869140625	
127	0.508	0.0	0.0	0.0	0.0	0.003	0.003	0.006	0.003	9.87009634399414	0.08858546142578125	0.05805939025878906	2.300262451171875	-3.505706787109375	-0.99945068359375	9.847351428222655	-0.0383072265625	0.0430956298828125	0.560760498046875	-4.98199462890625	-3.307342529296875	9.90181951599121	0.34237083740234375	-0.06883329772949218	2.399444580078125	-4.535675048828125	-2.170562744140625	
128	0.512	0.0	0.0	0.0	0.0	0.006	0.003	0.006	0.006	9.918578927612304	-0.16340426330566404	-0.0017956512451171875	2.033233642578125	-3.688812255859375	-0.843048095703125	9.706692080688477	0.10354922180175781	0.19512743530273435	0.370025634765625	-5.16510009765625	-2.742767333984375	9.87608184814453	0.40282442932128903	-0.05386953735351562	2.544403076171875	-4.89044189453125	-1.73187255859375	
129	0.516	0.0	0.0	0.0	0.0	0.006	0.006	0.006	0.003	9.879673150634765	0.037110125732421874	0.0526724365234375	2.178192138671875	-3.60870361328125	-1.21307373046875	9.858723886108399	-0.07422025146484375	0.022744915771484374	0.576019287109375	-4.871368408203125	-3.07464599609375	10.110713610839843	0.15322890625	-0.2902969512939453	2.7923583984375	-4.428863525390625	-1.7242431640625	
130	0.52	0.0	0.0	0.0	0.0	0.003	0.003	0.003	0.003	9.920374578857421	-0.19812018737792966	-0.003591302490234375	1.922607421875	-3.543853759765625	-0.72479248046875	9.789890588378906	0.29089550170898437	0.20530279235839843	0.81634521484375	-4.940032958984375	-3.0670166015625	9.880271701049804	0.3962403747558593	-0.07781155395507812	2.597808837890625	-4.680633544921875	-1.590728759765625	
131	0.524	0.0	0.0	0.0	0.0	0.006	0.006	0.003	0.009000000000000001	9.884461553955077	0.006584054565429687	0.020350714111328123	1.2664794921875	-3.307342529296875	-0.579833984375	9.86411083984375	-0.11133037719726561	-0.0005985504150390625	0.804901123046875	-5.19561767578125	-3.360748291015625	10.12507882080078	0.11911153259277343	-0.3238157745361328	2.64739990234375	-4.383087158203125	-1.811981201171875	
132	0.528	0.0	0.0	0.0	0.0	0.006	0.006	0.006	0.006	9.923965881347655	-0.23582886352539062	0.003591302490234375	2.147674560546875	-3.66973876953125	-0.8087158203125	9.79348189086914	0.2705447875976562	0.181959326171875	0.457763671875	-5.34820556640625	-3.078460693359375	10.01015714111328	0.48722003784179685	-0.19812018737792966	2.826690673828125	-4.73785400390625	-1.651763916015625	
133	0.532	0.0	0.0	0.0	0.0	0.003	0.006	0.003	0.006	9.969455712890625	-0.31663316955566406	-0.016759411621093748	1.354217529296875	-3.18145751953125	-0.67138671875	9.919776028442381	-0.06703764648437499	0.025139117431640625	1.003265380859375	-5.123138427734375	-3.108978271484375	10.122684619140625	0.0939724151611328	-0.3345896820068359	2.8839111328125	-4.6234130859375	-1.811981201171875	
134	0.536	0.0	0.0	0.0	0.0	0.006	0.003	0.003	0.006	9.926360083007811	-0.2705447875976562	0.014963760375976562	2.033233642578125	-3.89862060546875	-0.78582763671875	9.814431155395507	0.2537853759765625	0.15741875915527342	0.461578369140625	-4.974365234375	-3.223419189453125	10.019733947753906	0.5045779998779296	-0.21128829650878905	2.79998779296875	-4.76837158203125	-1.38092041015625	
135	0.54	0.0	0.0	0.0	0.0	0.0	0.006	0.003	0.006	9.986215124511718	-0.3010708587646484	-0.022744915771484374	1.52587890625	-3.39508056640625	-0.759124755859375	9.930549935913085	-0.04189852905273437	0.016160861206054686	0.934600830078125	-5.062103271484375	-3.204345703125	10.147225186157225	0.12629413757324218	-0.3298012786865234	2.834320068359375	-4.730224609375	-1.811981201171875	
136	0.544	0.0	0.0	0.0	0.0	0.003	0.003	0.003	0.006	9.730035546875	0.2184709014892578	0.26815058593749996	3.253936767578125	-3.780364990234375	-0.247955322265625	9.823409411621093	0.24121581726074218	0.12330138549804687	0.881195068359375	-4.825592041015625	-3.452301025390625	10.019733947753906	0.5309142181396485	-0.18555062866210936	2.84576416015625	-4.856109619140625	-1.438140869140625	
137	0.548	0.0	0.0	0.0	0.0	0.003	0.006	0.006	0.003	9.996989031982421	-0.3082534637451172	0.0143652099609375	1.583099365234375	-3.5400390625	-0.83160400390625	9.925761532592773	-0.04608838195800781	0.017956512451171875	0.965118408203125	-5.2947998046875	-3.421783447265625	10.193313568115233	0.0383072265625	-0.4429273071289062	2.83050537109375	-5.08880615234375	-1.85394287109375	
138	0.552	0.0	0.0	0.0	0.0	0.003	0.006	0.006	0.003	9.728838446044922	0.2753331909179687	0.2705447875976562	3.4637451171875	-4.15802001953125	-0.48065185546875	9.658808047485351	0.4578910675048828	0.29568390502929687	0.919342041015625	-4.96673583984375	-3.528594970703125	10.025120901489258	0.5638344909667968	-0.1879448303222656	2.5482177734375	-4.703521728515625	-1.36566162109375	
139	0.556	0.0	0.0	0.0	0.0	0.003	0.006	0.006	0.003	9.982025271606444	-0.26815058593749996	0.03591302490234375	1.712799072265625	-3.4332275390625	-0.48065185546875	9.919776028442381	0.025139117431640625	0.017357962036132813	1.65557861328125	-5.115509033203125	-3.39508056640625	10.19570776977539	0.07841010437011718	-0.4423287567138672	2.9144287109375	-4.49371337890625	-1.682281494140625	
140	0.56	0.0	0.0	0.0	0.0	0.003	0.006	0.003	0.003	9.743203656005859	0.3495534423828125	0.28012159423828126	3.79180908203125	-4.299163818359375	-0.14495849609375	9.649829791259766	0.49260699157714843	0.33698388366699217	1.0528564453125	-4.596710205078125	-3.41796875	9.896432562255859	0.6171054779052734	-0.06584054565429687	2.67791748046875	-4.78363037109375	-2.0904541015625	
141	0.5640000000000001	0.0	0.0	0.0	0.0	0.006	0.006	0.003	0.006	9.850344180297851	0.23223756103515625	0.017956512451171875	3.59344482421875	-4.116058349609375	-0.537872314453125	9.81263550415039	0.04608838195800781	0.24959552307128904	0.54931640625	-5.084991455078125	-3.253936767578125	10.211270080566406	0.06344634399414062	-0.43993455505371093	2.910614013671875	-4.55474853515625	-1.62506103515625	
142	0.5680000000000001	0.0	0.0	0.0	0.0	0.006	0.006	0.006	0.006	9.749787710571288	0.4722562774658203	0.2861070983886719	3.910064697265625	-4.31060791015625	-0.152587890625	9.636661682128906	0.5614402893066406	0.3525461944580078	1.033782958984375	-5.22613525390625	-3.48663330078125	9.882067352294921	0.6817489227294922	-0.03651157531738281	2.67791748046875	-4.6234130859375	-1.94549560546875	
143	0.5720000000000001	0.0	0.0	0.0	0.0	0.003	0.003	0.003	0.006	9.840168823242188	0.3327940307617187	0.023942016601562498	3.917694091796875	-4.35638427734375	-0.4425048828125	9.819818109130859	0.08259995727539061	0.25737667846679685	0.66375732421875	-5.153656005859375	-3.27301025390625	9.888052856445311	0.3112462158203125	-0.12389993591308593	2.655029296875	-4.9285888671875	-1.819610595703125	
144	0.5760000000000001	0.0	0.0	0.0	0.0	0.003	0.003	0.003	0.006	9.74859060974121	0.5692214447021484	0.3064578125	2.994537353515625	-3.9520263671875	-1.361846923828125	9.756970315551758	0.20649989318847656	0.1771709228515625	0.4119873046875	-4.596710205078125	-3.490447998046875	9.867702142333984	0.7272387542724609	-0.013766659545898436	2.521514892578125	-4.665374755859375	-1.987457275390625	
145	0.58	0.0	0.0	0.0	0.0	0.003	0.003	0.003	0.003	9.852139831542969	0.3950432739257812	0.023343466186523436	4.184722900390625	-4.364013671875	-0.675201416015625	9.82460651245117	0.09935936889648436	0.2519897247314453	0.606536865234375	-4.89044189453125	-3.19671630859375	9.90181951599121	0.2950853546142578	-0.13347674255371092	2.521514892578125	-4.917144775390625	-1.728057861328125	
146	0.584	0.0	0.0	0.0	0.0	0.003	0.003	0.003	0.003	9.751583361816406	0.5117606048583984	-0.10235212097167969	2.8228759765625	-3.665924072265625	-1.45721435546875	9.76116016845703	0.2950853546142578	0.18136077575683593	0.48065185546875	-4.718780517578125	-3.4637451171875	9.854534033203125	0.814627114868164	0.003591302490234375	2.399444580078125	-4.711151123046875	-2.506256103515625	
147	0.588	0.0	0.0	0.0	0.0	0.003	0.003	0.003	0.006	9.828796365356444	0.49679684448242184	0.02633621826171875	4.116058349609375	-4.154205322265625	-0.530242919921875	9.706692080688477	0.12629413757324218	0.16280571289062498	0.091552734375	-4.9896240234375	-2.681732177734375	9.87668039855957	0.354341845703125	-0.12030863342285156	2.5634765625	-4.863739013671875	-1.77764892578125	
148	0.592	0.0	0.0	0.0	0.0	0.006	0.003	0.006	0.003	9.756371765136718	0.4860229370117187	-0.09576806640624999	2.689361572265625	-3.814697265625	-1.71661376953125	9.775525378417969	0.27952304382324217	0.19033903198242186	0.339508056640625	-4.863739013671875	-3.498077392578125	9.827000714111328	0.49380409240722656	-0.0652419952392578	2.147674560546875	-4.43267822265625	-2.376556396484375	
149	0.596	0.0	0.0	0.0	0.0	0.003	0.003	0.003	0.003	9.762955819702148	0.26695348510742184	-0.07721300354003906	0.8087158203125	-3.055572509765625	-1.3427734375	9.713276135253906	0.15741875915527342	0.16819266662597654	0.23651123046875	-5.069732666015625	-2.8533935546875	9.87608184814453	0.4034229797363281	-0.10235212097167969	2.552032470703125	-4.96673583984375	-1.827239990234375	
150	0.6	0.0	0.0	0.0	0.0	0.006	0.006	0.003	0.006	9.76116016845703	0.488417138671875	-0.07422025146484375	1.583099365234375	-3.2501220703125	-1.827239990234375	9.821015209960937	0.14185644836425781	0.009576806640625	0.339508056640625	-4.82177734375	-3.063201904296875	9.809044201660155	0.5770026000976562	-0.03591302490234375	2.208709716796875	-4.558563232421875	-2.330780029296875	
151	0.604	0.0	0.0	0.0	0.0	0.003	0.006	0.003	0.006	9.80006594543457	0.1083376251220703	-0.06823474731445311	0.46539306640625	-3.01361083984375	-1.434326171875	9.71028338317871	0.13347674255371092	0.17836802368164062	0.2593994140625	-5.329132080078125	-2.758026123046875	9.821015209960937	0.5967547637939453	0.002992752075195312	2.76947021484375	-4.79888916015625	-1.373291015625	
152	0.608	0.0	0.0	0.0	0.0	0.006	0.006	0.006	0.006	9.776722479248047	0.46148236999511716	-0.07781155395507812	1.15966796875	-3.23486328125	-1.86920166015625	9.791686239624022	0.22385785522460935	0.0383072265625	0.461578369140625	-4.894256591796875	-3.223419189453125	9.822212310791015	0.6063315704345703	-0.027533319091796873	2.3193359375	-4.486083984375	-2.2125244140625	
153	0.612	0.0	0.0	0.0	0.0	0.003	0.006	0.006	0.003	9.841365924072266	0.047884033203124995	-0.07122749938964844	0.457763671875	-3.185272216796875	-1.132965087890625	9.76235726928711	0.6452373474121094	0.15562310791015624	0.48828125	-5.161285400390625	-3.170013427734375	9.83238766784668	0.6470329986572265	0.005985504150390624	2.498626708984375	-4.810333251953125	-1.346588134765625	
154	0.616	0.0	0.0	0.0	0.0	0.003	0.003	0.003	0.003	10.004770187377929	-0.5165490081787109	-0.0430956298828125	1.651763916015625	-3.734588623046875	-0.823974609375	9.764751470947266	0.16460136413574217	0.062249243164062495	0.377655029296875	-4.8675537109375	-3.276824951171875	10.164583148193358	0.12988544006347655	-0.26276363220214843	2.925872802734375	-4.383087158203125	-1.926422119140625	
155	0.62	0.0	0.0	0.0	0.0	0.003	0.006	0.003	0.006	9.854534033203125	0.015562310791015624	-0.05386953735351562	-0.385284423828125	-2.696990966796875	-1.2359619140625	9.750386260986328	0.6625953094482422	0.17178396911621094	0.48828125	-5.237579345703125	-3.314971923828125	9.84435867614746	0.6482300994873047	0.022744915771484374	2.849578857421875	-4.482269287109375	-1.44195556640625	
156	0.624	0.0	0.0	0.0	0.0	0.006	0.006	0.006	0.003	10.008361489868163	-0.4333505004882812	-0.020350714111328123	1.766204833984375	-3.536224365234375	-0.621795654296875	9.746794958496093	0.21308394775390624	0.09756371765136718	1.02996826171875	-5.19561767578125	-3.528594970703125	10.171765753173828	0.2519897247314453	-0.27293898925781246	2.925872802734375	-4.45556640625	-1.96075439453125	
157	0.628	0.0	0.0	0.0	0.0	0.003	0.003	0.006	0.003	9.855731134033203	-0.06404489440917968	-0.008978256225585938	4.31060791015625	-4.69970703125	0.560760498046875	9.720458740234374	0.5698199951171875	0.2041056915283203	0.667572021484375	-5.405426025390625	-3.177642822265625	9.82520506286621	0.508169302368164	0.03950432739257812	2.79998779296875	-4.9591064453125	-1.575469970703125	
158	0.632	0.0	0.0	0.0	0.0	0.003	0.006	0.006	0.003	10.019733947753906	-0.430956298828125	-0.016160861206054686	1.758575439453125	-3.71551513671875	-0.797271728515625	9.951499200439452	0.3010708587646484	0.05686228942871093	1.163482666015625	-4.985809326171875	-3.77655029296875	10.184933862304687	0.23702596435546874	-0.27892449340820313	2.887725830078125	-4.459381103515625	-1.89971923828125	
159	0.636	0.0	0.0	0.0	0.0	0.006	0.003	0.003	0.003	9.886257205200195	0.3315969299316406	0.37229835815429685	4.9896240234375	-4.8828125	0.583648681640625	9.70968483276367	0.5787982513427734	0.21727380065917967	0.782012939453125	-4.913330078125	-3.11279296875	10.032303506469725	0.8277952239990234	-0.09576806640624999	2.8839111328125	-4.688262939453125	-1.31988525390625	
160	0.64	0.0	0.0	0.0	0.0	0.003	0.006	0.003	0.009000000000000001	10.001777435302733	-0.48123453369140623	0.0005985504150390625	2.269744873046875	-3.803253173828125	-0.37384033203125	9.928754284667969	0.2316390106201172	0.04668693237304687	1.190185546875	-5.084991455078125	-3.73077392578125	10.168174450683592	0.2184709014892578	-0.29927520751953124	2.712249755859375	-4.352569580078125	-1.85394287109375	
161	0.644	0.0	0.0	0.0	0.0	0.003	0.006	0.003	0.003	9.835978970336914	0.46686932373046874	0.39863457641601563	5.5389404296875	-5.313873291015625	0.446319580078125	9.73602105102539	0.5051765502929687	0.45489831542968745	0.782012939453125	-4.98199462890625	-3.25775146484375	10.04247886352539	0.7739256866455078	-0.12030863342285156	2.960205078125	-4.608154296875	-1.3580322265625	
162	0.648	0.0	0.0	0.0	0.0	0.006	0.003	0.003	0.003	9.913191973876952	0.13826514587402344	0.11252747802734374	2.777099609375	-3.681182861328125	-0.35858154296875	9.947907897949218	-0.07003039855957031	0.017357962036132813	1.003265380859375	-5.14984130859375	-3.5858154296875	10.29207438659668	0.06943184814453125	-0.5722141967773438	2.979278564453125	-4.73785400390625	-1.682281494140625	
163	0.652	0.0	0.0	0.0	0.0	0.003	0.006	0.003	0.006	9.780912332153319	0.5165490081787109	0.4471171600341797	5.7373046875	-4.993438720703125	0.354766845703125	9.713276135253906	0.51714755859375	0.4369418029785156	0.75531005859375	-4.863739013671875	-2.9144287109375	10.037690460205077	0.7577648254394531	-0.15981296081542967	2.941131591796875	-4.741668701171875	-1.750946044921875	
164	0.656	0.0	0.0	0.0	0.0	0.006	0.003	0.003	0.003	9.896432562255859	-0.105344873046875	0.08259995727539061	1.911163330078125	-3.429412841796875	-0.576019287109375	9.93354268798828	-0.09995791931152344	0.17238251953125	0.881195068359375	-4.932403564453125	-3.269195556640625	10.266935269165039	0.16759411621093748	-0.5787982513427734	2.819061279296875	-4.871368408203125	-1.483917236328125	
165	0.66	0.0	0.0	0.0	0.0	0.006	0.006	0.006	0.003	9.782109432983399	0.853532891845703	0.3950432739257812	5.218505859375	-4.98199462890625	0.659942626953125	9.751583361816406	0.18375497741699218	0.3854664672851562	0.457763671875	-4.924774169921875	-2.864837646484375	9.897629663085937	0.4369418029785156	-0.022146365356445312	2.696990966796875	-4.60052490234375	-1.995086669921875	
166	0.664	0.0	0.0	0.0	0.0	0.003	0.003	0.003	0.003	9.74200655517578	-0.027533319091796873	0.10175357055664062	0.96893310546875	-3.082275390625	-1.758575439453125	9.976638317871092	0.17058686828613281	0.06763619689941405	0.759124755859375	-4.98199462890625	-3.345489501953125	10.260949765014647	0.2807201446533203	-0.5967547637939453	2.9296875	-4.703521728515625	-1.41143798828125	
167	0.668	0.0	0.0	0.0	0.0	0.003	0.006	0.003	0.003	10.0748005859375	0.04369418029785156	-0.20829554443359374	-0.45013427734375	-2.15911865234375	-1.323699951171875	9.752780462646484	0.1753752716064453	0.20649989318847656	0.28228759765625	-5.13458251953125	-3.032684326171875	9.884461553955077	0.35314474487304687	-0.017357962036132813	2.685546875	-4.611968994140625	-1.956939697265625	
168	0.672	0.0	0.0	0.0	0.0	0.003	0.003	0.003	0.009000000000000001	10.084377392578125	0.028730419921875	-0.13587094421386717	3.692626953125	-4.093170166015625	-0.804901123046875	9.979631069946288	0.2723404388427734	0.06464344482421874	0.881195068359375	-5.0048828125	-3.208160400390625	10.263942517089843	0.29269115295410153	-0.5728127471923827	2.429962158203125	-5.001068115234375	-1.781463623046875	
169	0.676	0.0	0.0	0.0	0.0	0.003	0.006	0.006	0.006	9.830592016601562	0.04369418029785156	-0.05386953735351562	3.05938720703125	-4.1046142578125	-0.732421875	9.728239895629882	-0.011372457885742187	0.24301146850585936	0.568389892578125	-4.878997802734375	-3.0975341796875	9.878476049804688	0.24839842224121092	-0.0017956512451171875	2.4871826171875	-4.7454833984375	-2.025604248046875	
170	0.68	0.0	0.0	0.0	0.0	0.003	0.003	0.006	0.003	9.925162982177733	0.33758243408203126	-0.08259995727539061	3.0975341796875	-3.955841064453125	-1.10626220703125	9.733626849365233	0.19512743530273435	0.15861585998535155	0.274658203125	-5.2947998046875	-3.269195556640625	9.886257205200195	0.4842272857666015	-0.19213468322753904	2.559661865234375	-4.878997802734375	-1.895904541015625	
171	0.684	0.0	0.0	0.0	0.0	0.003	0.003	0.006	0.003	9.859322436523437	-0.16819266662597654	-0.08200140686035155	0.316619873046875	-2.86865234375	-1.773834228515625	9.743802206420899	-0.013766659545898436	0.21906945190429686	0.4119873046875	-4.76837158203125	-3.04412841796875	9.904812268066406	0.1879448303222656	-0.02633621826171875	2.55584716796875	-4.673004150390625	-2.071380615234375	
172	0.6880000000000001	0.0	0.0	0.0	0.0	0.0	0.006	0.006	0.006	9.913790524291992	0.12988544006347655	-0.03531447448730469	4.55474853515625	-4.76837158203125	-0.43487548828125	9.730035546875	0.1514332550048828	0.17597382202148437	0.286102294921875	-5.25665283203125	-3.292083740234375	9.890447058105469	0.4656722229003906	-0.14963760375976562	2.67791748046875	-5.157470703125	-1.88446044921875	
173	0.6920000000000001	0.0	0.0	0.0	0.0	0.006	0.003	0.006	0.006	9.925761532592773	-0.13467384338378904	-0.13287819213867186	4.581451416015625	-4.741668701171875	-0.789642333984375	9.675567459106444	-0.032920272827148434	0.15562310791015624	0.446319580078125	-4.99725341796875	-3.292083740234375	9.81862100830078	0.1131260284423828	-0.0005985504150390625	2.3040771484375	-4.486083984375	-2.048492431640625	
174	0.6960000000000001	0.0	0.0	0.0	0.0	0.006	0.003	0.006	0.003	9.771934075927733	0.2328361114501953	0.054468087768554684	3.704071044921875	-4.45556640625	-0.759124755859375	9.757568865966796	0.033518823242187495	0.15981296081542967	0.286102294921875	-4.917144775390625	-3.017425537109375	9.898228213500976	0.45968671875	-0.17357962036132812	2.5634765625	-4.985809326171875	-1.91497802734375	
175	0.7000000000000001	0.0	0.0	0.0	0.0	0.006	0.003	0.003	0.003	9.909600671386718	-0.06404489440917968	0.051475335693359374	1.636505126953125	-3.353118896484375	-1.1444091796875	9.65940659790039	0.11372457885742186	0.13826514587402344	0.530242919921875	-4.96673583984375	-3.30352783203125	9.801263046264648	0.1562216583251953	0.0053869537353515625	2.1514892578125	-4.665374755859375	-2.170562744140625	
176	0.704	0.0	0.0	0.0	0.0	0.009000000000000001	0.003	0.003	0.006	9.854534033203125	0.08559270935058594	0.020949264526367185	2.819061279296875	-4.085540771484375	-0.72479248046875	9.7683427734375	0.0143652099609375	0.14963760375976562	0.5340576171875	-4.962921142578125	-3.170013427734375	9.797073193359374	0.42437224426269526	0.06045359191894531	2.513885498046875	-4.581451416015625	-1.77001953125	
177	0.708	0.0	0.0	0.0	0.0	0.003	0.006	0.006	0.003	9.969455712890625	-0.01975216369628906	0.058657940673828124	3.887176513671875	-4.31060791015625	-0.51116943359375	9.661202249145507	0.21966800231933592	0.1562216583251953	0.286102294921875	-5.023956298828125	-3.28826904296875	9.812036953735351	0.22206220397949217	-0.025737667846679687	2.2430419921875	-4.756927490234375	-2.23541259765625	
178	0.712	0.0	0.0	0.0	0.0	0.0	0.006	0.003	0.003	9.847351428222655	0.258573779296875	0.031124621582031248	5.55419921875	-5.260467529296875	-0.06866455078125	9.707290631103515	0.04967968444824218	0.14784195251464843	0.438690185546875	-5.08880615234375	-3.21197509765625	9.795876092529296	0.4255693450927734	0.07721300354003906	2.46429443359375	-4.8675537109375	-1.972198486328125	
179	0.716	0.0	0.0	0.0	0.0	0.003	0.006	0.003	0.003	9.87727894897461	0.09816226806640624	0.09337386474609374	2.010345458984375	-3.711700439453125	-1.15203857421875	9.665392102050781	0.25318682556152344	0.12868833923339842	0.9307861328125	-5.83648681640625	-3.314971923828125	9.803058697509766	0.2819172454833984	-0.12868833923339842	2.925872802734375	-4.364013671875	-1.4495849609375	
180	0.72	0.0	0.0	0.0	0.0	0.003	0.003	0.003	0.003	9.935936889648437	-0.1514332550048828	-0.011372457885742187	2.162933349609375	-3.574371337890625	-0.690460205078125	9.715670336914062	0.14305354919433594	0.12808978881835936	0.6561279296875	-5.28717041015625	-2.986907958984375	9.791087689208984	0.4896142395019531	0.051475335693359374	2.40325927734375	-4.7607421875	-2.0599365234375	
181	0.724	0.0	0.0	0.0	0.0	0.003	0.006	0.003	0.003	9.949104998779296	-0.058657940673828124	0.10474632263183593	1.62506103515625	-3.30352783203125	-0.77056884765625	9.894038360595703	0.21128829650878905	0.008978256225585938	0.728607177734375	-4.93621826171875	-3.200531005859375	10.191517916870117	0.47105917663574215	-0.4477157104492187	2.727508544921875	-4.451751708984375	-1.434326171875	
182	0.728	0.0	0.0	0.0	0.0	0.003	0.006	0.006	0.006	9.910797772216796	-0.06105214233398437	0.06045359191894531	4.2266845703125	-4.7149658203125	-0.446319580078125	9.706093530273437	0.19931728820800781	0.15083470458984374	0.789642333984375	-5.2337646484375	-3.19671630859375	9.773131176757811	0.4674678741455078	0.09217676391601562	2.532958984375	-4.82940673828125	-2.17437744140625	
183	0.732	0.0	0.0	0.0	0.0	0.006	0.003	0.003	0.006	9.906009368896484	0.05985504150390625	0.1388636962890625	0.31280517578125	-4.543304443359375	-0.34332275390625	9.87009634399414	0.17178396911621094	0.032920272827148434	0.5950927734375	-4.680633544921875	-3.246307373046875	10.181342559814453	0.51714755859375	-0.4285620971679687	2.9296875	-4.329681396484375	-1.491546630859375	
184	0.736	0.0	0.0	0.0	0.0	0.003	0.003	0.003	0.006	9.892841259765625	0.014963760375976562	0.08858546142578125	2.685546875	-3.82232666015625	-0.698089599609375	9.765948571777344	0.3130418670654297	0.37828386230468747	0.553131103515625	-5.008697509765625	-3.2196044921875	10.05504842224121	0.37708676147460934	-0.2232593048095703	2.910614013671875	-4.53948974609375	-1.873016357421875	
185	0.74	0.0	0.0	0.0	0.0	0.003	0.006	0.006	0.006	9.982623822021484	0.012569558715820313	-0.10295067138671875	0.61798095703125	-2.719879150390625	-1.09100341796875	9.849147079467773	0.1640028137207031	0.061650692749023434	0.701904296875	-4.8828125	-3.124237060546875	10.155006341552733	0.5374982727050781	-0.3585316986083984	2.7313232421875	-4.5166015625	-1.36566162109375	
186	0.744	0.0	0.0	0.0	0.0	0.003	0.006	0.003	0.003	9.91498762512207	-0.037110125732421874	0.1304839904785156	3.80706787109375	-4.31060791015625	-0.5645751953125	9.749189160156249	0.354940396118164	0.41419688720703124	0.64849853515625	-5.21087646484375	-3.11279296875	10.050858569335936	0.38187516479492184	-0.1562216583251953	3.021240234375	-4.63104248046875	-1.85394287109375	
187	0.748	0.0	0.0	0.0	0.0	0.003	0.003	0.003	0.006	9.93952819213867	0.07481880187988281	-0.05626373901367187	0.78582763671875	-3.032684326171875	-0.789642333984375	10.001777435302733	0.1131260284423828	-0.00239420166015625	0.93841552734375	-5.054473876953125	-3.24249267578125	10.244190353393554	0.5925649108886718	-0.48183308410644526	3.02886962890625	-4.791259765625	-1.6632080078125	
188	0.752	0.0	0.0	0.0	0.0	0.006	0.003	0.006	0.006	9.636661682128906	0.34715924072265625	0.27952304382324217	3.0517578125	-3.780364990234375	-1.01470947265625	9.765948571777344	0.3082534637451172	0.36391865234375	0.637054443359375	-5.02777099609375	-3.143310546875	10.014945544433592	0.4016273284912109	-0.15083470458984374	2.948760986328125	-4.680633544921875	-1.7242431640625	
189	0.756	0.0	0.0	0.0	0.0	0.006	0.006	0.003	0.003	9.982025271606444	0.10235212097167969	-0.08140285644531249	-0.537872314453125	-2.338409423828125	-1.15203857421875	9.996989031982421	0.22864625854492185	-0.03411737365722656	0.84686279296875	-4.955291748046875	-3.19671630859375	10.203488925170898	0.650624301147461	-0.47165772705078124	2.63214111328125	-4.60052490234375	-1.495361328125	
190	0.76	0.0	0.0	0.0	0.0	0.0	0.006	0.006	0.003	9.661800799560547	0.2902969512939453	0.23044190979003906	3.917694091796875	-4.413604736328125	-0.865936279296875	9.624092123413085	0.3537432952880859	0.4800374328613281	0.499725341796875	-5.0048828125	-3.082275390625	10.034697708129881	0.32561142578124996	0.055066638183593745	2.593994140625	-4.596710205078125	-1.911163330078125	
191	0.764	0.0	0.0	0.0	0.0	0.006	0.006	0.006	0.003	10.00417163696289	0.06045359191894531	-0.06823474731445311	-0.2288818359375	-2.422332763671875	-1.18255615234375	9.964667309570311	0.25139117431640623	-0.00239420166015625	1.277923583984375	-5.0048828125	-3.12042236328125	10.22204398803711	0.5955576629638671	-0.4082113830566406	2.979278564453125	-4.73785400390625	-1.651763916015625	
192	0.768	0.0	0.0	0.0	0.0	0.003	0.003	0.003	0.003	9.612719665527344	0.3459621398925781	0.21787235107421873	4.505157470703125	-4.70733642578125	-0.732421875	9.6013472076416	0.3603273498535156	0.5183446594238281	0.553131103515625	-5.191802978515625	-3.131866455078125	9.83777462158203	0.37409400939941406	0.10354922180175781	2.5482177734375	-4.7454833984375	-2.086639404296875	
193	0.772	0.0	0.0	0.0	0.0	0.006	0.003	0.006	0.003	9.91558617553711	0.49739539489746093	0.11073182678222655	1.781463623046875	-3.055572509765625	-0.797271728515625	9.873089096069336	0.28790274963378903	0.08200140686035155	0.80108642578125	-4.99725341796875	-3.387451171875	10.25376716003418	0.6159083770751953	-0.4830301849365234	2.849578857421875	-4.9285888671875	-1.5869140625	
194	0.776	0.0	0.0	0.0	0.0	0.003	0.006	0.003	0.003	9.698910925292969	0.34656069030761716	0.14305354919433594	3.826141357421875	-4.14276123046875	-0.79345703125	9.609128363037108	0.3537432952880859	0.5063736511230469	0.637054443359375	-4.96673583984375	-3.047943115234375	9.87608184814453	0.35134909362792965	0.08499415893554688	2.5482177734375	-4.57000732421875	-1.89208984375	
195	0.78	0.0	0.0	0.0	0.0	0.003	0.003	0.003	0.003	9.886257205200195	0.412401235961914	0.16041151123046873	2.044677734375	-3.5858154296875	-0.865936279296875	9.83178911743164	0.229843359375	0.12330138549804687	0.72479248046875	-4.756927490234375	-3.07464599609375	9.90840357055664	0.6015431671142578	-0.09816226806640624	2.410888671875	-4.993438720703125	-2.178192138671875	
196	0.784	0.0	0.0	0.0	0.0	0.009000000000000001	0.006	0.003	0.003	9.702502227783203	0.35194764404296874	0.1005564697265625	3.765106201171875	-4.512786865234375	-0.820159912109375	9.589974749755859	0.3890577697753906	0.5716156463623047	0.26702880859375	-4.917144775390625	-3.51715087890625	9.852139831542969	0.36750995483398435	0.07062894897460938	2.559661865234375	-5.157470703125	-2.086639404296875	
197	0.788	0.0	0.0	0.0	0.0	0.003	0.003	0.003	0.003	9.891644158935547	0.3968389251708984	0.09038111267089843	2.010345458984375	-3.391265869140625	-0.6866455078125	9.884461553955077	0.16460136413574217	0.0718260498046875	0.751495361328125	-5.2642822265625	-3.261566162109375	9.952696301269532	0.6075286712646484	-0.14963760375976562	2.429962158203125	-4.95147705078125	-2.09808349609375	
198	0.792	0.0	0.0	0.0	0.0	0.006	0.006	0.003	0.006	9.804255798339844	0.12449848632812499	0.0718260498046875	3.406524658203125	-3.948211669921875	-0.873565673828125	9.589376199340819	0.2603694305419922	0.3429693878173828	0.28228759765625	-4.9896240234375	-3.528594970703125	9.792284790039062	0.28311434631347654	-0.006584054565429687	2.201080322265625	-4.28009033203125	-2.079010009765625	
199	0.796	0.0	0.0	0.0	0.0	0.003	0.003	0.003	0.003	9.873687646484374	0.421978042602539	0.07122749938964844	2.964019775390625	-3.826141357421875	-0.84686279296875	9.891045608520507	0.1897404815673828	0.003591302490234375	0.621795654296875	-5.31768798828125	-3.7841796875	9.900023864746093	0.6278793853759765	-0.11731588134765625	2.3651123046875	-4.848480224609375	-1.97601318359375	
200	0.8	0.0	0.0	0.0	0.0	0.009000000000000001	0.006	0.006	0.003	9.85752678527832	-0.012569558715820313	-0.037708676147460936	2.5482177734375	-3.62396240234375	-0.99945068359375	9.639055883789062	0.2442085693359375	0.2855085479736328	0.457763671875	-4.791259765625	-3.528594970703125	9.81862100830078	0.277727392578125	-0.008978256225585938	2.38037109375	-4.627227783203125	-1.8768310546875	
201	0.804	0.0	0.0	0.0	0.0	0.003	0.006	0.003	0.006	9.922768780517577	0.06763619689941405	-0.1352723937988281	4.638671875	-4.802703857421875	-0.762939453125	9.756371765136718	0.08379705810546874	0.05566518859863281	0.67901611328125	-5.298614501953125	-3.025054931640625	9.87668039855957	0.43933600463867184	0.0526724365234375	2.414703369140625	-4.657745361328125	-1.94549560546875	
202	0.808	0.0	0.0	0.0	0.0	0.0	0.006	0.006	0.003	9.728239895629882	-0.12150573425292968	0.11791443176269531	2.140045166015625	-3.387451171875	-0.84686279296875	9.557653027343749	0.24181436767578124	0.4016273284912109	0.408172607421875	-4.756927490234375	-3.612518310546875	9.728838446044922	0.24600422058105467	-0.0005985504150390625	2.52532958984375	-4.756927490234375	-1.96075439453125	
203	0.812	0.0	0.0	0.0	0.0	0.006	0.006	0.006	0.006	9.989806427001952	0.2867056488037109	-0.16639701538085935	5.1727294921875	-5.237579345703125	-0.278472900390625	9.712079034423828	0.13407529296874998	0.1370680450439453	0.335693359375	-5.13458251953125	-2.81524658203125	9.785700735473633	0.5189432098388671	0.037708676147460936	2.597808837890625	-4.711151123046875	-1.85394287109375	
204	0.8160000000000001	0.0	0.0	0.0	0.0	0.009000000000000001	0.006	0.006	0.009000000000000001	9.769539874267577	-0.17238251953125	0.017357962036132813	3.94439697265625	-4.6844482421875	-1.049041748046875	9.891644158935547	0.06584054565429687	0.052073886108398436	0.614166259765625	-4.627227783203125	-2.918243408203125	9.881468801879882	0.16460136413574217	-0.13108254089355467	2.75421142578125	-4.5013427734375	-1.83868408203125	
205	0.8200000000000001	0.0	0.0	0.0	0.0	0.003	0.003	0.006	0.003	9.974842666625976	0.06703764648437499	-0.1657984649658203	3.360748291015625	-4.291534423828125	-0.67901611328125	9.668983404541015	0.12988544006347655	0.10354922180175781	0.5340576171875	-5.420684814453125	-3.15093994140625	9.757568865966796	0.42437224426269526	0.08978256225585937	2.613067626953125	-4.84466552734375	-1.972198486328125	
206	0.8240000000000001	0.0	0.0	0.0	0.0	0.003	0.006	0.006	0.006	9.834183319091796	-0.07841010437011718	-0.0017956512451171875	1.97601318359375	-3.643035888671875	-0.530242919921875	9.85094273071289	0.14305354919433594	0.028131869506835935	0.17547607421875	-4.8065185546875	-3.07464599609375	10.164583148193358	0.47644613037109373	-0.4531026641845703	2.811431884765625	-4.344940185546875	-1.399993896484375	
207	0.8280000000000001	0.0	0.0	0.0	0.0	0.006	0.003	0.003	0.006	9.962273107910155	-0.040701428222656245	-0.1406593475341797	3.1890869140625	-4.276275634765625	-0.69427490234375	9.941922393798828	0.1610100616455078	0.08738836059570312	0.530242919921875	-5.207061767578125	-3.11279296875	9.962273107910155	0.43993455505371093	-0.10953472595214843	2.689361572265625	-4.688262939453125	-1.804351806640625	
208	0.8320000000000001	0.0	0.0	0.0	0.0	0.006	0.003	0.003	0.006	9.949104998779296	-0.229843359375	-0.17238251953125	-0.011444091796875	-2.506256103515625	-1.094818115234375	9.817423907470703	0.040102877807617184	0.06943184814453125	0.553131103515625	-4.72259521484375	-3.39508056640625	10.181342559814453	0.3016694091796875	-0.3848679168701172	3.170013427734375	-4.2572021484375	-1.468658447265625	
209	0.836	0.0	0.0	0.0	0.0	0.003	0.006	0.003	0.003	9.931747036743163	0.18914193115234373	-0.04908113403320312	5.80596923828125	-5.420684814453125	-0.20599365234375	9.804255798339844	0.2280477081298828	0.1388636962890625	0.54168701171875	-5.42449951171875	-3.0975341796875	9.944316595458984	0.3968389251708984	-0.20709844360351562	2.910614013671875	-4.8370361328125	-1.9378662109375	
210	0.84	0.0	0.0	0.0	0.0	0.006	0.006	0.003	4.542	9.917381826782226	-0.26336218261718747	-0.09995791931152344	-0.988006591796875	-2.23541259765625	-0.980377197265625	10.073603485107421	0.08439560852050781	-0.23822306518554687	0.911712646484375	-5.023956298828125	-2.765655517578125	10.275913525390624	0.3848679168701172	-0.5057751007080078	3.177642822265625	-4.608154296875	-1.194000244140625	
211	0.844	0.0	0.0	0.0	0.0	4.5600000000000005	4.611	4.614	4.563	9.753977563476562	0.12090718383789062	0.16280571289062498	4.85992431640625	-4.878997802734375	-0.4119873046875	9.891644158935547	0.0652419952392578	0.11611878051757812	0.469207763671875	-5.306243896484375	-2.95257568359375	10.091559997558592	0.21906945190429686	-0.21607669982910155	2.918243408203125	-4.795074462890625	-1.880645751953125	
212	0.848	0.0	0.0	0.0	0.0	4.569	4.614	4.617	4.566	9.87608184814453	-0.020949264526367185	-0.020949264526367185	1.338958740234375	-3.192901611328125	-0.629425048828125	9.969455712890625	0.1370680450439453	-0.12210428466796874	1.40380859375	-4.833221435546875	-3.0059814453125	10.217854135131835	0.5698199951171875	-0.527322915649414	2.777099609375	-4.848480224609375	-1.373291015625	
213	0.852	0.0	0.0	0.0	0.0	4.557	4.617	4.614	4.572	9.600748657226562	0.14604630126953125	0.3082534637451172	3.28826904296875	-4.245758056640625	-0.90789794921875	9.530119708251952	0.3746925598144531	0.44891281127929683	0.667572021484375	-5.3558349609375	-3.2501220703125	10.008960040283203	0.36750995483398435	-0.19512743530273435	2.777099609375	-4.657745361328125	-1.796722412109375	
214	0.856	0.0	0.0	0.0	0.0	4.572	4.614	4.617	4.557	9.996989031982421	-0.3172317199707031	-0.2705447875976562	-1.36566162109375	-1.842498779296875	-1.16729736328125	10.081384640502929	0.023343466186523436	-0.18734627990722655	1.28173828125	-4.93621826171875	-3.2501220703125	10.365696087646484	0.42796354675292964	-0.5698199951171875	2.86102294921875	-5.062103271484375	-1.369476318359375	
215	0.86	0.0	0.0	0.0	0.0	4.572	4.617	4.617	4.545	9.655815295410155	0.2537853759765625	0.2292448089599609	6.748199462890625	-5.79071044921875	-0.026702880859375	9.55106897277832	0.3142389678955078	0.46028526916503903	0.7171630859375	-5.1727294921875	-3.0670166015625	9.964068759155273	0.35194764404296874	-0.201112939453125	2.64739990234375	-4.57000732421875	-1.7547607421875	
216	0.864	0.0	0.0	0.0	0.0	4.578	4.614	4.617	4.542	9.813832604980469	0.32501287536621093	0.14425065002441406	-2.4871826171875	-1.430511474609375	-1.674652099609375	10.02332525024414	0.2914940521240234	0.06823474731445311	0.759124755859375	-5.33294677734375	-3.28826904296875	10.192116467285155	0.6452373474121094	-0.4955997436523437	2.685546875	-4.833221435546875	-1.537322998046875	
217	0.868	0.0	0.0	0.0	0.0	4.581	4.611	4.617	4.563	9.6396544342041	0.09995791931152344	0.16639701538085935	1.28936767578125	-3.173828125	-1.2664794921875	9.70968483276367	0.24301146850585936	0.33758243408203126	0.652313232421875	-5.245208740234375	-2.841949462890625	9.928155734252929	0.13108254089355467	-0.01975216369628906	2.887725830078125	-4.75311279296875	-1.987457275390625	
218	0.872	0.0	0.0	0.0	0.0	4.566	4.617	4.617	4.569	10.105326657104492	0.05386953735351562	-0.12988544006347655	-0.423431396484375	-2.262115478515625	-1.0986328125	9.9461122467041	0.0718260498046875	0.08080430603027343	0.732421875	-4.665374755859375	-3.2196044921875	10.281899029541014	0.4991910461425781	-0.507570751953125	2.788543701171875	-4.974365234375	-1.60980224609375	
219	0.876	0.0	0.0	0.0	0.0	4.575	4.617	4.62	4.569	9.581595043945311	0.27293898925781246	0.38845921936035155	4.024505615234375	-4.547119140625	-0.614166259765625	9.566631283569336	0.39863457641601563	0.4034229797363281	0.5645751953125	-5.02777099609375	-3.631591796875	9.686939916992188	0.2723404388427734	0.14903905334472656	2.605438232421875	-4.9285888671875	-1.86920166015625	
220	0.88	0.0	0.0	0.0	0.0	4.5600000000000005	4.617	4.614	4.578	9.891644158935547	0.36631285400390623	-0.01915361328125	-1.97601318359375	-1.880645751953125	-1.590728759765625	10.005967288208007	0.06883329772949218	-0.025737667846679687	1.003265380859375	-5.18035888671875	-2.8839111328125	9.930549935913085	0.680551821899414	-0.08379705810546874	2.31170654296875	-4.795074462890625	-1.750946044921875	
221	0.884	0.0	0.0	0.0	0.0	4.578	4.617	4.617	4.554	9.855731134033203	-0.08738836059570312	0.13946224670410157	1.3275146484375	-3.021240234375	-1.407623291015625	9.63307037963867	0.23822306518554687	0.5129577056884765	0.713348388671875	-4.779815673828125	-3.7994384765625	9.88386300354004	0.12449848632812499	0.07900865478515624	2.61688232421875	-4.5166015625	-1.987457275390625	
222	0.888	0.0	0.0	0.0	0.0	4.575	4.617	4.62	4.539	10.014346994018554	0.086191259765625	-0.055066638183593745	-0.42724609375	-2.262115478515625	-1.071929931640625	9.85094273071289	0.1562216583251953	0.1640028137207031	1.02996826171875	-5.161285400390625	-3.22723388671875	9.819818109130859	0.6787561706542968	0.062249243164062495	2.262115478515625	-4.8370361328125	-2.29644775390625	
223	0.892	0.0	0.0	0.0	0.0	4.581	4.614	4.617	4.548	9.668983404541015	0.27293898925781246	0.2723404388427734	4.215240478515625	-4.53948974609375	-0.4425048828125	9.555258825683593	0.3333925811767578	0.5033808990478515	0.446319580078125	-4.78363037109375	-3.31878662109375	9.66000514831543	0.34237083740234375	0.059256491088867186	2.262115478515625	-4.444122314453125	-1.674652099609375	
224	0.896	0.0	0.0	0.0	0.0	4.572	4.611	4.614	4.5600000000000005	9.892841259765625	0.5392939239501953	0.004189852905273437	2.109527587890625	-3.582000732421875	-1.38092041015625	9.755773214721678	0.0909796630859375	0.1771709228515625	0.385284423828125	-4.87518310546875	-3.116607666015625	10.06163247680664	0.565630142211914	-0.1801636749267578	2.32696533203125	-4.7454833984375	-1.9378662109375	
225	0.9	0.0	0.0	0.0	0.0	4.569	4.617	4.617	4.569	9.6917283203125	0.025737667846679687	0.21487959899902342	-0.8087158203125	-2.094268798828125	-2.239227294921875	9.574412438964844	0.3321954803466797	0.5285200164794922	0.640869140625	-4.871368408203125	-3.6773681640625	9.765350021362304	0.28012159423828126	-0.051475335693359374	2.353668212890625	-4.35638427734375	-1.93023681640625	
226	0.904	0.0	0.0	0.0	0.0	4.566	4.617	4.617	4.569	10.031106405639648	0.3393780853271484	0.032920272827148434	6.072998046875	-5.5389404296875	0.0	9.570821136474608	0.2759317413330078	0.5015852478027344	0.40435791015625	-5.10406494140625	-3.22723388671875	9.904213717651366	0.7188590484619141	-0.18255787658691405	2.685546875	-4.85992431640625	-1.79290771484375	
227	0.908	0.0	0.0	0.0	0.0	4.563	4.617	4.611	4.575	9.9215716796875	-0.06584054565429687	0.10474632263183593	5.908966064453125	-5.191802978515625	-0.057220458984375	9.775525378417969	0.07721300354003906	0.10654197387695312	0.28228759765625	-4.795074462890625	-3.231048583984375	9.900023864746093	0.2914940521240234	-0.27293898925781246	2.44140625	-4.573822021484375	-1.5716552734375	
228	0.912	0.0	0.0	0.0	0.0	4.575	4.617	4.617	4.548	9.823409411621093	0.6542156036376953	0.007781155395507812	6.01959228515625	-5.435943603515625	-0.49591064453125	9.694721072387695	0.1227028350830078	0.3184288208007812	0.507354736328125	-4.7760009765625	-3.299713134765625	9.897031112670899	0.38367081604003905	0.02693476867675781	2.780914306640625	-4.6234130859375	-1.82342529296875	
229	0.916	0.0	0.0	0.0	0.0	2.748	0.006	0.003	0.006	9.80724855041504	0.11611878051757812	0.2328361114501953	-0.1373291015625	-2.536773681640625	-1.598358154296875	9.588179098510741	0.2950853546142578	0.3872621185302734	0.48065185546875	-4.978179931640625	-3.520965576171875	9.683348614501952	0.49859249572753905	-0.03531447448730469	2.532958984375	-4.608154296875	-1.96075439453125	
230	0.92	0.0	0.0	0.0	0.0	0.003	0.003	0.003	0.003	9.97783541870117	0.1406593475341797	-0.09816226806640624	0.804901123046875	-3.208160400390625	-1.575469970703125	9.802460147094726	0.28730419921875	0.05566518859863281	0.362396240234375	-5.279541015625	-2.960205078125	9.83178911743164	0.4830301849365234	0.03232172241210937	2.72369384765625	-4.55474853515625	-1.583099365234375	
231	0.924	0.0	0.0	0.0	0.0	0.006	0.006	0.006	0.003	10.15680199279785	-0.017956512451171875	-0.07062894897460938	5.74493408203125	-5.08880615234375	0.392913818359375	9.764751470947266	0.13168109130859373	0.1879448303222656	0.48065185546875	-4.8065185546875	-3.509521484375	10.268730920410155	0.45070846252441404	-0.3812766143798828	2.635955810546875	-4.268646240234375	-1.434326171875	
232	0.928	0.0	0.0	0.0	0.0	0.003	0.006	0.003	0.006	9.719261639404296	0.07781155395507812	0.14006079711914063	5.962371826171875	-5.481719970703125	-0.125885009765625	9.651026892089844	0.23104046020507812	0.26815058593749996	0.308990478515625	-5.031585693359375	-2.857208251953125	9.664195001220703	0.39743747558593745	0.30885201416015623	2.69317626953125	-4.29534912109375	-1.720428466796875	
233	0.932	0.0	0.0	0.0	0.0	0.0	0.006	0.006	0.006	9.756970315551758	0.4830301849365234	0.17357962036132812	4.3792724609375	-4.4708251953125	-0.164031982421875	9.91498762512207	0.16340426330566404	-0.03531447448730469	0.70953369140625	-5.039215087890625	-2.9144287109375	10.047865817260742	0.6242880828857421	-0.29927520751953124	2.716064453125	-4.421234130859375	-1.83868408203125	
234	0.936	0.0	0.0	0.0	0.0	0.006	0.003	0.003	0.006	9.903615167236328	-0.11671733093261719	0.030526071166992186	0.1983642578125	-2.8228759765625	-1.354217529296875	9.834183319091796	0.15263035583496093	-0.05985504150390625	0.263214111328125	-4.825592041015625	-3.070831298828125	10.149020837402343	0.3477577911376953	-0.2920926025390625	2.98309326171875	-4.795074462890625	-1.73187255859375	
235	0.9400000000000001	0.0	0.0	0.0	0.0	0.003	0.006	0.006	0.006	9.935936889648437	0.18854338073730467	0.030526071166992186	1.21307373046875	-2.86865234375	-1.01470947265625	10.014945544433592	0.11013327636718749	-0.20350714111328125	0.823974609375	-5.153656005859375	-3.307342529296875	10.199299072265624	0.5027823486328125	-0.469862075805664	2.681732177734375	-4.5928955078125	-1.8157958984375	
236	0.9440000000000001	0.0	0.0	0.0	0.0	0.003	0.006	0.006	0.006	9.80006594543457	-0.1466448516845703	0.23104046020507812	4.009246826171875	-4.67681884765625	-0.324249267578125	9.706093530273437	0.4375403533935547	0.3028665100097656	0.980377197265625	-5.016326904296875	-2.87628173828125	9.932345587158203	0.4734533782958984	-0.076614453125	3.070831298828125	-4.57763671875	-1.48773193359375	
237	0.9480000000000001	0.0	0.0	0.0	0.0	0.006	0.006	0.003	0.006	10.052654220581054	-0.015562310791015624	-0.15442600708007811	-0.324249267578125	-2.5177001953125	-1.148223876953125	10.040084661865233	0.029328970336914062	-0.07841010437011718	0.957489013671875	-5.36346435546875	-2.9449462890625	10.29147583618164	0.412401235961914	-0.5087678527832031	2.986907958984375	-4.741668701171875	-1.384735107421875	
238	0.9520000000000001	0.0	0.0	0.0	0.0	0.006	0.003	0.003	0.006	9.920374578857421	-0.22505495605468748	0.02454056701660156	1.617431640625	-3.200531005859375	-0.9765625	9.82580361328125	0.30466216125488277	0.2549824768066406	0.949859619140625	-4.9285888671875	-2.87628173828125	10.098742602539062	0.32022447204589843	-0.17357962036132812	3.34930419921875	-4.909515380859375	-1.68609619140625	
239	0.9560000000000001	0.0	0.0	0.0	0.0	0.003	0.003	0.006	0.003	10.073004934692381	-0.20051438903808594	-0.17896657409667968	1.850128173828125	-3.803253173828125	-0.591278076171875	9.885658654785155	0.0652419952392578	0.03411737365722656	0.934600830078125	-5.18035888671875	-3.387451171875	10.123881719970703	0.5117606048583984	-0.3399766357421875	3.017425537109375	-4.673004150390625	-1.659393310546875	
240	0.96	0.0	0.0	0.0	0.0	0.006	0.006	0.003	0.003	9.94072529296875	-0.46148236999511716	-0.03232172241210937	1.552581787109375	-3.269195556640625	-0.736236572265625	9.737816702270507	0.430956298828125	0.33578678283691404	0.904083251953125	-4.940032958984375	-2.62451171875	9.980229620361328	0.43514615173339843	-0.04249707946777344	2.880096435546875	-4.7454833984375	-1.499176025390625	
241	0.964	0.0	0.0	0.0	0.0	0.003	0.006	0.006	0.003	9.982025271606444	0.04967968444824218	-0.06763619689941405	1.5106201171875	-3.4637451171875	-0.591278076171875	10.058041174316406	-0.07841010437011718	0.011971008300781249	1.041412353515625	-5.001068115234375	-3.452301025390625	10.370484490966795	0.373495458984375	-0.4656722229003906	2.92205810546875	-4.82940673828125	-1.636505126953125	
242	0.968	0.0	0.0	0.0	0.0	0.006	0.006	0.003	0.006	9.552266073608397	0.6171054779052734	0.48662148742675776	-1.3275146484375	-1.64794921875	-1.8157958984375	9.703100778198241	0.37708676147460934	0.31543606872558594	0.957489013671875	-5.237579345703125	-3.02886962890625	9.854534033203125	0.29269115295410153	0.13766659545898435	2.689361572265625	-4.63104248046875	-2.197265625	
243	0.972	0.0	0.0	0.0	0.0	0.003	0.003	0.003	0.003	9.925162982177733	0.3573345977783203	0.1197100830078125	0.308990478515625	-2.811431884765625	-1.251220703125	9.949703549194336	0.11851298217773437	0.09816226806640624	0.949859619140625	-5.2947998046875	-3.452301025390625	10.220846887207031	0.5961562133789062	-0.5219359619140624	3.07464599609375	-5.077362060546875	-1.827239990234375	
244	0.976	0.0	0.0	0.0	0.0	0.0	0.003	0.003	0.009000000000000001	9.763554370117188	0.4955997436523437	0.2645592834472656	1.163482666015625	-2.73895263671875	-1.38092041015625	9.764751470947266	0.4225765930175781	0.2214636535644531	0.823974609375	-4.638671875	-3.4332275390625	9.973047015380859	0.3028665100097656	0.047884033203124995	2.51007080078125	-4.7760009765625	-1.7852783203125	
245	0.98	0.0	0.0	0.0	0.0	0.003	0.003	0.006	0.003	9.906009368896484	0.24660277099609373	-0.07302315063476562	5.184173583984375	-4.69207763671875	-0.782012939453125	9.989806427001952	-0.044292730712890624	0.09516951599121093	1.117706298828125	-5.207061767578125	-3.6163330078125	9.965265859985351	0.34835634155273437	-0.1370680450439453	2.197265625	-4.863739013671875	-2.15911865234375	
246	0.984	0.0	0.0	0.0	0.0	0.003	0.006	0.006	0.006	9.65940659790039	0.5003881469726562	0.35613749694824215	0.5340576171875	-2.75421142578125	-1.613616943359375	9.595960253906249	0.5111620544433594	0.43514615173339843	0.782012939453125	-4.894256591796875	-3.3721923828125	9.789292037963866	0.42377369384765623	0.09277531433105468	2.78472900390625	-4.66156005859375	-1.895904541015625	
247	0.988	0.0	0.0	0.0	0.0	0.003	0.006	0.003	0.006	9.889848507690429	0.3058592620849609	0.05327098693847656	5.786895751953125	-5.084991455078125	-0.782012939453125	9.747393508911133	-0.011971008300781249	0.3022679595947265	-0.17547607421875	-4.985809326171875	-3.1280517578125	9.91558617553711	0.43514615173339843	-0.16998831787109375	2.460479736328125	-4.848480224609375	-2.094268798828125	
248	0.992	0.0	0.0	0.0	0.0	0.006	0.003	0.003	0.003	9.815029705810547	0.40282442932128903	0.18914193115234373	-0.286102294921875	-2.323150634765625	-1.674652099609375	9.756970315551758	0.3794809631347656	0.3124433166503906	0.66375732421875	-4.50897216796875	-3.30352783203125	9.976039767456054	0.2567781280517578	-0.004189852905273437	2.60162353515625	-4.596710205078125	-1.804351806640625	
249	0.996	0.0	0.0	0.0	0.0	0.006	0.003	0.006	0.006	9.891045608520507	0.3393780853271484	0.02633621826171875	6.99615478515625	-5.718231201171875	-0.537872314453125	9.70369932861328	0.01915361328125	0.36571430358886714	0.091552734375	-5.11932373046875	-3.1890869140625	9.871293444824218	0.40581718139648437	-0.18914193115234373	2.605438232421875	-4.726409912109375	-2.17437744140625	
250	1.0	0.0	0.0	0.0	0.0	0.003	0.003	0.003	0.003	9.874884747314452	0.09816226806640624	-0.105344873046875	3.33404541015625	-4.2877197265625	-0.6561279296875	9.67856021118164	0.3010708587646484	-0.023343466186523436	-0.049591064453125	-4.756927490234375	-3.047943115234375	9.692925421142577	0.4560954162597656	-0.03591302490234375	2.216339111328125	-4.543304443359375	-1.705169677734375	
251	1.004	0.0	0.0	0.0	0.0	0.009000000000000001	0.006	0.003	0.006	9.956886154174803	0.25139117431640623	-0.20231004028320312	7.427215576171875	-5.9051513671875	-0.5035400390625	9.840168823242188	-0.06105214233398437	0.1640028137207031	-0.4119873046875	-4.8065185546875	-2.99072265625	9.994594830322265	0.31004911499023435	-0.25258827514648435	2.506256103515625	-5.0201416015625	-2.223968505859375	
252	1.008	0.0	0.0	0.0	0.0	0.003	0.003	0.003	0.006	9.998784683227539	-0.051475335693359374	-0.28371289672851563	2.704620361328125	-3.95965576171875	-0.66375732421875	9.740809454345703	0.2603694305419922	-0.1352723937988281	0.209808349609375	-4.73785400390625	-3.078460693359375	9.792284790039062	0.421978042602539	-0.1304839904785156	2.20489501953125	-4.31060791015625	-1.781463623046875	
253	1.012	0.0	0.0	0.0	0.0	0.003	0.003	0.003	0.009000000000000001	9.847351428222655	0.22685060729980466	-0.04848258361816406	0.377655029296875	-3.299713134765625	-0.46539306640625	9.677363110351562	0.07242460021972656	-0.04967968444824218	0.2288818359375	-5.313873291015625	-2.76947021484375	9.720458740234374	0.430956298828125	0.0017956512451171875	2.849578857421875	-4.894256591796875	-1.789093017578125	
254	1.016	0.0	0.0	0.0	0.0	0.003	0.006	0.006	0.006	9.957484704589843	-0.07900865478515624	-0.1879448303222656	1.384735107421875	-3.307342529296875	-0.7476806640625	9.733028298950195	0.2166752502441406	-0.12629413757324218	-0.152587890625	-5.062103271484375	-3.0517578125	9.803058697509766	0.35314474487304687	-0.08738836059570312	2.47955322265625	-4.35638427734375	-1.789093017578125	
255	1.02	0.0	0.0	0.0	0.0	0.006	0.006	0.003	0.003	9.910797772216796	-0.6153098266601562	-0.1867477294921875	0.301361083984375	-3.231048583984375	-0.92315673828125	9.779715231323241	0.02633621826171875	-0.08738836059570312	0.48065185546875	-5.21087646484375	-3.11279296875	9.898826763916015	0.36930560607910157	-0.004189852905273437	2.704620361328125	-4.8980712890625	-1.834869384765625	
256	1.024	0.0	0.0	0.0	0.0	0.003	0.006	0.006	0.006	9.832986218261718	-0.037708676147460936	-0.012569558715820313	0.02288818359375	-2.64739990234375	-1.09100341796875	9.7928833404541	0.29269115295410153	0.15263035583496093	1.194000244140625	-4.913330078125	-3.21197509765625	10.186130963134765	0.4734533782958984	-0.39863457641601563	2.95257568359375	-4.535675048828125	-1.560211181640625	
257	1.028	0.0	0.0	0.0	0.0	0.003	0.003	0.006	0.006	9.8311905670166	-0.20649989318847656	0.10654197387695312	0.705718994140625	-3.42559814453125	-0.6561279296875	9.689334118652344	0.16879121704101563	0.07003039855957031	0.843048095703125	-5.558013916015625	-3.2806396484375	9.804255798339844	0.526125814819336	0.10354922180175781	2.43377685546875	-4.7454833984375	-1.674652099609375	
258	1.032	0.0	0.0	0.0	0.0	0.003	0.003	0.003	0.009000000000000001	9.958083255004881	0.2813186950683594	0.18435352783203124	1.93023681640625	-3.566741943359375	-0.965118408203125	9.931148486328125	0.14305354919433594	0.08259995727539061	0.9765625	-4.90570068359375	-3.185272216796875	10.346542474365235	0.31483751831054685	-0.5225345123291015	2.834320068359375	-4.29534912109375	-1.461029052734375	
259	1.036	0.0	0.0	0.0	0.0	0.009000000000000001	0.003	0.006	0.003	9.859920986938477	0.04548983154296875	0.18375497741699218	1.2969970703125	-3.3111572265625	-1.178741455078125	9.65940659790039	0.2561795776367187	0.22565350646972654	0.583648681640625	-5.05828857421875	-3.360748291015625	9.803058697509766	0.5680243438720702	0.076614453125	3.116607666015625	-4.63104248046875	-1.6937255859375	
260	1.04	0.0	0.0	0.0	0.0	0.003	0.006	0.006	0.006	9.9215716796875	0.2962824554443359	0.14903905334472656	3.12042236328125	-3.955841064453125	-0.92315673828125	9.819219558715819	0.10773907470703124	0.19153613281249998	0.896453857421875	-4.817962646484375	-3.101348876953125	10.180145458984374	0.39803602600097654	-0.43514615173339843	2.857208251953125	-4.520416259765625	-1.36566162109375	
261	1.044	0.0	0.0	0.0	0.0	0.006	0.003	0.003	0.006	9.974244116210937	-0.0526724365234375	0.001197100830078125	2.872467041015625	-3.910064697265625	-0.766754150390625	9.822212310791015	0.1693897674560547	0.4034229797363281	0.568389892578125	-5.157470703125	-3.1585693359375	10.155006341552733	0.4147954376220703	-0.2603694305419922	2.960205078125	-4.688262939453125	-1.48773193359375	
262	1.048	0.0	0.0	0.0	0.0	0.003	0.003	0.003	0.006	9.911396322631836	0.07122749938964844	-0.03890577697753906	2.9449462890625	-3.574371337890625	-0.64849853515625	9.840168823242188	0.054468087768554684	0.13108254089355467	0.5645751953125	-4.638671875	-3.10516357421875	10.211868630981444	0.32142157287597656	-0.42437224426269526	2.948760986328125	-4.21142578125	-1.598358154296875	
263	1.052	0.0	0.0	0.0	0.0	0.009000000000000001	0.003	0.006	0.006	9.566032733154296	0.5087678527832031	0.3842693664550781	2.62451171875	-3.665924072265625	-0.7171630859375	9.770736975097655	0.31543606872558594	0.35793314819335936	0.736236572265625	-5.04302978515625	-2.941131591796875	10.062829577636718	0.5345055206298828	-0.24600422058105467	3.101348876953125	-4.8828125	-1.964569091796875	
264	1.056	0.0	0.0	0.0	0.0	0.0	0.006	0.006	0.003	9.897031112670899	-0.086191259765625	-0.047285482788085934	1.22833251953125	-3.47900390625	-0.67901611328125	10.043077413940429	0.13946224670410157	-0.023942016601562498	1.148223876953125	-5.275726318359375	-3.147125244140625	10.254964260864257	0.489015689086914	-0.4285620971679687	2.92205810546875	-4.63104248046875	-1.4801025390625	
265	1.06	0.0	0.0	0.0	0.0	0.006	0.003	0.006	0.006	9.584587796020507	0.39803602600097654	0.4273649963378906	2.31170654296875	-3.459930419921875	-0.804901123046875	9.827599264526366	0.11791443176269531	0.31962592163085934	0.606536865234375	-5.04302978515625	-3.1585693359375	10.140641131591796	0.3848679168701172	-0.2819172454833984	3.0364990234375	-4.608154296875	-1.5716552734375	
266	1.064	0.0	0.0	0.0	0.0	0.003	0.006	0.006	0.003	9.877877499389648	-0.005985504150390624	0.03232172241210937	1.068115234375	-2.89154052734375	-1.331329345703125	10.037091909790039	0.35673604736328124	-0.11192892761230468	1.24359130859375	-4.93621826171875	-3.437042236328125	10.214262832641602	0.6057330200195312	-0.49320554199218747	3.093719482421875	-4.7607421875	-1.77001953125	
267	1.068	0.0	0.0	0.0	0.0	0.003	0.003	0.003	0.003	9.557653027343749	0.4632780212402344	0.40581718139648437	3.68499755859375	-4.055023193359375	-0.78582763671875	9.594164602661133	0.22385785522460935	0.46806642456054687	0.377655029296875	-4.8370361328125	-2.98309326171875	9.791087689208984	0.28431144714355466	0.06703764648437499	2.338409423828125	-4.764556884765625	-2.117156982421875	
268	1.072	0.0	0.0	0.0	0.0	0.003	0.006	0.006	0.009000000000000001	9.986215124511718	0.26336218261718747	0.008379705810546874	0.850677490234375	-2.96783447265625	-1.186370849609375	10.052055670166014	0.2705447875976562	-0.11013327636718749	1.590728759765625	-5.146026611328125	-3.07464599609375	10.28549033203125	0.48183308410644526	-0.4674678741455078	2.902984619140625	-4.47845458984375	-1.3885498046875	
269	1.076	0.0	0.0	0.0	0.0	0.003	0.003	0.006	0.006	9.591770401000977	0.3274070770263672	0.29927520751953124	4.4097900390625	-4.810333251953125	-0.518798828125	9.540295065307618	0.20470424194335937	0.4734533782958984	0.579833984375	-5.039215087890625	-3.3111572265625	9.756371765136718	0.24899697265624998	0.09696516723632811	2.41851806640625	-4.79888916015625	-2.109527587890625	
270	1.08	0.0	0.0	0.0	0.0	0.006	0.003	0.003	0.006	9.95987890625	0.41060558471679687	0.055066638183593745	0.125885009765625	-2.864837646484375	-0.99945068359375	9.847949978637695	0.29867665710449215	0.018555062866210937	0.591278076171875	-4.909515380859375	-3.108978271484375	10.18373676147461	0.59376201171875	-0.5901707092285156	2.407073974609375	-5.039215087890625	-2.166748046875	
271	1.084	0.0	0.0	0.0	0.0	0.006	0.006	0.006	0.003	9.77432827758789	0.06404489440917968	0.020949264526367185	4.436492919921875	-4.657745361328125	-0.988006591796875	9.616909518432617	0.21607669982910155	0.5033808990478515	0.37384033203125	-4.756927490234375	-3.3111572265625	9.907206469726562	0.17477672119140625	0.023942016601562498	2.552032470703125	-4.9591064453125	-1.941680908203125	
272	1.088	0.0	0.0	0.0	0.0	0.006	0.003	0.006	0.003	9.879074600219726	0.4417302062988281	0.10654197387695312	0.00762939453125	-2.54058837890625	-1.28173828125	9.805452899169921	0.1879448303222656	0.1849520782470703	0.782012939453125	-4.9591064453125	-3.15093994140625	9.885658654785155	0.5626373901367188	-0.020949264526367185	2.399444580078125	-4.60052490234375	-2.155303955078125	
273	1.092	0.0	0.0	0.0	0.0	0.006	0.003	0.003	0.003	9.728838446044922	0.2663549346923828	0.07601590270996093	3.871917724609375	-4.261016845703125	-1.12152099609375	9.534908111572266	0.229843359375	0.4112041351318359	0.118255615234375	-4.802703857421875	-3.757476806640625	9.757568865966796	0.31663316955566406	0.11731588134765625	2.44140625	-4.6234130859375	-1.97601318359375	
274	1.096	0.0	0.0	0.0	0.0	0.003	0.006	0.006	0.006	9.975441217041014	0.3603273498535156	-0.04548983154296875	0.335693359375	-2.468109130859375	-1.1138916015625	9.890447058105469	0.1466448516845703	0.06344634399414062	0.64849853515625	-4.98199462890625	-3.0059814453125	9.986215124511718	0.6278793853759765	-0.1849520782470703	2.277374267578125	-4.78363037109375	-1.918792724609375	
275	1.1	0.0	0.0	0.0	0.0	0.006	0.003	0.006	4.545	9.727641345214844	0.005985504150390624	0.08140285644531249	5.008697509765625	-4.680633544921875	-0.774383544921875	9.572018237304688	0.20949264526367187	0.37888241271972656	0.3509521484375	-4.436492919921875	-3.68499755859375	9.843760125732421	0.13826514587402344	-0.11192892761230468	2.5634765625	-4.673004150390625	-1.781463623046875	
276	1.104	0.0	0.0	0.0	0.0	4.566	4.611	4.614	4.5360000000000005	9.892242709350585	0.3238157745361328	-0.047884033203124995	3.726959228515625	-4.608154296875	-0.484466552734375	9.661800799560547	0.17657237243652343	0.11252747802734374	0.244140625	-5.3253173828125	-2.964019775390625	9.782707983398437	0.7302315063476562	0.04967968444824218	2.40325927734375	-4.993438720703125	-1.949310302734375	
277	1.108	0.0	0.0	0.0	0.0	4.569	4.614	4.617	4.551	9.791087689208984	0.10893617553710937	-0.06344634399414062	3.44085693359375	-4.192352294921875	-1.171112060546875	9.576806640625	0.2561795776367187	0.4375403533935547	0.110626220703125	-4.81414794921875	-3.482818603515625	9.789890588378906	0.22744915771484372	-0.05386953735351562	2.277374267578125	-4.451751708984375	-1.819610595703125	
278	1.112	0.0	0.0	0.0	0.0	4.575	4.605	4.614	4.557	9.98501802368164	0.29867665710449215	-0.15442600708007811	4.581451416015625	-4.878997802734375	-0.43487548828125	9.80605144958496	0.06584054565429687	-0.044891281127929686	0.362396240234375	-5.290985107421875	-3.147125244140625	9.989207876586914	0.45669396667480466	-0.12330138549804687	2.681732177734375	-4.82940673828125	-1.987457275390625	
279	1.116	0.0	0.0	0.0	0.0	4.572	4.617	4.617	4.572	9.627683425903319	0.09277531433105468	0.19991583862304688	2.048492431640625	-3.620147705078125	-0.835418701171875	9.430760339355468	0.3435679382324219	0.5009866973876953	0.392913818359375	-4.72259521484375	-3.326416015625	9.611522564697266	0.24301146850585936	0.02154781494140625	2.216339111328125	-4.5928955078125	-1.9073486328125	
280	1.12	0.0	0.0	0.0	0.0	4.566	4.617	4.617	4.575	9.996989031982421	0.4590881683349609	-0.1406593475341797	4.039764404296875	-4.50897216796875	-0.446319580078125	9.744400756835937	0.1562216583251953	0.1083376251220703	0.55694580078125	-5.229949951171875	-2.8839111328125	9.87608184814453	0.6572083557128906	-0.12150573425292968	2.69317626953125	-4.787445068359375	-1.68609619140625	
281	1.124	0.0	0.0	0.0	0.0	4.575	4.614	4.6080000000000005	4.575	9.890447058105469	-0.2771288421630859	-0.12449848632812499	1.750946044921875	-3.368377685546875	-0.537872314453125	9.93354268798828	0.13407529296874998	-0.011372457885742187	0.606536865234375	-5.008697509765625	-3.36456298828125	9.92217023010254	0.0718260498046875	-0.5758054992675781	3.07464599609375	-4.5928955078125	-1.18255615234375	
282	1.1280000000000001	0.0	0.0	0.0	0.0	4.575	4.617	4.617	4.548	9.87727894897461	0.3010708587646484	0.002992752075195312	3.108978271484375	-3.971099853515625	-0.644683837890625	9.582193594360351	0.08918401184082031	0.3489548919677734	0.28228759765625	-5.039215087890625	-3.505706787109375	9.770138424682617	0.48662148742675776	0.08559270935058594	2.590179443359375	-4.718780517578125	-2.0904541015625	
283	1.1320000000000001	0.0	0.0	0.0	0.0	4.578	4.617	4.617	4.5360000000000005	9.847351428222655	0.25139117431640623	0.15203180541992187	3.60107421875	-4.497528076171875	-0.293731689453125	9.783905084228515	0.2765302917480469	0.11671733093261719	0.553131103515625	-4.669189453125	-3.387451171875	10.192715017700195	0.6410474945068358	-0.6093243225097655	3.05938720703125	-4.75311279296875	-1.3275146484375	
284	1.1360000000000001	0.0	0.0	0.0	0.0	4.572	4.614	4.617	4.557	9.911994873046874	0.20470424194335937	0.037708676147460936	4.436492919921875	-4.6234130859375	-0.614166259765625	9.98501802368164	0.239420166015625	0.040701428222656245	0.324249267578125	-5.0811767578125	-3.082275390625	10.02332525024414	0.4626794708251953	-0.11791443176269531	2.86102294921875	-4.64630126953125	-1.83868408203125	
285	1.1400000000000001	0.0	0.0	0.0	0.0	4.575	4.617	4.62	4.566	9.813832604980469	-0.013168109130859374	0.07841010437011718	2.285003662109375	-3.2196044921875	-0.637054443359375	9.74799205932617	0.10354922180175781	0.28790274963378903	0.518798828125	-4.528045654296875	-3.42559814453125	10.254365710449218	0.3573345977783203	-0.4782417816162109	2.92205810546875	-4.489898681640625	-1.5411376953125	
286	1.1440000000000001	0.0	0.0	0.0	0.0	4.572	4.617	4.617	4.569	9.803058697509766	0.06045359191894531	0.18315642700195311	3.76129150390625	-4.619598388671875	-0.48065185546875	9.817423907470703	0.31543606872558594	0.13407529296874998	0.2593994140625	-4.863739013671875	-2.57110595703125	9.93414123840332	0.4495113616943359	-0.23523031311035156	2.979278564453125	-4.93621826171875	-2.002716064453125	
287	1.1480000000000001	0.0	0.0	0.0	0.0	4.566	4.617	0.006	0.003	9.962273107910155	0.11791443176269531	-0.08379705810546874	3.147125244140625	-4.33349609375	-0.2899169921875	10.072406384277343	0.13407529296874998	-0.2154781494140625	0.79345703125	-5.130767822265625	-3.040313720703125	10.218452685546874	0.4908113403320312	-0.40581718139648437	2.86102294921875	-4.67681884765625	-1.21307373046875	
288	1.1520000000000001	0.0	0.0	0.0	0.0	0.003	0.003	0.006	0.003	9.858723886108399	-0.022146365356445312	0.1304839904785156	3.620147705078125	-4.180908203125	-0.43487548828125	9.90900212097168	0.07122749938964844	0.051475335693359374	0.152587890625	-4.730224609375	-2.941131591796875	10.281300479125976	0.19393033447265623	-0.4327519500732422	2.910614013671875	-4.61578369140625	-1.796722412109375	
289	1.156	0.0	0.0	0.0	0.0	0.003	0.006	0.003	0.006	9.903016616821288	0.22685060729980466	0.05327098693847656	-0.278472900390625	-2.407073974609375	-1.3427734375	9.894038360595703	0.2232593048095703	-0.06105214233398437	1.03759765625	-5.1116943359375	-3.147125244140625	10.20887587890625	0.6374561920166015	-0.5051765502929687	3.16619873046875	-5.199432373046875	-1.64794921875	
290	1.16	0.0	0.0	0.0	0.0	0.003	0.006	0.003	0.003	9.758167416381836	0.07003039855957031	0.2519897247314453	2.18963623046875	-4.08172607421875	-0.48065185546875	9.64683703918457	0.49200844116210934	0.29448680419921874	0.6103515625	-5.077362060546875	-2.79998779296875	9.938331091308592	0.3890577697753906	0.15322890625	2.574920654296875	-4.734039306640625	-1.476287841796875	
291	1.164	0.0	0.0	0.0	0.0	0.003	0.006	0.006	0.003	10.111910711669921	-0.005985504150390624	-0.17477672119140625	-1.110076904296875	-2.155303955078125	-1.247406005859375	10.092158547973632	-0.025139117431640625	-0.11372457885742186	0.80108642578125	-4.6539306640625	-3.1585693359375	10.40041201171875	0.44053310546874996	-0.43933600463867184	2.44140625	-4.375457763671875	-1.903533935546875	
292	1.168	0.0	0.0	0.0	0.0	0.006	0.003	0.006	0.003	9.696516723632811	0.17956512451171874	0.3555389465332031	2.094268798828125	-3.326416015625	-1.03759765625	9.625887774658203	0.47884033203125	0.3333925811767578	0.83160400390625	-4.795074462890625	-3.131866455078125	9.803657247924804	0.2663549346923828	0.13766659545898435	2.410888671875	-4.7607421875	-1.987457275390625	
293	1.172	0.0	0.0	0.0	0.0	0.006	0.006	0.006	0.003	9.871293444824218	0.3962403747558593	0.21787235107421873	0.743865966796875	-2.90679931640625	-1.09100341796875	9.740809454345703	0.1292868896484375	0.3393780853271484	0.553131103515625	-5.2642822265625	-3.345489501953125	10.046070166015625	0.6631938598632812	-0.2867056488037109	2.742767333984375	-4.711151123046875	-1.499176025390625	
294	1.176	0.0	0.0	0.0	0.0	0.006	0.006	0.006	0.003	9.892242709350585	0.24600422058105467	0.20470424194335937	1.132965087890625	-2.948760986328125	-1.36566162109375	9.801263046264648	0.45190556335449217	0.15263035583496093	1.10626220703125	-4.9285888671875	-2.95257568359375	9.97184991455078	0.3238157745361328	0.13168109130859373	2.6092529296875	-4.791259765625	-1.644134521484375	
295	1.18	0.0	0.0	0.0	0.0	0.003	0.006	0.006	0.006	9.925162982177733	0.1322796417236328	0.07841010437011718	1.28936767578125	-3.02886962890625	-1.125335693359375	9.866505041503906	-0.07900865478515624	0.1927332336425781	0.6561279296875	-5.126953125	-3.5400390625	10.288483084106444	0.39923312683105466	-0.4381389038085937	2.11334228515625	-4.619598388671875	-1.613616943359375	
296	1.184	0.0	0.0	0.0	0.0	0.009000000000000001	0.003	0.003	0.009000000000000001	9.709086282348633	0.48722003784179685	0.37708676147460934	0.274658203125	-2.7618408203125	-1.300811767578125	9.498995086669922	0.5105635040283203	0.46627077331542965	0.61798095703125	-4.772186279296875	-3.47900390625	9.625289224243163	0.48662148742675776	0.2555810272216797	2.32696533203125	-4.5318603515625	-2.0751953125	
297	1.188	0.0	0.0	0.0	0.0	0.006	0.003	0.006	0.006	9.894038360595703	0.4129997863769531	-0.002992752075195312	6.38580322265625	-5.56182861328125	-0.54931640625	9.913790524291992	0.03411737365722656	0.19692308654785154	0.67901611328125	-5.16510009765625	-3.314971923828125	9.938331091308592	0.4495113616943359	-0.1753752716064453	2.4566650390625	-5.0811767578125	-2.0751953125	
298	1.192	0.0	0.0	0.0	0.0	0.003	0.003	0.006	0.006	9.873089096069336	0.19812018737792966	0.12569558715820311	0.896453857421875	-2.559661865234375	-1.224517822265625	9.76235726928711	0.24480711975097655	0.3315969299316406	0.370025634765625	-4.669189453125	-3.50189208984375	10.008960040283203	0.23044190979003906	0.08798691101074219	2.57110595703125	-4.970550537109375	-1.93023681640625	
299	1.196	0.0	0.0	0.0	0.0	0.003	0.003	0.006	0.0	9.835380419921874	0.3794809631347656	0.062249243164062495	6.061553955078125	-5.329132080078125	-0.766754150390625	9.706093530273437	0.16819266662597654	0.37229835815429685	0.102996826171875	-5.039215087890625	-3.337860107421875	9.792284790039062	0.42796354675292964	-0.031124621582031248	2.22015380859375	-4.5928955078125	-2.033233642578125	
300	1.2	0.0	0.0	0.0	0.0	0.009000000000000001	0.003	0.006	0.003	9.83777462158203	0.39145197143554683	0.22266075439453123	1.575469970703125	-3.25775146484375	-0.92315673828125	9.639055883789062	0.35134909362792965	0.36750995483398435	0.67138671875	-5.062103271484375	-3.1280517578125	9.619902270507811	0.5069722015380859	0.040102877807617184	2.4871826171875	-4.688262939453125	-1.64031982421875	
301	1.204	0.0	0.0	0.0	0.0	0.003	0.006	0.003	0.006	9.945513696289062	0.18076222534179687	-0.11552023010253906	6.40869140625	-5.435943603515625	-0.61798095703125	9.810241302490233	-0.02154781494140625	0.10235212097167969	-0.347137451171875	-4.787445068359375	-2.857208251953125	10.065822329711914	0.2962824554443359	-0.2861070983886719	2.47955322265625	-4.95147705078125	-2.079010009765625	
302	1.208	0.0	0.0	0.0	0.0	0.006	0.006	0.006	0.003	9.982623822021484	0.022744915771484374	-0.11731588134765625	2.361297607421875	-3.742218017578125	-0.659942626953125	9.658209497070311	0.26874913635253905	0.37229835815429685	0.423431396484375	-4.726409912109375	-3.4332275390625	9.78031378173828	0.31663316955566406	-0.03591302490234375	2.34222412109375	-4.337310791015625	-2.12860107421875	
303	1.212	0.0	0.0	0.0	0.0	0.006	0.003	0.006	0.009000000000000001	9.802460147094726	0.31483751831054685	-0.0053869537353515625	7.610321044921875	-6.191253662109375	-0.286102294921875	9.610325463867188	0.15203180541992187	0.16819266662597654	-0.00762939453125	-5.14984130859375	-3.0059814453125	9.64623848876953	0.51714755859375	0.028730419921875	2.689361572265625	-4.917144775390625	-1.6937255859375	
304	1.216	0.0	0.0	0.0	0.0	0.003	0.006	0.006	0.003	9.99220062866211	-0.02633621826171875	-0.07062894897460938	2.105712890625	-3.391265869140625	-0.5035400390625	9.850344180297851	0.11911153259277343	-0.1484405029296875	0.2593994140625	-5.146026611328125	-2.838134765625	9.817423907470703	0.26336218261718747	-0.011372457885742187	2.38037109375	-4.5623779296875	-1.739501953125	
305	1.22	0.0	0.0	0.0	0.0	0.003	0.006	0.006	0.003	9.888052856445311	-0.031124621582031248	-0.28969840087890625	0.732421875	-3.2501220703125	-0.92315673828125	9.767145672607422	-0.020949264526367185	-0.013168109130859374	-0.1373291015625	-5.0048828125	-3.040313720703125	9.944316595458984	0.3064578125	-0.025737667846679687	2.788543701171875	-4.67681884765625	-2.017974853515625	
306	1.224	0.0	0.0	0.0	0.0	0.006	0.006	0.003	0.006	9.847351428222655	-0.02154781494140625	0.0383072265625	1.50299072265625	-3.543853759765625	-0.67901611328125	9.620500820922851	0.25737667846679685	0.11372457885742186	0.682830810546875	-5.390167236328125	-3.101348876953125	9.55645592651367	0.3896563201904297	0.18854338073730467	3.063201904296875	-4.26483154296875	-1.922607421875	
307	1.228	0.0	0.0	0.0	0.0	-0.003	0.003	0.003	0.006	9.852738381958007	-0.24001871643066405	0.16041151123046873	0.713348388671875	-3.3111572265625	-0.728607177734375	9.788693487548828	0.13108254089355467	0.16639701538085935	0.8087158203125	-5.176544189453125	-3.12042236328125	9.797671743774414	0.48722003784179685	0.09157821350097656	2.4261474609375	-4.57763671875	-1.5716552734375	
