	time	dac1	dac2	dac3	dac4	adc1.3	adc2.3	adc3.3	adc4.3	imu1accx	imu1accy	imu1accz	imu1gyrox	imu1gyroy	imu1gyroz	imu2accx	imu2accy	imu2accz	imu2gyrox	imu2gyroy	imu2gyroz	imu3accx	imu3accy	imu3accz	imu3gyrox	imu3gyroy	imu3gyroz	log
0	0.0	0.0	0.0	0.0	0.0	0.003	0.006	0.003	0.006	9.853336932373047	0.15442600708007811	0.037110125732421874	2.3956298828125	-3.757476806640625	-0.698089599609375	9.783905084228515	0.19033903198242186	0.16519991455078123	0.667572021484375	-5.05828857421875	-3.406524658203125	9.955689053344726	0.4213794921875	-0.17417817077636719	2.643585205078125	-4.608154296875	-1.79290771484375	Estabizou em 10s, 2356 rpm
1	0.004	0.0	0.0	0.0	0.0	0.009000000000000001	0.003	0.006	0.006	9.852139831542969	0.15083470458984374	0.04967968444824218	2.460479736328125	-3.88336181640625	-0.743865966796875	9.777919580078125	0.1975216369628906	0.18375497741699218	0.43487548828125	-4.657745361328125	-3.093719482421875	9.958083255004881	0.41898529052734373	-0.14305354919433594	2.46429443359375	-4.627227783203125	-1.70135498046875	Started
2	0.008	0.0	0.0	0.0	0.0	0.006	0.003	0.003	0.003	9.841964474487304	0.11073182678222655	0.034715924072265626	2.277374267578125	-3.849029541015625	-0.713348388671875	9.777919580078125	0.16041151123046873	0.16041151123046873	0.530242919921875	-5.2642822265625	-3.2806396484375	9.986215124511718	0.3890577697753906	-0.1388636962890625	2.643585205078125	-4.703521728515625	-1.678466796875	IMU1|LSM6DS3|0x6A|I2C-1|±2g (±19,6m/s²)|±125º/s|400Hz
3	0.012	0.0	0.0	0.0	0.0	0.003	0.003	0.006	0.006	9.85752678527832	0.1197100830078125	0.02154781494140625	2.552032470703125	-3.849029541015625	-0.8392333984375	9.781510882568359	0.17597382202148437	0.15682020874023436	0.736236572265625	-5.016326904296875	-3.42559814453125	9.979631069946288	0.4070142822265625	-0.15682020874023436	2.826690673828125	-4.848480224609375	-1.804351806640625	IMU2|LSM6DS3|0x6B|I2C-1|±2g (±19,6m/s²)|±125º/s|400Hz
4	0.016	0.0	0.0	0.0	0.0	0.003	0.003	0.006	0.006	9.866505041503906	0.17238251953125	0.044891281127929686	2.5177001953125	-3.726959228515625	-0.865936279296875	9.780912332153319	0.2166752502441406	0.17118541870117188	0.81634521484375	-4.852294921875	-3.292083740234375	9.962273107910155	0.4590881683349609	-0.17896657409667968	2.74658203125	-4.547119140625	-1.52587890625	IMU3|LSM6DS3|0x6B|I2C-2|±2g (±19,6m/s²)|±125º/s|400Hz
5	0.02	0.0	0.0	0.0	0.0	0.006	0.006	0.003	0.006	9.87608184814453	0.1771709228515625	0.04548983154296875	2.50244140625	-3.82232666015625	-0.6866455078125	9.787496386718749	0.2280477081298828	0.16280571289062498	0.78582763671875	-5.023956298828125	-3.30352783203125	9.97783541870117	0.4704606262207031	-0.18315642700195311	2.76947021484375	-4.61578369140625	-1.575469970703125	ADC|ADS1015|0|0|1|0|±6,144 V|2400 SPS
6	0.024	0.0	0.0	0.0	0.0	0.006	0.006	0.003	0.003	9.882067352294921	0.15023615417480468	0.01915361328125	2.6702880859375	-3.66973876953125	-0.77056884765625	9.809642752075195	0.18854338073730467	0.14484920043945312	0.675201416015625	-5.0048828125	-3.170013427734375	9.993397729492187	0.4327519500732422	-0.19093758239746092	2.849578857421875	-4.75311279296875	-1.834869384765625	Gen1|Disabled
7	0.028	0.0	0.0	0.0	0.0	0.006	0.006	0.006	0.006	9.862315188598632	0.13407529296874998	0.03232172241210937	2.5787353515625	-3.65447998046875	-0.812530517578125	9.78629928588867	0.18854338073730467	0.15682020874023436	0.812530517578125	-4.917144775390625	-3.368377685546875	9.982623822021484	0.4159925384521484	-0.1927332336425781	2.67791748046875	-4.50897216796875	-1.73187255859375	Gen2|Enabled|Noise|0.0|10.0|1668
8	0.032	0.0	0.0	0.0	0.0	0.006	0.003	0.006	0.003	9.841365924072266	0.16220716247558592	0.055066638183593745	2.81524658203125	-3.7841796875	-0.782012939453125	9.770736975097655	0.21188684692382811	0.16340426330566404	0.469207763671875	-4.894256591796875	-3.154754638671875	9.962273107910155	0.4483142608642578	-0.19632453613281248	2.6702880859375	-4.72259521484375	-1.552581787109375	Gen3|Enabled|Noise|0.0|10.0|128
9	0.036000000000000004	0.0	0.0	0.0	0.0	0.006	0.006	0.003	0.006	9.853336932373047	0.16041151123046873	0.023942016601562498	2.445220947265625	-3.612518310546875	-0.728607177734375	9.784503634643555	0.2059013427734375	0.1352723937988281	0.579833984375	-5.07354736328125	-3.18145751953125	9.97783541870117	0.4381389038085937	-0.2328361114501953	2.70843505859375	-4.566192626953125	-1.819610595703125	Gen4|Enabled|Noise|0.0|10.0|128
10	0.04	0.0	0.0	0.0	0.0	0.0	0.003	0.006	0.009000000000000001	9.859322436523437	0.1610100616455078	0.025139117431640625	2.536773681640625	-3.772735595703125	-0.865936279296875	9.785102185058593	0.20350714111328125	0.1352723937988281	0.8087158203125	-5.21087646484375	-3.124237060546875	9.974244116210937	0.43454760131835934	-0.24660277099609373	2.765655517578125	-4.535675048828125	-1.77001953125	Ctrl|Disabled
11	0.044	0.0	0.0	0.0	0.0	0.006	0.003	0.006	0.006	9.85094273071289	0.15861585998535155	0.05386953735351562	2.552032470703125	-3.871917724609375	-0.858306884765625	9.783905084228515	0.20829554443359374	0.16280571289062498	0.743865966796875	-5.229949951171875	-3.223419189453125	9.961674557495117	0.43574470214843747	-0.21787235107421873	2.6397705078125	-4.749298095703125	-1.934051513671875	
12	0.048	0.0	0.0	0.0	0.0	0.003	0.006	0.003	0.006	9.861118087768554	0.14484920043945312	0.05386953735351562	2.26593017578125	-3.932952880859375	-0.77056884765625	9.787496386718749	0.18315642700195311	0.16280571289062498	0.3509521484375	-4.863739013671875	-3.08990478515625	9.993397729492187	0.42377369384765623	-0.20769699401855468	2.513885498046875	-4.6539306640625	-1.705169677734375	
13	0.052000000000000005	0.0	0.0	0.0	0.0	0.006	0.006	0.006	0.003	9.872490545654296	0.13467384338378904	0.04189852905273437	2.346038818359375	-3.658294677734375	-0.705718994140625	9.794678991699218	0.17776947326660156	0.14544775085449219	0.751495361328125	-5.0201416015625	-3.3111572265625	10.000580334472655	0.4052186309814453	-0.20350714111328125	2.66265869140625	-4.512786865234375	-1.850128173828125	
14	0.056	0.0	0.0	0.0	0.0	0.003	0.003	0.006	0.009000000000000001	9.86411083984375	0.16340426330566404	0.04668693237304687	2.41851806640625	-3.68499755859375	-0.766754150390625	9.784503634643555	0.20949264526367187	0.1592144104003906	0.457763671875	-4.8675537109375	-3.307342529296875	9.967061511230469	0.43993455505371093	-0.19692308654785154	2.689361572265625	-4.627227783203125	-1.8768310546875	
15	0.06	0.0	0.0	0.0	0.0	0.0	0.006	0.006	0.003	9.859322436523437	0.1693897674560547	0.05686228942871093	2.593994140625	-4.100799560546875	-0.873565673828125	9.78031378173828	0.21128829650878905	0.16639701538085935	0.52642822265625	-4.932403564453125	-3.18145751953125	9.973047015380859	0.4537012145996093	-0.19093758239746092	2.788543701171875	-4.528045654296875	-1.941680908203125	
16	0.064	0.0	0.0	0.0	0.0	0.003	0.006	0.003	0.006	9.861716638183593	0.12090718383789062	0.06763619689941405	2.368927001953125	-3.70025634765625	-0.911712646484375	9.780912332153319	0.16340426330566404	0.1771709228515625	0.48828125	-5.100250244140625	-3.12042236328125	9.98501802368164	0.39145197143554683	-0.16639701538085935	2.7008056640625	-4.596710205078125	-1.8310546875	
17	0.068	0.0	0.0	0.0	0.0	0.006	0.006	0.003	0.003	9.85692823486328	0.10235212097167969	0.06643909606933593	2.330780029296875	-3.814697265625	-0.988006591796875	9.785102185058593	0.14245499877929688	0.1927332336425781	0.640869140625	-4.8980712890625	-3.276824951171875	9.996989031982421	0.38786066894531246	-0.1562216583251953	2.597808837890625	-4.9285888671875	-1.811981201171875	
18	0.07200000000000001	0.0	0.0	0.0	0.0	0.003	0.003	0.006	0.003	9.855132583618163	0.11851298217773437	0.07781155395507812	2.3193359375	-3.932952880859375	-0.9613037109375	9.785102185058593	0.16460136413574217	0.22266075439453123	0.52642822265625	-5.077362060546875	-3.326416015625	9.986813674926758	0.39983167724609375	-0.1352723937988281	2.60162353515625	-4.589080810546875	-1.7852783203125	
19	0.076	0.0	0.0	0.0	0.0	0.006	0.003	0.006	0.003	9.859920986938477	0.11192892761230468	0.086191259765625	2.452850341796875	-3.757476806640625	-0.904083251953125	9.794678991699218	0.14604630126953125	0.22026655273437498	0.316619873046875	-4.8828125	-3.31878662109375	9.976638317871092	0.39983167724609375	-0.12808978881835936	2.69317626953125	-4.505157470703125	-1.636505126953125	
20	0.08	0.0	0.0	0.0	0.0	0.003	0.006	0.003	0.003	9.85094273071289	0.1005564697265625	0.08439560852050781	2.38037109375	-3.68499755859375	-0.8087158203125	9.785102185058593	0.12449848632812499	0.2154781494140625	0.782012939453125	-5.016326904296875	-3.299713134765625	9.988609326171874	0.3687070556640625	-0.11671733093261719	2.552032470703125	-4.802703857421875	-1.5716552734375	
21	0.084	0.0	0.0	0.0	0.0	0.006	0.006	0.003	0.003	9.834183319091796	0.09038111267089843	0.10295067138671875	2.4566650390625	-3.787994384765625	-0.843048095703125	9.776722479248047	0.1304839904785156	0.2316390106201172	0.415802001953125	-4.756927490234375	-3.200531005859375	9.974244116210937	0.3699041564941406	-0.09337386474609374	2.590179443359375	-4.49371337890625	-1.64031982421875	
22	0.088	0.0	0.0	0.0	0.0	0.003	0.003	0.006	0.006	9.841365924072266	0.09038111267089843	0.09457096557617187	2.712249755859375	-3.65447998046875	-0.858306884765625	9.779116680908203	0.143652099609375	0.22026655273437498	0.67138671875	-5.096435546875	-3.246307373046875	9.97783541870117	0.3752911102294922	-0.105344873046875	2.666473388671875	-4.611968994140625	-1.83868408203125	
23	0.092	0.0	0.0	0.0	0.0	0.006	0.003	0.006	0.006	9.85752678527832	0.09756371765136718	0.076614453125	2.605438232421875	-3.688812255859375	-0.92315673828125	9.779715231323241	0.1484405029296875	0.21966800231933592	0.583648681640625	-5.1116943359375	-3.299713134765625	9.98501802368164	0.3711012573242187	-0.1352723937988281	2.574920654296875	-4.604339599609375	-1.983642578125	
24	0.096	0.0	0.0	0.0	0.0	0.006	0.006	0.003	0.003	9.87009634399414	0.12449848632812499	0.0796072052001953	2.67791748046875	-3.65447998046875	-0.850677490234375	9.785102185058593	0.1580173095703125	0.19871873779296872	0.774383544921875	-5.077362060546875	-3.337860107421875	9.989806427001952	0.3938461730957031	-0.1514332550048828	2.86865234375	-4.596710205078125	-1.8768310546875	
25	0.1	0.0	0.0	0.0	0.0	0.003	0.003	0.006	0.006	9.850344180297851	0.1352723937988281	0.09038111267089843	2.483367919921875	-3.8909912109375	-1.033782958984375	9.779116680908203	0.17776947326660156	0.19871873779296872	0.415802001953125	-4.99725341796875	-3.21197509765625	9.973047015380859	0.4207809417724609	-0.15562310791015624	2.63214111328125	-4.7760009765625	-1.781463623046875	
26	0.10400000000000001	0.0	0.0	0.0	0.0	0.006	0.006	0.003	0.003	9.84435867614746	0.12509703674316405	0.08918401184082031	2.552032470703125	-3.635406494140625	-0.827789306640625	9.782707983398437	0.17118541870117188	0.18914193115234373	0.774383544921875	-5.100250244140625	-3.0975341796875	9.974244116210937	0.4052186309814453	-0.16519991455078123	2.60162353515625	-4.673004150390625	-1.82342529296875	
27	0.108	0.0	0.0	0.0	0.0	0.003	0.006	0.003	0.003	9.859322436523437	0.13407529296874998	0.08140285644531249	2.414703369140625	-3.6468505859375	-0.81634521484375	9.789890588378906	0.17836802368164062	0.17118541870117188	0.77056884765625	-5.218505859375	-3.154754638671875	9.993397729492187	0.40880993347167965	-0.19093758239746092	2.8076171875	-4.67681884765625	-1.789093017578125	
28	0.112	0.0	0.0	0.0	0.0	0.003	0.006	0.006	0.003	9.866505041503906	0.1592144104003906	0.059256491088867186	2.4261474609375	-3.810882568359375	-0.820159912109375	9.790489138793944	0.21607669982910155	0.15682020874023436	0.67901611328125	-4.7607421875	-3.326416015625	9.976638317871092	0.44412440795898434	-0.2041056915283203	2.803802490234375	-4.852294921875	-1.857757568359375	
29	0.116	0.0	0.0	0.0	0.0	0.003	0.006	0.006	0.003	9.862315188598632	0.17417817077636719	0.05566518859863281	2.5634765625	-3.719329833984375	-0.858306884765625	9.787496386718749	0.2184709014892578	0.1640028137207031	0.579833984375	-4.833221435546875	-3.10516357421875	9.977236868286132	0.4578910675048828	-0.20231004028320312	2.635955810546875	-4.734039306640625	-1.903533935546875	
30	0.12	0.0	0.0	0.0	0.0	0.006	0.003	0.003	0.006	9.865906491088866	0.15502455749511718	0.04848258361816406	2.47955322265625	-3.612518310546875	-0.78582763671875	9.788693487548828	0.1945288848876953	0.16699556579589842	0.637054443359375	-5.0811767578125	-3.337860107421875	9.988609326171874	0.4291606475830078	-0.19931728820800781	2.40325927734375	-4.45556640625	-1.750946044921875	
31	0.124	0.0	0.0	0.0	0.0	0.006	0.006	0.006	0.006	9.85692823486328	0.14484920043945312	0.06464344482421874	2.3193359375	-4.077911376953125	-0.812530517578125	9.78031378173828	0.1945288848876953	0.15682020874023436	0.64849853515625	-5.0201416015625	-3.070831298828125	9.991003527832031	0.4267664459228515	-0.19512743530273435	2.719879150390625	-4.718780517578125	-1.9683837890625	
32	0.128	0.0	0.0	0.0	0.0	0.003	0.003	0.003	0.006	9.849745629882811	0.15861585998535155	0.04548983154296875	2.7008056640625	-3.864288330078125	-0.99945068359375	9.781510882568359	0.21009119567871093	0.17178396911621094	0.545501708984375	-5.443572998046875	-3.360748291015625	9.974244116210937	0.4429273071289062	-0.18614917907714842	2.49481201171875	-4.64630126953125	-1.67083740234375	
33	0.132	0.0	0.0	0.0	0.0	0.003	0.006	0.003	0.003	9.85094273071289	0.17238251953125	0.03890577697753906	2.55584716796875	-3.864288330078125	-0.873565673828125	9.784503634643555	0.21068974609375	0.15203180541992187	0.774383544921875	-5.19561767578125	-3.34930419921875	9.975441217041014	0.4674678741455078	-0.19393033447265623	2.62451171875	-4.878997802734375	-1.789093017578125	
34	0.136	0.0	0.0	0.0	0.0	0.003	0.003	0.006	0.003	9.853336932373047	0.16998831787109375	0.031124621582031248	2.32696533203125	-3.711700439453125	-0.81634521484375	9.776722479248047	0.20829554443359374	0.15741875915527342	0.640869140625	-5.008697509765625	-3.0975341796875	9.982623822021484	0.45010991210937495	-0.19572598571777342	2.83050537109375	-4.98199462890625	-1.96075439453125	
35	0.14	0.0	0.0	0.0	0.0	0.003	0.003	0.006	0.003	9.852139831542969	0.1580173095703125	0.05027823486328125	2.376556396484375	-3.620147705078125	-0.782012939453125	9.777919580078125	0.21248539733886718	0.16759411621093748	0.408172607421875	-5.157470703125	-3.36456298828125	9.99220062866211	0.4471171600341797	-0.16998831787109375	2.765655517578125	-4.5318603515625	-1.834869384765625	
36	0.14400000000000002	0.0	0.0	0.0	0.0	0.006	0.003	0.006	0.003	9.854534033203125	0.1657984649658203	0.04668693237304687	2.330780029296875	-3.814697265625	-0.919342041015625	9.779116680908203	0.21487959899902342	0.17298106994628906	0.293731689453125	-4.99725341796875	-3.246307373046875	9.97783541870117	0.4531026641845703	-0.16519991455078123	2.83050537109375	-4.772186279296875	-1.739501953125	
37	0.148	0.0	0.0	0.0	0.0	0.0	0.006	0.003	0.003	9.867103591918944	0.16879121704101563	0.034715924072265626	2.483367919921875	-3.795623779296875	-0.690460205078125	9.784503634643555	0.22505495605468748	0.16220716247558592	0.499725341796875	-4.8065185546875	-3.25775146484375	9.98501802368164	0.4531026641845703	-0.17597382202148437	2.407073974609375	-4.695892333984375	-1.99127197265625	
38	0.152	0.0	0.0	0.0	0.0	0.006	0.003	0.003	0.003	9.862315188598632	0.18076222534179687	0.022146365356445312	2.666473388671875	-3.871917724609375	-0.66375732421875	9.789890588378906	0.23642741394042968	0.1693897674560547	0.553131103515625	-4.99725341796875	-3.143310546875	9.987412225341796	0.4608838195800781	-0.1771709228515625	2.60162353515625	-4.657745361328125	-1.67083740234375	
39	0.156	0.0	0.0	0.0	0.0	0.003	0.003	0.003	0.003	9.864709390258788	0.17178396911621094	0.020949264526367185	2.819061279296875	-3.71551513671875	-0.946044921875	9.78629928588867	0.21727380065917967	0.17417817077636719	0.67901611328125	-4.90570068359375	-3.192901611328125	9.97783541870117	0.4584896179199218	-0.1753752716064453	2.7618408203125	-4.718780517578125	-1.956939697265625	
40	0.16	0.0	0.0	0.0	0.0	0.0	0.003	0.003	0.003	9.861716638183593	0.17118541870117188	0.02154781494140625	2.590179443359375	-3.826141357421875	-0.881195068359375	9.789890588378906	0.20829554443359374	0.1640028137207031	0.743865966796875	-5.11932373046875	-3.23486328125	9.981426721191406	0.4429273071289062	-0.18435352783203124	2.532958984375	-4.61578369140625	-1.766204833984375	
41	0.164	0.0	0.0	0.0	0.0	0.003	0.003	0.006	0.006	9.85692823486328	0.17178396911621094	0.016759411621093748	2.590179443359375	-3.73077392578125	-0.873565673828125	9.783306533813477	0.21966800231933592	0.16041151123046873	0.89263916015625	-5.02777099609375	-3.21197509765625	9.983820922851562	0.4578910675048828	-0.20829554443359374	2.651214599609375	-4.573822021484375	-1.8768310546875	
42	0.168	0.0	0.0	0.0	0.0	0.003	0.006	0.006	0.006	9.861716638183593	0.18375497741699218	0.013766659545898436	2.475738525390625	-3.734588623046875	-1.026153564453125	9.782109432983399	0.23822306518554687	0.1514332550048828	0.720977783203125	-4.87518310546875	-3.19671630859375	9.974244116210937	0.4638765716552734	-0.20171148986816406	2.777099609375	-4.638671875	-1.7547607421875	
43	0.17200000000000001	0.0	0.0	0.0	0.0	-0.003	0.003	0.006	0.003	9.864709390258788	0.18734627990722655	0.023343466186523436	2.52532958984375	-3.70025634765625	-0.881195068359375	9.791087689208984	0.23642741394042968	0.1352723937988281	0.74005126953125	-5.313873291015625	-3.299713134765625	9.97903251953125	0.47105917663574215	-0.23104046020507812	2.620697021484375	-4.50897216796875	-1.865386962890625	
44	0.176	0.0	0.0	0.0	0.0	0.003	0.006	0.003	0.003	9.866505041503906	0.1801636749267578	0.014963760375976562	2.315521240234375	-3.47900390625	-0.7476806640625	9.78629928588867	0.23702596435546874	0.1274912384033203	0.81634521484375	-5.123138427734375	-3.326416015625	9.974244116210937	0.469263525390625	-0.2442085693359375	2.76947021484375	-4.70733642578125	-1.827239990234375	
45	0.18	0.0	0.0	0.0	0.0	0.015	0.003	0.003	0.009000000000000001	9.853336932373047	0.19093758239746092	0.022146365356445312	2.58636474609375	-4.077911376953125	-0.823974609375	9.785102185058593	0.229843359375	0.13168109130859373	0.499725341796875	-4.82940673828125	-3.1585693359375	9.966462960815429	0.4644751220703125	-0.2262520568847656	2.666473388671875	-4.543304443359375	-1.827239990234375	
46	0.184	0.0	0.0	0.0	0.0	0.003	0.003	0.006	0.006	9.849147079467773	0.1945288848876953	0.017956512451171875	2.3651123046875	-3.719329833984375	-0.79345703125	9.789890588378906	0.2316390106201172	0.12210428466796874	0.629425048828125	-5.18035888671875	-3.16619873046875	9.982623822021484	0.47764323120117186	-0.2424129180908203	2.643585205078125	-4.547119140625	-1.64031982421875	
47	0.188	0.0	0.0	0.0	0.0	0.003	0.003	0.003	0.006	9.86411083984375	0.18614917907714842	0.013168109130859374	2.429962158203125	-3.77655029296875	-0.83160400390625	9.787496386718749	0.23882161560058593	0.1274912384033203	0.476837158203125	-5.01251220703125	-3.326416015625	9.988609326171874	0.47644613037109373	-0.2292448089599609	2.81524658203125	-4.60052490234375	-2.048492431640625	
48	0.192	0.0	0.0	0.0	0.0	0.006	0.003	0.003	0.006	9.861118087768554	0.17597382202148437	0.037110125732421874	2.35748291015625	-3.7384033203125	-0.789642333984375	9.779116680908203	0.22266075439453123	0.14125789794921875	0.698089599609375	-4.856109619140625	-3.284454345703125	9.986215124511718	0.45669396667480466	-0.22864625854492185	2.716064453125	-4.703521728515625	-1.83868408203125	
49	0.196	0.0	0.0	0.0	0.0	0.003	0.003	0.006	0.003	9.861716638183593	0.15861585998535155	0.03651157531738281	2.559661865234375	-3.795623779296875	-0.659942626953125	9.783905084228515	0.20231004028320312	0.14784195251464843	0.225067138671875	-5.02777099609375	-3.27301025390625	9.97843396911621	0.44113165588378905	-0.21068974609375	2.941131591796875	-4.669189453125	-1.739501953125	
50	0.2	0.0	0.0	0.0	0.0	0.003	0.003	0.003	0.003	9.854534033203125	0.1388636962890625	0.04967968444824218	2.6092529296875	-3.650665283203125	-0.72479248046875	9.783306533813477	0.19213468322753904	0.15502455749511718	0.63323974609375	-5.237579345703125	-3.1890869140625	9.97184991455078	0.42437224426269526	-0.1945288848876953	2.696990966796875	-4.695892333984375	-2.01416015625	
51	0.20400000000000001	0.0	0.0	0.0	0.0	0.009000000000000001	0.006	0.006	0.006	9.861716638183593	0.1322796417236328	0.04908113403320312	2.3345947265625	-3.7689208984375	-0.54168701171875	9.785102185058593	0.17597382202148437	0.16699556579589842	0.40435791015625	-5.046844482421875	-3.475189208984375	9.977236868286132	0.41958384094238277	-0.16340426330566404	2.681732177734375	-4.840850830078125	-1.83868408203125	
52	0.20800000000000002	0.0	0.0	0.0	0.0	0.006	0.006	0.003	0.006	9.865307940673828	0.13168109130859373	0.05386953735351562	2.262115478515625	-3.8909912109375	-0.812530517578125	9.789890588378906	0.1771709228515625	0.16879121704101563	0.55694580078125	-4.8828125	-3.139495849609375	9.970652813720703	0.41419688720703124	-0.1693897674560547	2.521514892578125	-4.53948974609375	-1.926422119140625	
53	0.212	0.0	0.0	0.0	0.0	0.003	0.003	0.006	0.003	9.86291373901367	0.11372457885742186	0.06763619689941405	2.552032470703125	-4.03594970703125	-0.8544921875	9.779116680908203	0.16160861206054686	0.19572598571777342	0.6866455078125	-5.290985107421875	-3.170013427734375	9.974244116210937	0.40222587890625	-0.16220716247558592	2.437591552734375	-4.848480224609375	-1.861572265625	
54	0.216	0.0	0.0	0.0	0.0	0.003	0.003	0.003	0.003	9.861716638183593	0.0939724151611328	0.06584054565429687	2.452850341796875	-3.833770751953125	-0.885009765625	9.779116680908203	0.13347674255371092	0.19931728820800781	0.4119873046875	-5.176544189453125	-3.2958984375	9.980229620361328	0.3800795135498047	-0.13646949462890623	2.643585205078125	-4.8370361328125	-1.720428466796875	
55	0.22	0.0	0.0	0.0	0.0	0.003	0.003	0.003	0.006	9.861716638183593	0.10175357055664062	0.07302315063476562	2.628326416015625	-3.41796875	-0.83160400390625	9.787496386718749	0.14724340209960937	0.19991583862304688	0.51116943359375	-4.924774169921875	-3.162384033203125	9.981426721191406	0.37828386230468747	-0.14305354919433594	2.750396728515625	-4.60052490234375	-1.82342529296875	
56	0.224	0.0	0.0	0.0	0.0	0.009000000000000001	0.003	0.006	0.003	9.853935482788085	0.09636661682128905	0.06584054565429687	2.4871826171875	-3.8909912109375	-0.766754150390625	9.785102185058593	0.14604630126953125	0.19991583862304688	0.92315673828125	-5.18035888671875	-3.31878662109375	9.974244116210937	0.38307226562499996	-0.12629413757324218	2.72369384765625	-4.63104248046875	-1.796722412109375	
57	0.228	0.0	0.0	0.0	0.0	0.006	0.003	0.003	0.003	9.860519537353515	0.09337386474609374	0.07781155395507812	2.613067626953125	-3.8299560546875	-0.86212158203125	9.783905084228515	0.13826514587402344	0.1897404815673828	0.8087158203125	-5.07354736328125	-3.307342529296875	9.986813674926758	0.3764882110595703	-0.13946224670410157	2.74658203125	-4.795074462890625	-1.74713134765625	
58	0.232	0.0	0.0	0.0	0.0	0.003	0.003	0.003	0.006	9.850344180297851	0.08678981018066406	0.08200140686035155	2.52532958984375	-3.85284423828125	-0.92315673828125	9.788693487548828	0.13587094421386717	0.1927332336425781	0.629425048828125	-4.970550537109375	-3.276824951171875	9.980828170776366	0.3806780639648437	-0.1466448516845703	2.735137939453125	-4.7149658203125	-1.857757568359375	
59	0.23600000000000002	0.0	0.0	0.0	0.0	0.006	0.003	0.006	0.003	9.852139831542969	0.0939724151611328	0.07003039855957031	2.506256103515625	-3.940582275390625	-0.87738037109375	9.78629928588867	0.1322796417236328	0.1897404815673828	0.7171630859375	-4.8980712890625	-3.0364990234375	9.989806427001952	0.3705027069091797	-0.15083470458984374	2.69317626953125	-4.741668701171875	-1.766204833984375	
60	0.24	0.0	0.0	0.0	0.0	0.003	0.006	0.006	0.006	9.852139831542969	0.10115502014160156	0.06404489440917968	2.655029296875	-3.83758544921875	-0.820159912109375	9.782707983398437	0.14125789794921875	0.16699556579589842	0.55694580078125	-4.8370361328125	-3.101348876953125	9.983820922851562	0.38307226562499996	-0.16699556579589842	2.925872802734375	-4.558563232421875	-1.804351806640625	
61	0.244	0.0	0.0	0.0	0.0	0.006	0.003	0.003	0.006	9.86411083984375	0.11192892761230468	0.05805939025878906	2.323150634765625	-3.7078857421875	-0.843048095703125	9.78629928588867	0.14604630126953125	0.17118541870117188	0.69427490234375	-5.077362060546875	-3.25775146484375	9.986813674926758	0.3854664672851562	-0.1849520782470703	2.60162353515625	-4.665374755859375	-1.678466796875	
62	0.248	0.0	0.0	0.0	0.0	0.006	0.003	0.006	0.006	9.865307940673828	0.105344873046875	0.06823474731445311	2.40325927734375	-3.475189208984375	-0.78582763671875	9.785102185058593	0.15203180541992187	0.18734627990722655	0.6866455078125	-4.856109619140625	-3.2501220703125	9.987412225341796	0.3890577697753906	-0.1879448303222656	2.92205810546875	-4.726409912109375	-1.613616943359375	
63	0.252	0.0	0.0	0.0	0.0	0.006	0.006	0.006	0.003	9.858125335693359	0.10714052429199218	0.0796072052001953	2.54058837890625	-3.673553466796875	-0.812530517578125	9.783905084228515	0.15382745666503905	0.17477672119140625	0.7171630859375	-5.157470703125	-3.12042236328125	9.984419473266602	0.38187516479492184	-0.18375497741699218	2.597808837890625	-4.57000732421875	-1.60980224609375	
64	0.256	0.0	0.0	0.0	0.0	0.006	0.003	0.003	0.006	9.846154327392577	0.10714052429199218	0.06883329772949218	2.506256103515625	-4.039764404296875	-0.698089599609375	9.784503634643555	0.15322890625	0.1801636749267578	0.78582763671875	-5.11932373046875	-3.22723388671875	9.98501802368164	0.3842693664550781	-0.19213468322753904	2.773284912109375	-4.69970703125	-1.789093017578125	
65	0.26	0.0	0.0	0.0	0.0	0.003	0.006	0.003	0.006	9.854534033203125	0.12449848632812499	0.06404489440917968	2.6092529296875	-3.894805908203125	-0.743865966796875	9.787496386718749	0.15382745666503905	0.16998831787109375	0.362396240234375	-5.126953125	-3.27301025390625	9.983222372436522	0.3962403747558593	-0.1975216369628906	2.4566650390625	-4.604339599609375	-1.766204833984375	
66	0.264	0.0	0.0	0.0	0.0	0.006	0.003	0.003	0.003	9.855731134033203	0.1274912384033203	0.06823474731445311	2.429962158203125	-3.604888916015625	-0.63323974609375	9.78629928588867	0.16460136413574217	0.1753752716064453	0.78582763671875	-4.82177734375	-3.173828125	9.977236868286132	0.4010287780761719	-0.1945288848876953	2.0599365234375	-4.505157470703125	-1.52587890625	
67	0.268	0.0	0.0	0.0	0.0	0.0	0.003	0.003	0.003	9.853336932373047	0.12330138549804687	0.07541735229492187	2.506256103515625	-3.82232666015625	-0.84686279296875	9.781510882568359	0.1693897674560547	0.17657237243652343	0.659942626953125	-4.92095947265625	-3.192901611328125	9.980229620361328	0.4159925384521484	-0.1771709228515625	2.666473388671875	-4.787445068359375	-1.739501953125	
68	0.272	0.0	0.0	0.0	0.0	0.003	0.003	0.006	0.006	9.855731134033203	0.12868833923339842	0.05626373901367187	2.37274169921875	-3.875732421875	-0.827789306640625	9.785700735473633	0.16699556579589842	0.18555062866210936	0.431060791015625	-4.84466552734375	-2.960205078125	9.984419473266602	0.4064157318115234	-0.17776947326660156	2.6092529296875	-4.779815673828125	-1.80816650390625	
69	0.276	0.0	0.0	0.0	0.0	0.009000000000000001	0.006	0.003	0.003	9.865307940673828	0.1352723937988281	0.0526724365234375	2.559661865234375	-3.8299560546875	-0.804901123046875	9.785700735473633	0.16998831787109375	0.1897404815673828	0.457763671875	-5.1422119140625	-3.215789794921875	9.980828170776366	0.4052186309814453	-0.15861585998535155	2.544403076171875	-4.436492919921875	-1.8310546875	
70	0.28	0.0	0.0	0.0	0.0	0.003	0.003	0.006	0.003	9.858723886108399	0.14903905334472656	0.04129997863769531	2.685546875	-3.7841796875	-0.823974609375	9.787496386718749	0.18854338073730467	0.18315642700195311	0.518798828125	-5.0506591796875	-3.36456298828125	9.97184991455078	0.42317514343261714	-0.15562310791015624	2.69317626953125	-4.970550537109375	-1.922607421875	
71	0.28400000000000003	0.0	0.0	0.0	0.0	0.006	0.006	0.006	0.003	9.859322436523437	0.15083470458984374	0.051475335693359374	2.38037109375	-3.780364990234375	-0.8087158203125	9.785102185058593	0.1867477294921875	0.181959326171875	0.42724609375	-4.90570068359375	-3.08990478515625	9.975441217041014	0.430956298828125	-0.16340426330566404	2.536773681640625	-4.657745361328125	-1.7852783203125	
72	0.28800000000000003	0.0	0.0	0.0	0.0	0.006	0.003	0.003	0.0	9.850344180297851	0.14963760375976562	0.04848258361816406	2.620697021484375	-3.85284423828125	-0.896453857421875	9.787496386718749	0.18734627990722655	0.17836802368164062	0.762939453125	-5.08880615234375	-3.2806396484375	9.982025271606444	0.4285620971679687	-0.1610100616455078	2.7618408203125	-4.6234130859375	-1.850128173828125	
73	0.292	0.0	0.0	0.0	0.0	0.003	0.006	0.003	0.003	9.852139831542969	0.1640028137207031	0.04189852905273437	2.50244140625	-4.12750244140625	-0.9613037109375	9.785102185058593	0.1975216369628906	0.1753752716064453	0.682830810546875	-5.001068115234375	-3.185272216796875	9.981426721191406	0.4387374542236328	-0.1657984649658203	2.83050537109375	-4.55474853515625	-1.739501953125	
74	0.296	0.0	0.0	0.0	0.0	0.006	0.003	0.003	0.006	9.858125335693359	0.17058686828613281	0.04608838195800781	2.353668212890625	-3.71551513671875	-0.896453857421875	9.785102185058593	0.2154781494140625	0.1592144104003906	0.766754150390625	-4.962921142578125	-3.246307373046875	9.986215124511718	0.44532150878906246	-0.16160861206054686	2.643585205078125	-4.81414794921875	-1.682281494140625	
75	0.3	0.0	0.0	0.0	0.0	0.006	0.006	0.006	0.003	9.86411083984375	0.181959326171875	0.037110125732421874	2.574920654296875	-3.910064697265625	-0.7781982421875	9.78629928588867	0.2214636535644531	0.1610100616455078	0.74005126953125	-5.1116943359375	-3.017425537109375	9.97125136413574	0.4572925170898437	-0.1867477294921875	2.758026123046875	-4.8828125	-1.74713134765625	
76	0.304	0.0	0.0	0.0	0.0	0.003	0.006	0.003	0.006	9.855731134033203	0.19871873779296872	0.029328970336914062	2.3651123046875	-3.83758544921875	-0.690460205078125	9.783905084228515	0.2376245147705078	0.15322890625	0.713348388671875	-5.18798828125	-3.3416748046875	9.982623822021484	0.47165772705078124	-0.18914193115234373	2.590179443359375	-4.711151123046875	-1.682281494140625	
77	0.308	0.0	0.0	0.0	0.0	0.003	0.003	0.006	0.006	9.859322436523437	0.2088940948486328	0.04249707946777344	2.7313232421875	-4.00543212890625	-0.789642333984375	9.782109432983399	0.2424129180908203	0.14185644836425781	0.66375732421875	-5.01251220703125	-3.269195556640625	9.977236868286132	0.4896142395019531	-0.20470424194335937	2.7923583984375	-4.425048828125	-1.674652099609375	
78	0.312	0.0	0.0	0.0	0.0	0.006	0.003	0.003	0.003	9.85632968444824	0.2184709014892578	0.03172317199707031	2.552032470703125	-3.711700439453125	-0.78582763671875	9.777919580078125	0.2442085693359375	0.14604630126953125	0.77056884765625	-5.0506591796875	-3.23486328125	9.973047015380859	0.48063598327636714	-0.20530279235839843	2.655029296875	-4.638671875	-1.59454345703125	
79	0.316	0.0	0.0	0.0	0.0	0.003	0.006	0.003	0.006	9.861716638183593	0.21248539733886718	0.03172317199707031	2.552032470703125	-3.88336181640625	-0.644683837890625	9.785102185058593	0.2555810272216797	0.13826514587402344	0.41961669921875	-5.001068115234375	-3.12042236328125	9.980229620361328	0.4991910461425781	-0.22385785522460935	2.605438232421875	-4.711151123046875	-1.750946044921875	
80	0.32	0.0	0.0	0.0	0.0	0.003	0.003	0.006	0.003	9.85752678527832	0.21487959899902342	0.03890577697753906	2.49481201171875	-3.82232666015625	-0.9918212890625	9.785700735473633	0.2615665313720703	0.14484920043945312	0.54168701171875	-4.901885986328125	-3.2196044921875	9.97903251953125	0.49859249572753905	-0.22744915771484372	2.666473388671875	-4.535675048828125	-1.80816650390625	
81	0.324	0.0	0.0	0.0	0.0	0.003	0.003	0.003	0.006	9.853336932373047	0.21607669982910155	0.0383072265625	2.197265625	-3.993988037109375	-0.9613037109375	9.787496386718749	0.25797522888183594	0.1484405029296875	0.728607177734375	-5.13458251953125	-3.131866455078125	9.977236868286132	0.5015852478027344	-0.22505495605468748	2.674102783203125	-4.787445068359375	-1.8768310546875	
82	0.328	0.0	0.0	0.0	0.0	0.006	0.006	0.006	0.003	9.85632968444824	0.20769699401855468	0.028730419921875	2.521514892578125	-4.08935546875	-0.87738037109375	9.782707983398437	0.25139117431640623	0.143652099609375	0.713348388671875	-5.100250244140625	-3.01361083984375	9.974842666625976	0.4848258361816406	-0.2232593048095703	2.7313232421875	-4.489898681640625	-1.77001953125	
83	0.332	0.0	0.0	0.0	0.0	0.006	0.006	0.006	0.003	9.853336932373047	0.1945288848876953	0.0383072265625	2.3040771484375	-3.79180908203125	-0.896453857421875	9.784503634643555	0.2507926239013672	0.15083470458984374	0.644683837890625	-4.924774169921875	-3.116607666015625	9.980229620361328	0.4800374328613281	-0.2184709014892578	2.532958984375	-4.817962646484375	-1.857757568359375	
84	0.336	0.0	0.0	0.0	0.0	0.006	0.003	0.006	0.006	9.843760125732421	0.19153613281249998	0.044292730712890624	2.38800048828125	-3.711700439453125	-0.957489013671875	9.776123928833007	0.24839842224121092	0.15502455749511718	0.782012939453125	-4.913330078125	-3.368377685546875	9.974842666625976	0.4740519287109375	-0.19812018737792966	2.536773681640625	-4.8065185546875	-1.82342529296875	
85	0.34	0.0	0.0	0.0	0.0	0.0	0.003	0.006	0.006	9.85094273071289	0.17956512451171874	0.05087678527832031	2.422332763671875	-3.84521484375	-0.675201416015625	9.78031378173828	0.23044190979003906	0.16819266662597654	0.61798095703125	-4.833221435546875	-3.223419189453125	9.975441217041014	0.4656722229003906	-0.17597382202148437	2.41851806640625	-4.6539306640625	-1.8157958984375	
86	0.34400000000000003	0.0	0.0	0.0	0.0	0.006	0.003	0.003	0.006	9.85692823486328	0.17118541870117188	0.04967968444824218	2.307891845703125	-3.925323486328125	-0.957489013671875	9.783306533813477	0.21128829650878905	0.17058686828613281	0.751495361328125	-4.817962646484375	-3.253936767578125	9.980229620361328	0.4572925170898437	-0.1693897674560547	2.651214599609375	-4.638671875	-1.796722412109375	
87	0.34800000000000003	0.0	0.0	0.0	0.0	0.003	0.003	0.006	0.003	9.85692823486328	0.1610100616455078	0.04908113403320312	2.471923828125	-3.753662109375	-0.888824462890625	9.785102185058593	0.20231004028320312	0.19333178405761717	0.9918212890625	-5.191802978515625	-3.39508056640625	9.983820922851562	0.43993455505371093	-0.16819266662597654	2.61688232421875	-4.703521728515625	-1.7852783203125	
88	0.352	0.0	0.0	0.0	0.0	0.006	0.003	0.003	0.006	9.860519537353515	0.15562310791015624	0.05566518859863281	2.361297607421875	-3.4942626953125	-0.67901611328125	9.78629928588867	0.18914193115234373	0.18255787658691405	0.54168701171875	-5.062103271484375	-3.215789794921875	9.992799179077148	0.4333505004882812	-0.14604630126953125	2.70843505859375	-4.7454833984375	-1.560211181640625	
89	0.356	0.0	0.0	0.0	0.0	0.006	0.006	0.003	0.006	9.853336932373047	0.1406593475341797	0.062249243164062495	2.29644775390625	-3.704071044921875	-0.84686279296875	9.785102185058593	0.18076222534179687	0.18614917907714842	0.83160400390625	-5.107879638671875	-3.25775146484375	9.986813674926758	0.411802685546875	-0.14724340209960937	2.780914306640625	-4.66156005859375	-1.850128173828125	
90	0.36	0.0	0.0	0.0	0.0	0.003	0.003	0.006	0.006	9.852738381958007	0.1322796417236328	0.05746083984375	2.64739990234375	-3.902435302734375	-0.850677490234375	9.785700735473633	0.17657237243652343	0.1801636749267578	0.423431396484375	-4.764556884765625	-3.1280517578125	9.986813674926758	0.4159925384521484	-0.14784195251464843	2.681732177734375	-4.680633544921875	-1.7852783203125	
91	0.364	0.0	0.0	0.0	0.0	0.012	0.006	0.003	0.003	9.85752678527832	0.1197100830078125	0.05985504150390625	2.655029296875	-3.620147705078125	-0.84686279296875	9.779715231323241	0.16699556579589842	0.18614917907714842	0.61798095703125	-5.13458251953125	-3.27301025390625	9.979631069946288	0.4070142822265625	-0.143652099609375	2.67791748046875	-4.63104248046875	-1.83868408203125	
92	0.368	0.0	0.0	0.0	0.0	0.003	0.003	0.003	0.006	9.855132583618163	0.1149216796875	0.06105214233398437	2.54058837890625	-3.757476806640625	-0.96893310546875	9.780912332153319	0.1562216583251953	0.1801636749267578	0.457763671875	-5.1727294921875	-2.9144287109375	9.98501802368164	0.39324762268066404	-0.1466448516845703	2.72369384765625	-4.749298095703125	-1.79290771484375	
93	0.372	0.0	0.0	0.0	0.0	0.003	0.003	0.006	0.003	9.859920986938477	0.11073182678222655	0.05805939025878906	2.685546875	-3.56292724609375	-0.93841552734375	9.791087689208984	0.14425065002441406	0.1771709228515625	0.8392333984375	-4.93621826171875	-3.353118896484375	9.988010775756836	0.3902548706054687	-0.16639701538085935	2.89154052734375	-4.791259765625	-1.79290771484375	
94	0.376	0.0	0.0	0.0	0.0	0.003	0.006	0.003	0.003	9.855132583618163	0.12210428466796874	0.05686228942871093	2.620697021484375	-3.749847412109375	-0.762939453125	9.791087689208984	0.15083470458984374	0.17836802368164062	0.087738037109375	-4.9285888671875	-2.960205078125	9.983820922851562	0.3854664672851562	-0.17238251953125	2.780914306640625	-4.76837158203125	-1.972198486328125	
95	0.38	0.0	0.0	0.0	0.0	0.003	0.003	0.006	0.006	9.848548529052733	0.11192892761230468	0.06823474731445311	2.384185791015625	-3.696441650390625	-0.713348388671875	9.783905084228515	0.14544775085449219	0.16819266662597654	0.5950927734375	-5.06591796875	-3.18145751953125	9.983820922851562	0.3860650177001953	-0.18136077575683593	2.87628173828125	-4.673004150390625	-1.76239013671875	
96	0.384	0.0	0.0	0.0	0.0	0.006	0.003	0.003	0.003	9.849147079467773	0.10295067138671875	0.061650692749023434	2.567291259765625	-3.795623779296875	-0.957489013671875	9.78629928588867	0.1388636962890625	0.17178396911621094	0.736236572265625	-5.25665283203125	-3.18145751953125	9.97903251953125	0.38666356811523434	-0.18435352783203124	2.468109130859375	-4.894256591796875	-1.6937255859375	
97	0.388	0.0	0.0	0.0	0.0	0.006	0.006	0.003	0.003	9.855132583618163	0.10295067138671875	0.05386953735351562	2.13623046875	-3.63922119140625	-0.720977783203125	9.782109432983399	0.14006079711914063	0.1657984649658203	0.499725341796875	-4.8370361328125	-3.131866455078125	9.982623822021484	0.38367081604003905	-0.18435352783203124	2.54058837890625	-4.5318603515625	-1.71661376953125	
98	0.392	0.0	0.0	0.0	0.0	0.006	0.003	0.003	0.003	9.86351228942871	0.10235212097167969	0.05686228942871093	2.73895263671875	-3.753662109375	-0.8087158203125	9.787496386718749	0.14006079711914063	0.16879121704101563	0.812530517578125	-5.138397216796875	-3.223419189453125	9.983820922851562	0.37768531188964843	-0.19512743530273435	2.87628173828125	-4.6844482421875	-1.74713134765625	
99	0.396	0.0	0.0	0.0	0.0	0.003	0.003	0.006	0.006	9.871293444824218	0.09576806640624999	0.052073886108398436	2.40325927734375	-3.902435302734375	-0.99945068359375	9.788693487548828	0.13287819213867186	0.16819266662597654	0.514984130859375	-4.932403564453125	-3.284454345703125	9.983820922851562	0.3633201019287109	-0.19393033447265623	2.582550048828125	-4.604339599609375	-1.842498779296875	
100	0.4	0.0	0.0	0.0	0.0	0.006	0.006	0.006	0.006	9.86351228942871	0.09038111267089843	0.055066638183593745	2.483367919921875	-3.8909912109375	-0.89263916015625	9.783905084228515	0.13646949462890623	0.16220716247558592	0.446319580078125	-4.894256591796875	-3.101348876953125	9.988609326171874	0.354341845703125	-0.18255787658691405	2.696990966796875	-4.64630126953125	-1.644134521484375	
101	0.404	0.0	0.0	0.0	0.0	0.003	0.006	0.006	0.006	9.865307940673828	0.08379705810546874	0.059256491088867186	2.529144287109375	-3.814697265625	-0.80108642578125	9.785102185058593	0.13347674255371092	0.17118541870117188	0.408172607421875	-5.10406494140625	-3.02886962890625	9.980229620361328	0.36272155151367186	-0.1867477294921875	2.54058837890625	-4.5318603515625	-1.89971923828125	
102	0.40800000000000003	0.0	0.0	0.0	0.0	0.003	0.006	0.003	0.003	9.864709390258788	0.09337386474609374	0.059256491088867186	2.445220947265625	-3.753662109375	-1.049041748046875	9.784503634643555	0.12988544006347655	0.17058686828613281	0.3662109375	-4.87518310546875	-3.345489501953125	9.974842666625976	0.3711012573242187	-0.1801636749267578	2.58636474609375	-4.604339599609375	-1.74713134765625	
103	0.41200000000000003	0.0	0.0	0.0	0.0	0.003	0.003	0.003	0.006	9.85752678527832	0.09995791931152344	0.044292730712890624	2.574920654296875	-3.95965576171875	-0.919342041015625	9.783905084228515	0.14305354919433594	0.17238251953125	0.400543212890625	-4.878997802734375	-3.101348876953125	9.97903251953125	0.38845921936035155	-0.17836802368164062	2.6092529296875	-4.79888916015625	-1.926422119140625	
104	0.41600000000000004	0.0	0.0	0.0	0.0	0.006	0.003	0.003	0.003	9.860519537353515	0.09935936889648436	0.04369418029785156	2.407073974609375	-3.894805908203125	-0.9002685546875	9.788693487548828	0.14305354919433594	0.17178396911621094	0.75531005859375	-4.93621826171875	-3.185272216796875	9.968857162475585	0.39145197143554683	-0.16819266662597654	2.719879150390625	-4.75311279296875	-1.7547607421875	
105	0.42	0.0	0.0	0.0	0.0	0.003	0.006	0.006	0.006	9.858125335693359	0.10773907470703124	0.03232172241210937	2.26593017578125	-3.9825439453125	-0.84686279296875	9.782109432983399	0.15203180541992187	0.17836802368164062	0.659942626953125	-5.115509033203125	-3.116607666015625	9.993397729492187	0.3938461730957031	-0.16879121704101563	2.63214111328125	-4.730224609375	-1.873016357421875	
106	0.424	0.0	0.0	0.0	0.0	0.003	0.003	0.003	0.006	9.85692823486328	0.11013327636718749	0.040701428222656245	2.468109130859375	-3.65447998046875	-0.820159912109375	9.779715231323241	0.15203180541992187	0.1771709228515625	0.507354736328125	-5.191802978515625	-3.215789794921875	9.987412225341796	0.3968389251708984	-0.17178396911621094	2.712249755859375	-4.70733642578125	-1.819610595703125	
107	0.428	0.0	0.0	0.0	0.0	0.003	0.003	0.006	0.003	9.859322436523437	0.12150573425292968	0.02633621826171875	2.704620361328125	-3.8604736328125	-1.087188720703125	9.783306533813477	0.16519991455078123	0.17178396911621094	0.3509521484375	-5.069732666015625	-3.284454345703125	9.982025271606444	0.4064157318115234	-0.1753752716064453	2.811431884765625	-4.669189453125	-1.750946044921875	
108	0.432	0.0	0.0	0.0	0.0	0.006	0.003	0.003	0.003	9.860519537353515	0.13347674255371092	0.032920272827148434	2.44903564453125	-3.753662109375	-0.804901123046875	9.783905084228515	0.18255787658691405	0.17118541870117188	0.911712646484375	-5.31768798828125	-3.223419189453125	9.97843396911621	0.41359833679199215	-0.17417817077636719	2.81524658203125	-4.78363037109375	-2.048492431640625	
109	0.436	0.0	0.0	0.0	0.0	0.009000000000000001	0.003	0.003	0.006	9.858125335693359	0.143652099609375	0.0383072265625	2.605438232421875	-3.803253173828125	-0.827789306640625	9.782707983398437	0.19093758239746092	0.16160861206054686	0.995635986328125	-5.02777099609375	-3.28826904296875	9.981426721191406	0.4261678955078125	-0.1867477294921875	2.567291259765625	-4.894256591796875	-1.781463623046875	
110	0.44	0.0	0.0	0.0	0.0	0.006	0.003	0.006	0.006	9.85692823486328	0.15682020874023436	0.02693476867675781	2.5177001953125	-3.467559814453125	-0.95367431640625	9.78629928588867	0.20949264526367187	0.15203180541992187	0.83160400390625	-4.886627197265625	-3.108978271484375	9.973047015380859	0.44053310546874996	-0.201112939453125	2.81524658203125	-4.627227783203125	-1.76239013671875	
111	0.444	0.0	0.0	0.0	0.0	0.003	0.003	0.003	0.006	9.861118087768554	0.1657984649658203	0.033518823242187495	2.35748291015625	-3.66973876953125	-0.942230224609375	9.783905084228515	0.2154781494140625	0.15502455749511718	0.61798095703125	-5.11932373046875	-3.39508056640625	9.973047015380859	0.4578910675048828	-0.20829554443359374	2.605438232421875	-4.566192626953125	-1.89971923828125	
112	0.448	0.0	0.0	0.0	0.0	0.006	0.006	0.003	0.003	9.87608184814453	0.19393033447265623	0.028730419921875	2.506256103515625	-3.95965576171875	-0.888824462890625	9.78629928588867	0.22445640563964842	0.16220716247558592	0.8087158203125	-4.82177734375	-3.200531005859375	9.973047015380859	0.47105917663574215	-0.21906945190429686	2.838134765625	-4.634857177734375	-1.728057861328125	
113	0.452	0.0	0.0	0.0	0.0	0.006	0.006	0.006	0.003	9.868899243164062	0.1975216369628906	0.02693476867675781	2.552032470703125	-3.681182861328125	-0.79345703125	9.788693487548828	0.24001871643066405	0.15682020874023436	0.732421875	-5.07354736328125	-2.918243408203125	9.982623822021484	0.469862075805664	-0.2262520568847656	2.544403076171875	-4.8675537109375	-1.83868408203125	
114	0.456	0.0	0.0	0.0	0.0	0.003	0.003	0.006	0.003	9.855731134033203	0.21188684692382811	0.040701428222656245	2.437591552734375	-3.917694091796875	-0.99945068359375	9.789890588378906	0.2472013214111328	0.14544775085449219	0.9918212890625	-5.268096923828125	-3.3416748046875	9.98501802368164	0.469263525390625	-0.2184709014892578	2.704620361328125	-4.66156005859375	-1.819610595703125	
115	0.46	0.0	0.0	0.0	0.0	0.003	0.003	0.003	0.003	9.85692823486328	0.21009119567871093	0.04668693237304687	2.475738525390625	-3.51715087890625	-0.81634521484375	9.788693487548828	0.24839842224121092	0.1484405029296875	0.583648681640625	-4.795074462890625	-2.96783447265625	9.97783541870117	0.48722003784179685	-0.2136824981689453	2.780914306640625	-4.5928955078125	-1.73187255859375	
116	0.464	0.0	0.0	0.0	0.0	0.003	0.006	0.003	0.003	9.849745629882811	0.2154781494140625	0.044891281127929686	2.521514892578125	-3.53240966796875	-0.728607177734375	9.785102185058593	0.24839842224121092	0.15562310791015624	0.560760498046875	-5.13458251953125	-3.13568115234375	9.974244116210937	0.4908113403320312	-0.2154781494140625	2.742767333984375	-4.558563232421875	-1.743316650390625	
117	0.468	0.0	0.0	0.0	0.0	0.003	0.003	0.006	0.009000000000000001	9.852738381958007	0.16639701538085935	0.012569558715820313	2.29644775390625	-3.894805908203125	-0.926971435546875	9.775525378417969	0.22266075439453123	0.15382745666503905	0.507354736328125	-5.11932373046875	-3.25775146484375	9.959280355834961	0.45549686584472654	-0.18076222534179687	2.666473388671875	-4.96673583984375	-1.590728759765625	
118	0.47200000000000003	0.0	0.0	0.0	0.0	0.006	0.006	0.006	0.006	9.859322436523437	0.25318682556152344	0.05327098693847656	2.452850341796875	-3.841400146484375	-0.713348388671875	9.792284790039062	0.3178302703857422	0.1406593475341797	0.6103515625	-4.688262939453125	-3.093719482421875	9.968258612060547	0.5781997009277343	-0.17357962036132812	2.605438232421875	-4.608154296875	-1.605987548828125	
119	0.47600000000000003	0.0	0.0	0.0	0.0	0.003	0.006	0.003	0.006	9.849745629882811	0.20051438903808594	0.07781155395507812	2.46429443359375	-4.00543212890625	-0.67138671875	9.770736975097655	0.20709844360351562	0.16460136413574217	0.576019287109375	-5.01251220703125	-3.017425537109375	9.935936889648437	0.4590881683349609	-0.11671733093261719	2.658843994140625	-4.657745361328125	-1.59454345703125	
120	0.48	0.0	0.0	0.0	0.0	0.003	0.003	0.006	0.003	9.851541281127929	0.16819266662597654	0.06045359191894531	2.35748291015625	-4.093170166015625	-0.946044921875	9.797073193359374	0.1849520782470703	0.17058686828613281	0.579833984375	-5.123138427734375	-3.51715087890625	10.018536846923828	0.3687070556640625	-0.20350714111328125	2.86865234375	-4.8065185546875	-2.063751220703125	
121	0.484	0.0	0.0	0.0	0.0	0.0	0.003	0.003	0.006	9.859322436523437	0.27293898925781246	0.08918401184082031	2.727508544921875	-3.692626953125	-0.84686279296875	9.788693487548828	0.3286041778564453	0.2328361114501953	0.6103515625	-4.92095947265625	-3.1585693359375	9.949703549194336	0.6087257720947266	-0.09636661682128905	2.69317626953125	-4.718780517578125	-1.54876708984375	
122	0.488	0.0	0.0	0.0	0.0	0.003	0.006	0.003	0.003	9.8449572265625	0.17417817077636719	0.09217676391601562	2.155303955078125	-3.589630126953125	-0.762939453125	9.787496386718749	0.19153613281249998	0.18315642700195311	0.431060791015625	-4.871368408203125	-3.162384033203125	10.014945544433592	0.430956298828125	-0.20709844360351562	2.758026123046875	-4.589080810546875	-1.6021728515625	
123	0.492	0.0	0.0	0.0	0.0	0.006	0.003	0.006	0.003	9.852738381958007	0.16819266662597654	0.11372457885742186	2.8533935546875	-3.72314453125	-0.83160400390625	9.777919580078125	0.1484405029296875	0.2472013214111328	0.453948974609375	-5.1727294921875	-3.345489501953125	9.98501802368164	0.4171896392822265	-0.1562216583251953	2.9754638671875	-4.734039306640625	-1.689910888671875	
124	0.496	0.0	0.0	0.0	0.0	0.003	0.006	0.006	0.003	9.907206469726562	0.1083376251220703	0.002992752075195312	1.880645751953125	-3.47900390625	-1.06048583984375	9.86351228942871	0.1640028137207031	0.1083376251220703	0.492095947265625	-4.825592041015625	-3.12042236328125	10.052055670166014	0.48722003784179685	-0.229843359375	2.719879150390625	-4.665374755859375	-1.82342529296875	
125	0.5	0.0	0.0	0.0	0.0	0.006	0.003	0.006	0.006	9.840767373657226	0.24779987182617186	0.1580173095703125	2.52532958984375	-3.60870361328125	-0.6866455078125	9.771335525512695	0.2472013214111328	0.2765302917480469	0.774383544921875	-5.3863525390625	-2.89154052734375	9.974244116210937	0.5901707092285156	-0.14125789794921875	2.773284912109375	-4.44793701171875	-1.506805419921875	
126	0.504	0.0	0.0	0.0	0.0	0.009000000000000001	0.006	0.006	0.003	9.879673150634765	-0.028131869506835935	0.02633621826171875	1.758575439453125	-3.452301025390625	-1.007080078125	9.861716638183593	-0.02633621826171875	0.11552023010253906	0.58746337890625	-5.096435546875	-3.131866455078125	10.037690460205077	0.1927332336425781	-0.25797522888183594	2.70843505859375	-4.72259521484375	-1.80816650390625	
127	0.508	0.0	0.0	0.0	0.0	0.006	0.003	0.006	0.006	9.882067352294921	0.21428104858398436	0.04668693237304687	3.017425537109375	-3.749847412109375	-0.74005126953125	9.777919580078125	0.3327940307617187	0.20769699401855468	0.70953369140625	-5.161285400390625	-3.18145751953125	10.013748443603514	0.6242880828857421	-0.18136077575683593	2.788543701171875	-4.76837158203125	-1.895904541015625	
128	0.512	0.0	0.0	0.0	0.0	0.006	0.003	0.006	0.009000000000000001	9.900023864746093	0.010175357055664061	0.03651157531738281	1.590728759765625	-3.429412841796875	-0.873565673828125	9.871293444824218	0.07422025146484375	0.086191259765625	0.6866455078125	-5.062103271484375	-3.173828125	10.06163247680664	0.3705027069091797	-0.2765302917480469	2.96783447265625	-4.52423095703125	-1.575469970703125	
129	0.516	0.0	0.0	0.0	0.0	0.003	0.006	0.003	0.003	9.853336932373047	0.13168109130859373	0.0718260498046875	2.5634765625	-3.875732421875	-0.820159912109375	9.751583361816406	0.21068974609375	0.22086510314941404	0.492095947265625	-5.298614501953125	-3.0670166015625	9.974244116210937	0.4327519500732422	-0.17956512451171874	2.513885498046875	-4.558563232421875	-1.766204833984375	
130	0.52	0.0	0.0	0.0	0.0	0.0	0.006	0.003	0.003	9.91558617553711	-0.014963760375976562	-0.011971008300781249	1.6326904296875	-3.60107421875	-0.9002685546875	9.909600671386718	0.06105214233398437	0.05327098693847656	0.713348388671875	-5.016326904296875	-3.246307373046875	10.088567245483398	0.2932897033691406	-0.32142157287597656	2.849578857421875	-4.69970703125	-1.979827880859375	
131	0.524	0.0	0.0	0.0	0.0	0.003	0.003	0.003	0.006	9.871891995239258	0.2059013427734375	0.040701428222656245	2.681732177734375	-3.803253173828125	-0.67901611328125	9.767145672607422	0.3435679382324219	0.21068974609375	0.640869140625	-5.245208740234375	-3.032684326171875	9.91438907470703	0.6242880828857421	-0.1274912384033203	2.796173095703125	-4.8980712890625	-1.71661376953125	
132	0.528	0.0	0.0	0.0	0.0	0.006	0.006	0.006	0.006	9.827599264526366	0.14604630126953125	0.15442600708007811	2.887725830078125	-4.0130615234375	-0.66375732421875	9.805452899169921	-0.03651157531738281	0.15322890625	0.66375732421875	-5.0048828125	-3.253936767578125	10.06163247680664	0.13168109130859373	-0.3226186737060547	2.90679931640625	-4.840850830078125	-1.64031982421875	
133	0.532	0.0	0.0	0.0	0.0	0.006	0.003	0.006	0.006	9.890447058105469	0.16041151123046873	0.027533319091796873	2.74658203125	-3.59344482421875	-0.873565673828125	9.7683427734375	0.33399113159179683	0.19812018737792966	0.637054443359375	-4.90570068359375	-3.200531005859375	9.929951385498047	0.5303156677246094	-0.12330138549804687	2.368927001953125	-4.730224609375	-2.22015380859375	
134	0.536	0.0	0.0	0.0	0.0	0.0	0.006	0.003	0.003	9.852738381958007	0.23223756103515625	0.1304839904785156	2.655029296875	-3.72314453125	-0.553131103515625	9.839570272827148	0.058657940673828124	0.12509703674316405	0.5645751953125	-5.31768798828125	-3.017425537109375	9.976638317871092	0.373495458984375	-0.1484405029296875	2.445220947265625	-4.96673583984375	-1.739501953125	
135	0.54	0.0	0.0	0.0	0.0	0.003	0.006	0.003	0.006	9.86291373901367	0.10714052429199218	0.05805939025878906	2.95257568359375	-3.7994384765625	-0.84686279296875	9.680954412841796	0.21009119567871093	0.2346317626953125	0.5035400390625	-4.848480224609375	-3.475189208984375	9.878476049804688	0.43634325256347656	-0.09935936889648436	2.559661865234375	-4.52423095703125	-1.674652099609375	
136	0.544	0.0	0.0	0.0	0.0	0.003	0.003	0.006	0.003	9.841365924072266	0.2328361114501953	0.13826514587402344	3.143310546875	-3.864288330078125	-0.74005126953125	9.846154327392577	0.014963760375976562	0.12988544006347655	0.54931640625	-4.688262939453125	-2.933502197265625	9.935338339233398	0.2759317413330078	-0.11432312927246092	2.55584716796875	-4.840850830078125	-1.659393310546875	
137	0.548	0.0	0.0	0.0	0.0	0.003	0.003	0.006	0.006	9.864709390258788	0.1693897674560547	0.01975216369628906	2.994537353515625	-3.932952880859375	-0.732421875	9.733626849365233	0.3064578125	0.19692308654785154	0.514984130859375	-4.947662353515625	-3.44085693359375	9.976039767456054	0.5117606048583984	-0.1693897674560547	2.4871826171875	-4.5928955078125	-2.140045166015625	
138	0.552	0.0	0.0	0.0	0.0	0.006	0.006	0.003	0.0	9.803058697509766	0.18375497741699218	0.14604630126953125	2.960205078125	-4.055023193359375	-0.461578369140625	9.694721072387695	0.11432312927246092	0.21188684692382811	0.4730224609375	-5.25665283203125	-3.13568115234375	9.904812268066406	0.21128829650878905	-0.06584054565429687	2.38800048828125	-4.489898681640625	-1.861572265625	
139	0.556	0.0	0.0	0.0	0.0	0.003	0.003	0.003	0.003	9.829993466186522	0.15023615417480468	0.08559270935058594	3.4942626953125	-4.199981689453125	-0.90789794921875	9.672574707031249	0.27952304382324217	0.24061726684570311	0.6866455078125	-5.046844482421875	-3.498077392578125	9.892242709350585	0.3381809844970703	-0.07362170104980469	2.5177001953125	-4.650115966796875	-2.0599365234375	
140	0.56	0.0	0.0	0.0	0.0	0.006	0.006	0.003	0.006	9.919776028442381	0.13467384338378904	-0.08499415893554688	1.850128173828125	-3.62396240234375	-0.820159912109375	9.705494979858399	0.18136077575683593	0.19572598571777342	0.3509521484375	-5.07354736328125	-3.08990478515625	9.945513696289062	0.31483751831054685	-0.10594342346191406	2.67791748046875	-4.810333251953125	-1.331329345703125	
141	0.5640000000000001	0.0	0.0	0.0	0.0	0.006	0.003	0.003	0.003	9.865307940673828	0.13407529296874998	0.02693476867675781	3.231048583984375	-4.12750244140625	-0.9765625	9.789890588378906	0.052073886108398436	0.19033903198242186	0.57220458984375	-4.66156005859375	-3.368377685546875	9.910797772216796	0.3190273712158203	-0.11372457885742186	2.490997314453125	-4.67681884765625	-1.94549560546875	
142	0.5680000000000001	0.0	0.0	0.0	0.0	0.006	0.003	0.003	0.003	9.903016616821288	0.0939724151611328	-0.08020575561523437	2.06756591796875	-3.84521484375	-0.972747802734375	9.690531219482422	0.15741875915527342	0.19812018737792966	0.5035400390625	-5.001068115234375	-3.143310546875	9.855731134033203	0.4752490295410156	0.001197100830078125	2.655029296875	-4.5166015625	-1.46484375	
143	0.5720000000000001	0.0	0.0	0.0	0.0	0.003	0.003	0.003	0.003	9.879074600219726	0.16639701538085935	0.016759411621093748	3.376007080078125	-4.03594970703125	-1.04522705078125	9.802460147094726	0.1562216583251953	0.16460136413574217	0.46539306640625	-4.852294921875	-3.292083740234375	9.894038360595703	0.4483142608642578	-0.11013327636718749	2.58636474609375	-4.52423095703125	-2.105712890625	
144	0.5760000000000001	0.0	0.0	0.0	0.0	0.003	0.003	0.006	0.003	9.929951385498047	0.10354922180175781	-0.0909796630859375	1.804351806640625	-3.810882568359375	-0.81634521484375	9.841365924072266	0.2292448089599609	0.1406593475341797	0.614166259765625	-5.069732666015625	-2.971649169921875	9.87069489440918	0.49200844116210934	-0.0430956298828125	2.76947021484375	-4.512786865234375	-1.338958740234375	
145	0.58	0.0	0.0	0.0	0.0	0.003	0.003	0.006	0.003	9.868899243164062	-0.086191259765625	-0.01915361328125	1.96075439453125	-3.7994384765625	-0.9918212890625	9.783905084228515	0.12509703674316405	0.1592144104003906	0.637054443359375	-4.81414794921875	-3.612518310546875	10.149020837402343	0.18255787658691405	-0.4255693450927734	2.95257568359375	-4.2877197265625	-1.85394287109375	
146	0.584	0.0	0.0	0.0	0.0	0.003	0.003	0.003	0.009000000000000001	9.920973129272461	0.16340426330566404	-0.07781155395507812	1.65557861328125	-3.620147705078125	-0.858306884765625	9.819818109130859	0.36212300109863277	0.1370680450439453	0.324249267578125	-5.11932373046875	-2.788543701171875	9.865307940673828	0.6171054779052734	-0.034715924072265626	2.849578857421875	-4.39453125	-1.15966796875	
147	0.588	0.0	0.0	0.0	0.0	0.003	0.003	0.003	0.003	9.89583401184082	-0.08080430603027343	-0.054468087768554684	1.7852783203125	-3.414154052734375	-0.93841552734375	9.959280355834961	0.013168109130859374	-0.07841010437011718	0.8697509765625	-5.14984130859375	-3.261566162109375	10.187328063964843	0.229843359375	-0.4471171600341797	2.9754638671875	-4.360198974609375	-1.83868408203125	
148	0.592	0.0	0.0	0.0	0.0	0.006	0.003	0.003	0.009000000000000001	9.920973129272461	0.11851298217773437	-0.051475335693359374	3.2196044921875	-4.222869873046875	-0.57220458984375	9.82460651245117	0.33039982910156246	0.1292868896484375	0.522613525390625	-5.340576171875	-3.078460693359375	10.024522351074218	0.6607996582031249	-0.24301146850585936	2.986907958984375	-4.650115966796875	-1.6632080078125	
149	0.596	0.0	0.0	0.0	0.0	0.009000000000000001	0.003	0.006	0.006	9.899425314331054	-0.08319850769042968	-0.04249707946777344	1.24359130859375	-3.063201904296875	-1.2969970703125	9.951499200439452	0.08499415893554688	-0.06464344482421874	0.7781982421875	-4.955291748046875	-3.16619873046875	10.180145458984374	0.30526071166992186	-0.4656722229003906	2.84576416015625	-4.50897216796875	-1.834869384765625	
150	0.6	0.0	0.0	0.0	0.0	0.006	0.006	0.006	0.006	9.743802206420899	0.43454760131835934	0.24001871643066405	3.513336181640625	-4.367828369140625	-0.5645751953125	9.829394915771484	0.4578910675048828	0.09576806640624999	0.52642822265625	-5.115509033203125	-3.002166748046875	10.037091909790039	0.7368155609130859	-0.2519897247314453	3.0059814453125	-4.87518310546875	-1.613616943359375	
151	0.604	0.0	0.0	0.0	0.0	0.006	0.003	0.006	0.006	9.911396322631836	-0.13467384338378904	-0.06105214233398437	0.995635986328125	-3.265380859375	-1.06048583984375	9.955090502929687	0.052073886108398436	-0.037708676147460936	0.9918212890625	-5.22613525390625	-3.429412841796875	10.207080227661132	0.2472013214111328	-0.45489831542968745	2.971649169921875	-4.856109619140625	-1.804351806640625	
152	0.608	0.0	0.0	0.0	0.0	0.003	0.003	0.003	0.006	9.726444244384766	0.47764323120117186	0.24361001892089842	3.643035888671875	-4.44793701171875	-0.446319580078125	9.69112976989746	0.5147533569335937	0.28490999755859375	0.54168701171875	-5.023956298828125	-3.124237060546875	10.028113653564452	0.82360537109375	-0.2346317626953125	2.590179443359375	-4.528045654296875	-1.4495849609375	
153	0.612	0.0	0.0	0.0	0.0	0.006	0.006	0.003	0.006	9.883264453125	0.06584054565429687	0.10235212097167969	1.277923583984375	-2.78472900390625	-0.78582763671875	9.947907897949218	0.03172317199707031	-0.018555062866210937	0.67138671875	-4.94384765625	-3.10516357421875	10.121487518310547	0.14305354919433594	-0.3812766143798828	2.971649169921875	-4.817962646484375	-1.7242431640625	
154	0.616	0.0	0.0	0.0	0.0	0.003	0.006	0.006	0.003	9.721655841064452	0.4213794921875	0.22385785522460935	3.993988037109375	-4.405975341796875	-0.263214111328125	9.688137017822266	0.4638765716552734	0.3016694091796875	0.415802001953125	-4.932403564453125	-3.139495849609375	10.034697708129881	0.7613561279296874	-0.21906945190429686	2.834320068359375	-4.78363037109375	-1.93023681640625	
155	0.62	0.0	0.0	0.0	0.0	0.006	0.003	0.003	0.003	9.883264453125	0.11911153259277343	0.11731588134765625	1.36566162109375	-3.326416015625	-0.885009765625	9.906009368896484	-0.1149216796875	0.025139117431640625	1.026153564453125	-5.157470703125	-3.0670166015625	10.135852728271484	0.19093758239746092	-0.37289690856933594	2.887725830078125	-4.791259765625	-1.6326904296875	
156	0.624	0.0	0.0	0.0	0.0	0.006	0.003	0.006	0.006	9.728239895629882	0.39324762268066404	0.21248539733886718	3.8909912109375	-4.0435791015625	-0.553131103515625	9.673173257446289	0.4961982940673828	0.36571430358886714	0.3814697265625	-5.1116943359375	-3.04412841796875	9.810839852905273	0.6619967590332031	0.022146365356445312	2.3956298828125	-4.78363037109375	-1.987457275390625	
157	0.628	0.0	0.0	0.0	0.0	0.006	0.006	0.006	0.006	9.87727894897461	0.08379705810546874	0.12030863342285156	1.926422119140625	-3.3111572265625	-0.675201416015625	9.924564431762695	-0.2154781494140625	0.032920272827148434	1.10626220703125	-5.146026611328125	-2.941131591796875	10.139444030761718	0.08439560852050781	-0.36571430358886714	3.19671630859375	-4.894256591796875	-1.621246337890625	
158	0.632	0.0	0.0	0.0	0.0	0.006	0.003	0.006	0.006	9.7545761138916	0.20171148986816406	0.020350714111328123	3.841400146484375	-4.547119140625	-1.02996826171875	9.676166009521484	0.3848679168701172	0.3076549133300781	0.438690185546875	-4.7760009765625	-3.437042236328125	9.82460651245117	0.6853402252197265	0.03950432739257812	2.61688232421875	-4.657745361328125	-1.918792724609375	
159	0.636	0.0	0.0	0.0	0.0	0.006	0.003	0.003	0.006	9.88266590270996	0.1227028350830078	0.1292868896484375	1.842498779296875	-3.51715087890625	-0.40435791015625	9.91498762512207	-0.22744915771484372	0.044891281127929686	0.713348388671875	-5.184173583984375	-2.895355224609375	9.850344180297851	0.3184288208007812	0.04908113403320312	2.490997314453125	-4.947662353515625	-1.83868408203125	
160	0.64	0.0	0.0	0.0	0.0	0.012	0.006	0.003	0.003	9.737218151855469	0.16460136413574217	0.03950432739257812	4.085540771484375	-4.421234130859375	-0.934600830078125	9.667786303710937	0.2998737579345703	0.3298012786865234	0.41961669921875	-4.89044189453125	-3.3111572265625	9.805452899169921	0.5919663604736328	0.03950432739257812	2.468109130859375	-4.924774169921875	-2.208709716796875	
161	0.644	0.0	0.0	0.0	0.0	0.0	0.006	0.003	0.003	9.890447058105469	0.1388636962890625	0.11013327636718749	1.941680908203125	-3.7078857421875	-0.87738037109375	9.69771382446289	0.15502455749511718	0.2136824981689453	0.629425048828125	-5.222320556640625	-2.9296875	9.873687646484374	0.3076549133300781	0.02633621826171875	2.307891845703125	-4.87518310546875	-1.720428466796875	
162	0.648	0.0	0.0	0.0	0.0	0.006	0.006	0.003	0.006	9.73602105102539	0.19812018737792966	0.07062894897460938	4.230499267578125	-4.390716552734375	-0.812530517578125	9.679757312011718	0.31663316955566406	0.32142157287597656	0.576019287109375	-4.886627197265625	-3.307342529296875	9.804255798339844	0.7254431030273437	0.052073886108398436	2.574920654296875	-4.67681884765625	-2.338409423828125	
163	0.652	0.0	0.0	0.0	0.0	0.006	0.006	0.003	0.006	9.852139831542969	0.40940848388671874	-0.10893617553710937	2.06756591796875	-3.57818603515625	-0.96893310546875	9.674968908691406	0.06643909606933593	0.2059013427734375	0.698089599609375	-5.05828857421875	-2.78472900390625	9.852738381958007	0.22445640563964842	0.01975216369628906	2.3956298828125	-4.878997802734375	-1.59454345703125	
164	0.656	0.0	0.0	0.0	0.0	0.003	0.003	0.006	0.006	9.743203656005859	0.19632453613281248	0.06105214233398437	4.180908203125	-4.45556640625	-0.919342041015625	9.74859060974121	0.3112462158203125	0.18614917907714842	0.54168701171875	-5.0201416015625	-3.673553466796875	9.903615167236328	0.4070142822265625	-0.12030863342285156	2.4261474609375	-4.344940185546875	-2.31170654296875	
165	0.66	0.0	0.0	0.0	0.0	0.006	0.003	0.003	0.006	9.864709390258788	0.421978042602539	-0.12330138549804687	1.800537109375	-3.482818603515625	-0.934600830078125	9.685742816162108	0.059256491088867186	0.19153613281249998	0.6103515625	-4.87518310546875	-2.696990966796875	9.853336932373047	0.2280477081298828	0.017956512451171875	2.399444580078125	-4.76837158203125	-1.6326904296875	
166	0.664	0.0	0.0	0.0	0.0	0.006	0.003	0.006	0.003	9.837176071166992	-0.03950432739257812	0.040102877807617184	1.743316650390625	-3.5858154296875	-1.10626220703125	9.733626849365233	0.25258827514648435	0.1975216369628906	0.8544921875	-4.9285888671875	-3.7994384765625	9.88266590270996	0.3136404174804687	-0.12090718383789062	2.41851806640625	-4.4403076171875	-1.96075439453125	
167	0.668	0.0	0.0	0.0	0.0	0.003	0.003	0.003	0.006	9.866505041503906	0.4010287780761719	-0.13168109130859373	1.651763916015625	-3.5400390625	-1.10626220703125	9.79408044128418	0.4608838195800781	0.12210428466796874	0.453948974609375	-5.30242919921875	-3.2501220703125	9.848548529052733	0.6781576202392577	-0.008978256225585938	2.5634765625	-4.608154296875	-1.44195556640625	
168	0.672	0.0	0.0	0.0	0.0	0.003	0.006	0.003	0.006	9.834781869506836	-0.023942016601562498	0.005985504150390624	1.35040283203125	-3.30352783203125	-1.392364501953125	9.725845693969726	0.3232172241210937	0.17597382202148437	0.63323974609375	-4.70733642578125	-3.719329833984375	9.903016616821288	0.3860650177001953	-0.1304839904785156	2.4261474609375	-4.547119140625	-2.01416015625	
169	0.676	0.0	0.0	0.0	0.0	0.009000000000000001	0.006	0.003	0.003	9.86351228942871	0.35134909362792965	-0.11731588134765625	2.132415771484375	-3.505706787109375	-0.621795654296875	9.776722479248047	0.38307226562499996	0.12330138549804687	0.606536865234375	-5.298614501953125	-3.040313720703125	9.835978970336914	0.5997475158691405	0.0143652099609375	2.79998779296875	-4.787445068359375	-1.194000244140625	
170	0.68	0.0	0.0	0.0	0.0	0.006	0.003	0.003	0.006	9.798868844604492	-0.04967968444824218	0.002992752075195312	1.163482666015625	-3.337860107421875	-1.251220703125	9.655815295410155	0.017357962036132813	-0.03232172241210937	0.904083251953125	-5.1422119140625	-3.498077392578125	10.26035121459961	0.15442600708007811	-0.5057751007080078	3.0059814453125	-4.451751708984375	-2.0599365234375	
171	0.684	0.0	0.0	0.0	0.0	0.003	0.006	0.003	0.003	9.859322436523437	0.44532150878906246	0.2537853759765625	3.570556640625	-4.192352294921875	-0.60272216796875	9.770736975097655	0.42377369384765623	0.1197100830078125	0.2593994140625	-5.245208740234375	-2.89154052734375	9.842563024902343	0.642244595336914	0.020350714111328123	2.864837646484375	-4.76837158203125	-1.1749267578125	
172	0.6880000000000001	0.0	0.0	0.0	0.0	0.003	0.006	0.003	0.003	9.779116680908203	-0.09576806640624999	0.023942016601562498	1.10626220703125	-3.078460693359375	-1.2664794921875	9.969455712890625	-0.020949264526367185	-0.05027823486328125	0.8697509765625	-4.98199462890625	-3.5552978515625	10.266336718749999	0.12090718383789062	-0.5027823486328125	3.017425537109375	-4.52423095703125	-1.651763916015625	
173	0.6920000000000001	0.0	0.0	0.0	0.0	0.006	0.003	0.003	0.006	9.827599264526366	0.4848258361816406	0.28730419921875	3.582000732421875	-4.21905517578125	-0.7476806640625	9.770138424682617	0.3711012573242187	0.12629413757324218	0.225067138671875	-5.001068115234375	-2.8839111328125	9.867103591918944	0.8726865051269531	-0.1640028137207031	2.895355224609375	-4.6234130859375	-1.705169677734375	
174	0.6960000000000001	0.0	0.0	0.0	0.0	0.003	0.003	0.003	0.003	9.804854348754882	-0.11791443176269531	-0.03411737365722656	-1.190185546875	-3.017425537109375	-1.277923583984375	9.970054263305663	0.0017956512451171875	-0.06344634399414062	0.8392333984375	-4.795074462890625	-3.543853759765625	10.267533819580077	0.17776947326660156	-0.5117606048583984	3.025054931640625	-4.367828369140625	-1.7547607421875	
175	0.7000000000000001	0.0	0.0	0.0	0.0	0.006	0.003	0.003	0.003	9.80665	0.527322915649414	0.258573779296875	3.7384033203125	-4.2877197265625	-0.52642822265625	9.69771382446289	0.48722003784179685	0.45010991210937495	0.18310546875	-5.06591796875	-2.81524658203125	10.012551342773437	0.9115922821044922	-0.16699556579589842	3.08990478515625	-4.7149658203125	-1.659393310546875	
176	0.704	0.0	0.0	0.0	0.0	0.0	0.006	0.003	0.0	9.983820922851562	-0.1227028350830078	0.09157821350097656	-1.1138916015625	-2.147674560546875	-1.201629638671875	9.97184991455078	-0.06703764648437499	-0.054468087768554684	0.934600830078125	-4.89044189453125	-3.5858154296875	10.263942517089843	0.09217676391601562	-0.5051765502929687	2.899169921875	-4.547119140625	-1.79290771484375	
177	0.708	0.0	0.0	0.0	0.0	0.006	0.003	0.006	0.006	9.78629928588867	0.565630142211914	0.2597708801269531	3.772735595703125	-4.657745361328125	-0.5645751953125	9.72285294189453	0.489015689086914	0.42975919799804685	0.48828125	-5.218505859375	-2.872467041015625	10.032303506469725	0.910395181274414	-0.19931728820800781	3.078460693359375	-5.08880615234375	-1.667022705078125	
178	0.712	0.0	0.0	0.0	0.0	0.003	0.003	0.003	0.003	9.963470208740233	-0.06045359191894531	0.10714052429199218	-1.495361328125	-1.743316650390625	-1.3427734375	10.022128149414062	-0.42497079467773435	-0.04189852905273437	0.87738037109375	-4.8675537109375	-3.25775146484375	10.134655627441406	0.10654197387695312	-0.3190273712158203	2.880096435546875	-4.69970703125	-1.59454345703125	
179	0.716	0.0	0.0	0.0	0.0	0.003	0.003	0.006	0.006	9.84435867614746	0.15023615417480468	0.03411737365722656	4.2724609375	-4.50897216796875	-0.823974609375	9.710881933593749	0.5039794494628906	0.4495113616943359	0.17547607421875	-5.100250244140625	-2.841949462890625	10.018536846923828	0.8918401184082031	-0.25438392639160157	3.047943115234375	-4.7607421875	-1.682281494140625	
180	0.72	0.0	0.0	0.0	0.0	0.003	0.003	0.006	0.006	9.966462960815429	-0.016160861206054686	0.07721300354003906	-1.52587890625	-1.93023681640625	-1.262664794921875	10.036493359375	-0.36152445068359373	-0.07242460021972656	0.652313232421875	-5.157470703125	-3.0059814453125	10.121487518310547	0.15981296081542967	-0.27952304382324217	3.0059814453125	-4.81414794921875	-1.544952392578125	
181	0.724	0.0	0.0	0.0	0.0	0.003	0.003	0.003	0.006	9.86291373901367	0.16160861206054686	-0.00239420166015625	4.669189453125	-4.810333251953125	-0.820159912109375	9.628281976318359	0.44412440795898434	0.3363853332519531	0.7476806640625	-4.932403564453125	-3.559112548828125	9.744999307250977	0.5530605834960938	0.08379705810546874	2.185821533203125	-4.5623779296875	-2.216339111328125	
182	0.728	0.0	0.0	0.0	0.0	0.003	0.006	0.006	0.006	9.949104998779296	-0.07481880187988281	0.10714052429199218	-1.338958740234375	-1.995086669921875	-1.129150390625	10.054449871826172	-0.3435679382324219	-0.07242460021972656	0.93841552734375	-5.084991455078125	-3.204345703125	10.102333905029296	0.08200140686035155	-0.239420166015625	3.040313720703125	-4.7149658203125	-1.73187255859375	
183	0.732	0.0	0.0	0.0	0.0	0.006	0.006	0.003	0.003	9.859322436523437	0.19812018737792966	0.01915361328125	4.87518310546875	-4.93621826171875	-0.75531005859375	9.591770401000977	0.7870937957763672	0.3920505218505859	0.629425048828125	-4.81414794921875	-3.307342529296875	9.715071786499022	0.6643909606933593	0.11372457885742186	1.953125	-4.46319580078125	-2.55584716796875	
184	0.736	0.0	0.0	0.0	0.0	0.006	0.006	0.003	0.003	9.911396322631836	0.38786066894531246	-0.06344634399414062	3.48663330078125	-4.1046142578125	-0.453948974609375	9.773729727172851	-0.4213794921875	0.14425065002441406	0.396728515625	-4.909515380859375	-3.15093994140625	9.878476049804688	0.36391865234375	-0.15502455749511718	2.315521240234375	-4.852294921875	-1.476287841796875	
185	0.74	0.0	0.0	0.0	0.0	0.003	0.003	0.003	0.006	9.862315188598632	0.05805939025878906	0.031124621582031248	4.009246826171875	-4.41741943359375	-0.9613037109375	9.589376199340819	0.5692214447021484	0.41419688720703124	0.66375732421875	-5.031585693359375	-3.0670166015625	9.710881933593749	0.5321113189697265	0.1322796417236328	2.193450927734375	-4.528045654296875	-2.37274169921875	
186	0.744	0.0	0.0	0.0	0.0	0.006	0.003	0.006	0.006	9.94072529296875	0.5386953735351562	-0.086191259765625	4.856109619140625	-4.909515380859375	-0.133514404296875	9.76175871887207	-0.10354922180175781	0.1406593475341797	0.301361083984375	-4.863739013671875	-3.51715087890625	9.85094273071289	0.5710170959472656	-0.08978256225585937	2.155303955078125	-4.84466552734375	-1.598358154296875	
187	0.748	0.0	0.0	0.0	0.0	0.003	0.003	0.003	0.003	9.80665	0.09217676391601562	0.07302315063476562	2.9754638671875	-4.611968994140625	-0.63323974609375	9.658209497070311	0.3956418243408203	0.2424129180908203	0.202178955078125	-4.734039306640625	-3.299713134765625	9.717465988159178	0.3094505645751953	0.16041151123046873	2.79998779296875	-4.695892333984375	-2.506256103515625	
188	0.752	0.0	0.0	0.0	0.0	0.003	0.003	0.006	0.003	9.981426721191406	0.6153098266601562	-0.11192892761230468	3.871917724609375	-4.535675048828125	0.09918212890625	9.727641345214844	0.2041056915283203	0.19692308654785154	0.476837158203125	-5.04302978515625	-3.482818603515625	9.823409411621093	0.6973112335205077	-0.07062894897460938	2.269744873046875	-4.87518310546875	-1.6021728515625	
189	0.756	0.0	0.0	0.0	0.0	0.0	0.003	0.003	0.003	9.749787710571288	-0.1227028350830078	0.09457096557617187	3.185272216796875	-4.070281982421875	-0.7171630859375	9.639055883789062	0.1849520782470703	0.2813186950683594	0.25177001953125	-4.741668701171875	-3.185272216796875	9.94072529296875	0.09038111267089843	-0.24600422058105467	3.002166748046875	-4.360198974609375	-1.873016357421875	
190	0.76	0.0	0.0	0.0	0.0	0.006	0.003	0.006	0.003	9.883264453125	0.5835866546630859	-0.04967968444824218	2.086639404296875	-3.536224365234375	-1.140594482421875	9.782109432983399	0.23223756103515625	0.03172317199707031	0.423431396484375	-5.13458251953125	-3.33404541015625	9.86291373901367	0.8092401611328125	-0.062249243164062495	2.1514892578125	-4.650115966796875	-1.77764892578125	
191	0.764	0.0	0.0	0.0	0.0	0.006	0.003	0.003	0.006	9.913191973876952	-0.13766659545898435	-0.0017956512451171875	2.841949462890625	-3.79180908203125	-0.705718994140625	9.641450085449218	0.11671733093261719	0.316034619140625	0.28228759765625	-4.638671875	-3.47900390625	9.964667309570311	0.06943184814453125	-0.18555062866210936	2.81524658203125	-4.474639892578125	-1.7852783203125	
192	0.768	0.0	0.0	0.0	0.0	0.006	0.003	0.006	0.003	9.986215124511718	0.006584054565429687	0.04129997863769531	5.48553466796875	-5.340576171875	0.1068115234375	9.750386260986328	0.2902969512939453	0.09696516723632811	0.49591064453125	-5.126953125	-3.253936767578125	9.832986218261718	0.7445967163085937	0.047285482788085934	2.811431884765625	-4.5013427734375	-1.8157958984375	
193	0.772	0.0	0.0	0.0	0.0	0.003	0.003	0.006	0.003	9.909600671386718	0.051475335693359374	-0.0053869537353515625	2.979278564453125	-4.28009033203125	-0.385284423828125	9.64683703918457	0.19572598571777342	0.30526071166992186	1.1444091796875	-4.8675537109375	-3.08990478515625	9.955090502929687	0.11073182678222655	-0.2346317626953125	2.758026123046875	-4.451751708984375	-1.4801025390625	
194	0.776	0.0	0.0	0.0	0.0	0.006	0.006	0.006	0.006	9.919776028442381	-0.05386953735351562	0.06045359191894531	3.88336181640625	-4.2877197265625	-0.713348388671875	9.738415252685547	0.2041056915283203	0.06404489440917968	0.514984130859375	-5.3253173828125	-3.093719482421875	9.843760125732421	0.6248866333007812	0.003591302490234375	2.811431884765625	-4.44793701171875	-1.842498779296875	
195	0.78	0.0	0.0	0.0	0.0	0.006	4.614	4.641	4.596	9.871891995239258	-0.0017956512451171875	0.0526724365234375	0.9613037109375	-3.05938720703125	-0.881195068359375	9.90840357055664	0.11731588134765625	-0.044891281127929686	0.995635986328125	-4.730224609375	-3.101348876953125	10.295067138671874	0.42796354675292964	-0.5680243438720702	3.1280517578125	-4.573822021484375	-1.07574462890625	
196	0.784	0.0	0.0	0.0	0.0	4.62	4.638	4.65	4.611	9.992799179077148	-0.04189852905273437	0.09816226806640624	5.413055419921875	-5.2642822265625	-0.133514404296875	9.738415252685547	0.1131260284423828	0.12808978881835936	0.1678466796875	-5.25665283203125	-3.13568115234375	9.888651406860351	0.546476528930664	-0.02454056701660156	2.735137939453125	-4.67681884765625	-2.01416015625	
197	0.788	0.0	0.0	0.0	0.0	4.62	4.65	4.65	4.6080000000000005	9.93294413757324	0.007781155395507812	-0.037110125732421874	-0.25177001953125	-2.72369384765625	-0.96893310546875	9.906009368896484	0.2154781494140625	-0.03531447448730469	0.60272216796875	-4.72259521484375	-3.124237060546875	10.338162768554687	0.5285200164794922	-0.6332663391113281	3.39508056640625	-4.634857177734375	-1.064300537109375	
198	0.792	0.0	0.0	0.0	0.0	4.614	4.647	4.65	4.617	9.917980377197265	0.08020575561523437	0.13347674255371092	5.218505859375	-5.176544189453125	-0.118255615234375	9.79408044128418	0.1927332336425781	0.34237083740234375	0.518798828125	-5.2032470703125	-2.910614013671875	9.852139831542969	0.488417138671875	0.012569558715820313	2.93731689453125	-4.718780517578125	-1.995086669921875	
199	0.796	0.0	0.0	0.0	0.0	4.605	4.65	4.644	4.617	9.929951385498047	-0.025139117431640625	0.0	-1.36566162109375	-2.040863037109375	-1.2664794921875	9.880271701049804	0.239420166015625	-0.020949264526367185	0.640869140625	-4.974365234375	-2.986907958984375	10.290278735351562	0.59376201171875	-0.6189011291503906	3.16619873046875	-4.642486572265625	-1.2054443359375	
200	0.8	0.0	0.0	0.0	0.0	4.617	4.65	4.6530000000000005	4.599	9.957484704589843	-0.012569558715820313	0.08439560852050781	3.955841064453125	-4.57000732421875	-0.457763671875	9.82580361328125	0.16340426330566404	0.3274070770263672	0.4119873046875	-5.382537841796875	-3.1890869140625	10.066420880126952	0.21906945190429686	-0.2280477081298828	3.192901611328125	-4.8370361328125	-1.922607421875	
201	0.804	0.0	0.0	0.0	0.0	4.62	4.6530000000000005	4.65	4.593	9.983820922851562	-0.023942016601562498	0.010773907470703125	0.05340576171875	-2.69317626953125	-0.8087158203125	10.1131078125	0.2292448089599609	-0.1466448516845703	1.209259033203125	-5.0201416015625	-3.032684326171875	10.345943923950195	0.5686228942871093	-0.7032967376708984	2.70843505859375	-4.535675048828125	-1.255035400390625	
202	0.808	0.0	0.0	0.0	0.0	4.62	4.65	4.65	4.602	9.560047229003906	0.33039982910156246	0.2705447875976562	2.99835205078125	-4.43267822265625	-0.728607177734375	9.78031378173828	0.2567781280517578	0.34835634155273437	0.3814697265625	-4.993438720703125	-2.87628173828125	10.003573086547851	0.29089550170898437	-0.1975216369628906	2.9754638671875	-4.7454833984375	-1.468658447265625	
203	0.812	0.0	0.0	0.0	0.0	4.617	4.641	4.65	4.611	9.995193380737303	0.086191259765625	0.011372457885742187	-0.9918212890625	-2.285003662109375	-1.068115234375	10.141239682006836	0.18435352783203124	-0.18854338073730467	1.24359130859375	-4.93621826171875	-2.99835205078125	10.09395419921875	0.7230489013671875	-0.24779987182617186	2.758026123046875	-5.035400390625	-1.6937255859375	
204	0.8160000000000001	0.0	0.0	0.0	0.0	4.617	4.65	4.6530000000000005	4.614	9.651026892089844	0.24660277099609373	0.19213468322753904	3.177642822265625	-4.093170166015625	-0.888824462890625	9.664195001220703	0.35194764404296874	0.36092590026855464	0.6256103515625	-4.9896240234375	-3.429412841796875	10.096946951293944	0.26276363220214843	-0.2615665313720703	3.070831298828125	-4.82177734375	-1.6021728515625	
205	0.8200000000000001	0.0	0.0	0.0	0.0	4.614	4.65	4.65	4.614	9.993397729492187	0.07481880187988281	0.028730419921875	1.026153564453125	-3.009796142578125	-1.13677978515625	10.101136804199218	0.14963760375976562	-0.10654197387695312	1.125335693359375	-5.092620849609375	-3.0670166015625	10.075997686767577	0.6691793640136718	-0.2041056915283203	2.66265869140625	-4.825592041015625	-1.922607421875	
206	0.8240000000000001	0.0	0.0	0.0	0.0	4.611	4.65	4.644	4.617	9.625887774658203	0.18555062866210936	0.24600422058105467	3.032684326171875	-4.0740966796875	-0.93841552734375	9.627084875488281	0.3441664886474609	0.3848679168701172	0.63323974609375	-4.970550537109375	-3.2196044921875	9.65282254333496	0.19692308654785154	0.23343466186523437	2.330780029296875	-4.764556884765625	-1.995086669921875	
207	0.8280000000000001	0.0	0.0	0.0	0.0	4.617	4.65	4.6530000000000005	4.599	9.885658654785155	0.47704468078613277	0.0047884033203125	1.39617919921875	-3.353118896484375	-1.148223876953125	9.791087689208984	0.17597382202148437	0.11611878051757812	0.5950927734375	-5.092620849609375	-3.42559814453125	10.09993970336914	0.6679822631835937	-0.25917232971191406	2.933502197265625	-4.825592041015625	-1.659393310546875	
208	0.8320000000000001	0.0	0.0	0.0	0.0	4.62	4.65	4.65	4.593	9.634267480468749	0.11013327636718749	0.22445640563964842	2.410888671875	-3.627777099609375	-0.8697509765625	9.640851535034178	0.2902969512939453	0.3489548919677734	0.67901611328125	-5.161285400390625	-3.452301025390625	9.701903677368163	0.16220716247558592	0.1849520782470703	2.14385986328125	-4.608154296875	-2.063751220703125	
209	0.836	0.0	0.0	0.0	0.0	4.62	4.647	4.65	4.605	9.879673150634765	0.4830301849365234	0.058657940673828124	1.972198486328125	-3.513336181640625	-1.346588134765625	9.756371765136718	0.19632453613281248	0.15263035583496093	0.67901611328125	-5.084991455078125	-3.3111572265625	10.103531005859374	0.6099228729248046	-0.20829554443359374	2.20489501953125	-4.817962646484375	-2.31170654296875	
210	0.84	0.0	0.0	0.0	0.0	4.62	4.65	4.6530000000000005	4.611	9.759364517211914	-0.017357962036132813	0.08140285644531249	2.40325927734375	-3.696441650390625	-0.84686279296875	9.568426934814452	0.1227028350830078	0.37409400939941406	0.4425048828125	-4.81414794921875	-3.68499755859375	9.69771382446289	0.1352723937988281	0.18136077575683593	2.13623046875	-4.528045654296875	-2.048492431640625	
211	0.844	0.0	0.0	0.0	0.0	4.617	4.6530000000000005	4.6530000000000005	4.614	9.934739788818359	0.6248866333007812	0.020350714111328123	2.349853515625	-3.570556640625	-0.9307861328125	9.819818109130859	0.1753752716064453	0.03950432739257812	0.637054443359375	-4.917144775390625	-3.253936767578125	9.853935482788085	0.5853823059082031	-0.00718260498046875	2.349853515625	-4.756927490234375	-2.29644775390625	
212	0.848	0.0	0.0	0.0	0.0	4.614	4.65	4.65	4.617	9.76175871887207	-0.06703764648437499	0.04848258361816406	2.22015380859375	-3.208160400390625	-1.148223876953125	9.548674771118163	0.1610100616455078	0.3597287994384765	0.400543212890625	-4.75311279296875	-3.70025634765625	9.676166009521484	0.17597382202148437	0.1406593475341797	2.349853515625	-4.72259521484375	-2.079010009765625	
213	0.852	0.0	0.0	0.0	0.0	4.617	4.65	4.644	4.62	9.904812268066406	0.5327098693847656	0.07122749938964844	1.3275146484375	-3.215789794921875	-0.87738037109375	9.764152920532226	0.12569558715820311	0.10115502014160156	0.244140625	-5.146026611328125	-3.204345703125	9.792284790039062	0.5225345123291015	0.04189852905273437	2.32696533203125	-4.680633544921875	-2.178192138671875	
214	0.856	0.0	0.0	0.0	0.0	4.62	4.6530000000000005	4.6530000000000005	4.599	9.765948571777344	-0.04967968444824218	0.010773907470703125	3.509521484375	-4.207611083984375	-0.865936279296875	9.603741409301758	0.18136077575683593	0.2807201446533203	0.40435791015625	-4.665374755859375	-3.566741943359375	9.982623822021484	0.3800795135498047	-0.31184476623535157	2.536773681640625	-4.180908203125	-1.60980224609375	
215	0.86	0.0	0.0	0.0	0.0	4.62	4.65	4.65	4.593	10.006565838623047	0.2292448089599609	-0.1640028137207031	4.108428955078125	-4.60052490234375	-0.499725341796875	9.682151513671874	0.14245499877929688	0.24899697265624998	0.362396240234375	-5.340576171875	-3.223419189453125	9.828197814941406	0.5231330627441406	0.011971008300781249	2.47955322265625	-4.779815673828125	-2.300262451171875	
216	0.864	0.0	0.0	0.0	0.0	4.614	4.65	4.65	4.6080000000000005	9.78031378173828	0.15263035583496093	0.012569558715820313	4.1046142578125	-4.35638427734375	-1.02996826171875	9.560047229003906	0.23044190979003906	0.33698388366699217	0.4119873046875	-4.909515380859375	-3.79180908203125	9.949703549194336	0.4369418029785156	-0.3298012786865234	2.4871826171875	-4.352569580078125	-1.590728759765625	
217	0.868	0.0	0.0	0.0	0.0	4.617	4.65	4.6530000000000005	4.611	9.93354268798828	0.0047884033203125	-0.10654197387695312	2.979278564453125	-4.108428955078125	-0.74005126953125	9.662997900390625	0.15861585998535155	0.27892449340820313	0.3662109375	-4.985809326171875	-2.95257568359375	9.922768780517577	0.2819172454833984	-0.21727380065917967	2.960205078125	-4.795074462890625	-1.495361328125	
218	0.872	0.0	0.0	0.0	0.0	4.617	4.6530000000000005	4.6530000000000005	4.614	9.880271701049804	0.17776947326660156	-0.13826514587402344	3.4027099609375	-3.89862060546875	-0.213623046875	9.875483297729492	0.06823474731445311	0.01975216369628906	0.6866455078125	-4.932403564453125	-3.147125244140625	9.97184991455078	0.48243163452148435	-0.3130418670654297	2.72369384765625	-4.238128662109375	-1.445770263671875	
219	0.876	0.0	0.0	0.0	0.0	4.611	4.65	4.65	4.62	9.887454306030273	-0.010175357055664061	-0.07601590270996093	5.084991455078125	-4.985809326171875	-0.64849853515625	9.668983404541015	0.09935936889648436	0.27832594299316404	0.377655029296875	-5.28717041015625	-3.02886962890625	9.986215124511718	0.2825157958984375	-0.25737667846679685	2.727508544921875	-4.67681884765625	-1.689910888671875	
220	0.88	0.0	0.0	0.0	0.0	4.62	4.647	4.644	0.009000000000000001	9.993397729492187	-0.02154781494140625	-0.16220716247558592	1.209259033203125	-3.391265869140625	-0.789642333984375	9.769539874267577	0.11252747802734374	0.1592144104003906	0.55694580078125	-5.092620849609375	-3.330230712890625	9.93952819213867	0.5135562561035156	-0.33758243408203126	3.101348876953125	-4.909515380859375	-1.338958740234375	
221	0.884	0.0	0.0	0.0	0.0	0.003	0.006	0.006	0.003	9.974244116210937	0.10354922180175781	-0.1370680450439453	5.60760498046875	-5.260467529296875	-0.171661376953125	9.87668039855957	0.24361001892089842	0.13467384338378904	0.362396240234375	-4.95147705078125	-2.8228759765625	9.95329485168457	0.3226186737060547	-0.21487959899902342	2.902984619140625	-4.642486572265625	-1.74713134765625	
222	0.888	0.0	0.0	0.0	0.0	0.003	0.006	0.006	0.003	9.98501802368164	-0.08439560852050781	-0.1322796417236328	0.4119873046875	-2.78472900390625	-0.762939453125	9.848548529052733	0.10773907470703124	0.04129997863769531	0.42724609375	-4.98199462890625	-3.28826904296875	10.346542474365235	0.5237316131591797	-0.642244595336914	2.826690673828125	-4.46319580078125	-1.21307373046875	
223	0.892	0.0	0.0	0.0	0.0	0.009000000000000001	0.006	0.006	0.006	9.68454571533203	0.11552023010253906	0.23104046020507812	3.41033935546875	-4.306793212890625	-0.335693359375	9.816825357055663	0.16041151123046873	0.2154781494140625	0.4119873046875	-5.115509033203125	-3.032684326171875	9.896432562255859	0.2765302917480469	-0.12330138549804687	2.83050537109375	-4.66156005859375	-1.82342529296875	
224	0.896	0.0	0.0	0.0	0.0	0.006	0.003	0.006	0.003	9.996989031982421	0.06284779357910156	-0.15382745666503905	3.559112548828125	-4.44793701171875	-0.11444091796875	10.095151300048828	0.0987608184814453	-0.18555062866210936	1.056671142578125	-4.924774169921875	-3.05938720703125	10.341754071044921	0.5602431884765625	-0.6715735656738281	2.93731689453125	-4.589080810546875	-1.316070556640625	
225	0.9	0.0	0.0	0.0	0.0	0.006	0.006	0.006	0.003	9.616310968017578	0.04548983154296875	0.25139117431640623	0.896453857421875	-3.101348876953125	-0.9613037109375	9.911396322631836	0.20649989318847656	0.06344634399414062	0.35858154296875	-4.78363037109375	-2.956390380859375	10.046070166015625	0.3010708587646484	-0.07601590270996093	3.021240234375	-4.69970703125	-1.308441162109375	
226	0.904	0.0	0.0	0.0	0.0	0.003	0.006	0.006	0.006	10.04247886352539	-0.11671733093261719	-0.2184709014892578	0.4425048828125	-2.72369384765625	-1.094818115234375	10.06821653137207	0.011372457885742187	-0.13587094421386717	0.78582763671875	-5.18798828125	-2.864837646484375	10.307038146972655	0.5009866973876953	-0.6607996582031249	3.07464599609375	-4.43267822265625	-1.41143798828125	
227	0.908	0.0	0.0	0.0	0.0	0.006	0.006	0.006	0.003	9.586383447265625	0.17357962036132812	0.3387795349121094	3.589630126953125	-4.2572021484375	-0.11444091796875	9.667786303710937	0.44053310546874996	0.2424129180908203	1.09100341796875	-5.336761474609375	-3.021240234375	9.996390481567381	0.3333925811767578	-0.09157821350097656	3.108978271484375	-4.93621826171875	-1.506805419921875	
228	0.912	0.0	0.0	0.0	0.0	0.003	0.003	0.003	0.006	9.846752877807617	0.1801636749267578	0.04548983154296875	-0.38909912109375	-2.3040771484375	-1.506805419921875	10.116699114990233	-0.029927520751953124	-0.18076222534179687	0.7781982421875	-5.001068115234375	-3.238677978515625	10.14542953491211	0.5674257934570313	-0.33039982910156246	2.941131591796875	-4.947662353515625	-1.911163330078125	
229	0.916	0.0	0.0	0.0	0.0	0.003	0.003	0.003	0.003	9.617508068847656	0.06045359191894531	0.29568390502929687	0.05340576171875	-2.712249755859375	-0.934600830078125	9.726444244384766	0.4734533782958984	0.21248539733886718	0.827789306640625	-4.9285888671875	-3.032684326171875	10.073603485107421	0.28730419921875	-0.10115502014160156	2.849578857421875	-4.627227783203125	-1.674652099609375	
230	0.92	0.0	0.0	0.0	0.0	0.003	0.003	0.003	0.003	9.8694977935791	0.30885201416015623	0.07481880187988281	3.143310546875	-4.001617431640625	-0.789642333984375	9.744999307250977	0.032920272827148434	0.25797522888183594	0.701904296875	-5.191802978515625	-3.406524658203125	10.095151300048828	0.5847837554931641	-0.32620997619628905	2.460479736328125	-5.001068115234375	-1.888275146484375	
231	0.924	0.0	0.0	0.0	0.0	0.006	0.003	0.006	0.003	9.507973342895507	0.3333925811767578	0.3908534210205078	-0.644683837890625	-2.4261474609375	-1.9073486328125	9.690531219482422	0.5440823272705078	0.17118541870117188	0.69427490234375	-5.199432373046875	-2.849578857421875	9.996989031982421	0.37289690856933594	-0.08738836059570312	2.429962158203125	-4.817962646484375	-1.983642578125	
232	0.928	0.0	0.0	0.0	0.0	0.006	0.003	0.006	0.006	9.883264453125	0.23343466186523437	0.0652419952392578	-0.072479248046875	-2.124786376953125	-1.552581787109375	9.827599264526366	0.023343466186523436	0.20709844360351562	0.598907470703125	-5.176544189453125	-3.4637451171875	10.216657034301758	0.5734112976074218	-0.4477157104492187	2.285003662109375	-4.970550537109375	-2.124786376953125	
233	0.932	0.0	0.0	0.0	0.0	0.006	0.003	0.003	0.006	9.89583401184082	0.1484405029296875	-0.003591302490234375	1.514434814453125	-3.322601318359375	-1.2359619140625	9.649231240844726	0.5021837982177734	0.28371289672851563	0.75531005859375	-4.833221435546875	-3.650665283203125	9.69112976989746	0.3321954803466797	0.15981296081542967	2.46429443359375	-4.44793701171875	-1.941680908203125	
234	0.936	0.0	0.0	0.0	0.0	0.006	0.003	0.003	0.003	9.879673150634765	0.5015852478027344	0.06763619689941405	4.856109619140625	-4.730224609375	-0.286102294921875	9.737218151855469	0.1197100830078125	0.2902969512939453	0.560760498046875	-5.054473876953125	-3.24249267578125	10.084377392578125	0.6416460449218749	-0.3333925811767578	2.50244140625	-4.94384765625	-2.079010009765625	
235	0.9400000000000001	0.0	0.0	0.0	0.0	0.003	0.003	0.003	0.006	9.746794958496093	0.37409400939941406	0.03411737365722656	-0.396728515625	-2.132415771484375	-1.7852783203125	9.668983404541015	0.36691140441894526	0.24001871643066405	0.423431396484375	-4.894256591796875	-3.582000732421875	9.76235726928711	0.38666356811523434	0.0796072052001953	2.262115478515625	-4.84466552734375	-2.14385986328125	
236	0.9440000000000001	0.0	0.0	0.0	0.0	0.003	0.003	0.006	0.003	9.976039767456054	-0.02693476867675781	-0.1083376251220703	3.971099853515625	-4.2266845703125	-0.75531005859375	9.790489138793944	0.06943184814453125	0.31663316955566406	0.217437744140625	-4.98199462890625	-3.509521484375	9.842563024902343	0.39264907226562495	-0.08140285644531249	2.15911865234375	-4.913330078125	-2.08282470703125	
237	0.9480000000000001	0.0	0.0	0.0	0.0	0.003	0.003	0.006	0.006	9.974842666625976	0.13766659545898435	-0.0652419952392578	0.682830810546875	-2.899169921875	-0.988006591796875	9.592967501831055	0.3752911102294922	0.3268085266113281	0.782012939453125	-4.76837158203125	-3.719329833984375	9.636661682128906	0.421978042602539	0.22744915771484372	2.231597900390625	-4.650115966796875	-2.040863037109375	
238	0.9520000000000001	0.0	0.0	0.0	0.0	0.009000000000000001	0.006	0.006	0.003	9.791087689208984	0.35134909362792965	-0.016759411621093748	9.159088134765625	-7.0343017578125	0.293731689453125	9.652223992919922	0.1292868896484375	0.22505495605468748	0.362396240234375	-5.157470703125	-2.95257568359375	9.791686239624022	0.4674678741455078	-0.10115502014160156	2.407073974609375	-4.6844482421875	-1.949310302734375	
239	0.9560000000000001	0.0	0.0	0.0	0.0	0.006	0.003	0.006	0.003	9.744400756835937	0.4159925384521484	-0.059256491088867186	1.85394287109375	-3.4332275390625	-1.102447509765625	9.713874685668944	0.27832594299316404	0.20171148986816406	0.80108642578125	-4.802703857421875	-3.551483154296875	10.034697708129881	0.4722562774658203	-0.3447650390625	2.552032470703125	-4.1961669921875	-1.598358154296875	
240	0.96	0.0	0.0	0.0	0.0	0.003	0.006	0.003	0.003	9.811438403320311	-0.04249707946777344	-0.034715924072265626	1.556396484375	-3.505706787109375	-1.285552978515625	9.627084875488281	0.1149216796875	0.24600422058105467	-0.02288818359375	-4.93621826171875	-2.86102294921875	9.765948571777344	0.4495113616943359	-0.10115502014160156	2.605438232421875	-4.833221435546875	-2.208709716796875	
241	0.964	0.0	0.0	0.0	0.0	0.003	0.003	0.003	0.006	10.120290417480469	-0.0017956512451171875	-0.11252747802734374	4.894256591796875	-5.214691162109375	0.28228759765625	9.821015209960937	0.14544775085449219	-0.01975216369628906	0.232696533203125	-4.66156005859375	-3.078460693359375	9.906009368896484	0.5578489868164063	-0.24480711975097655	2.5482177734375	-4.299163818359375	-1.712799072265625	
242	0.968	0.0	0.0	0.0	0.0	0.006	0.003	0.003	0.003	10.001777435302733	-0.12569558715820311	-0.2537853759765625	9.08660888671875	-7.289886474609375	0.774383544921875	9.7162688873291	0.018555062866210937	0.07302315063476562	0.263214111328125	-5.062103271484375	-3.13568115234375	9.862315188598632	0.4100070343017578	-0.14245499877929688	2.704620361328125	-4.93621826171875	-1.705169677734375	
243	0.972	0.0	0.0	0.0	0.0	0.009000000000000001	0.006	0.003	0.003	9.76235726928711	0.37828386230468747	-0.011372457885742187	3.27301025390625	-4.329681396484375	-0.6103515625	9.878476049804688	0.1352723937988281	-0.11552023010253906	1.02996826171875	-5.069732666015625	-3.353118896484375	9.989207876586914	0.4435258575439453	-0.28969840087890625	2.66265869140625	-4.329681396484375	-1.613616943359375	
244	0.976	0.0	0.0	0.0	0.0	0.006	0.006	0.006	0.003	9.558251577758789	0.15682020874023436	-0.06703764648437499	-4.337310791015625	-0.682830810546875	-2.208709716796875	9.765948571777344	0.2537853759765625	0.16759411621093748	0.453948974609375	-4.8980712890625	-2.826690673828125	9.851541281127929	0.40880993347167965	0.013766659545898436	2.8076171875	-4.8675537109375	-1.62506103515625	
245	0.98	0.0	0.0	0.0	0.0	0.003	0.006	0.006	0.009000000000000001	10.053851321411132	-0.16759411621093748	-0.19931728820800781	-2.262115478515625	-1.415252685546875	-1.4190673828125	9.929352835083007	0.1352723937988281	-0.17058686828613281	0.1220703125	-5.08880615234375	-3.0670166015625	10.01015714111328	0.47105917663574215	-0.31184476623535157	2.95257568359375	-4.5928955078125	-1.68609619140625	
246	0.984	0.0	0.0	0.0	0.0	0.003	0.006	0.003	0.006	9.92217023010254	-0.3268085266113281	0.2753331909179687	4.1046142578125	-4.619598388671875	0.392913818359375	9.828197814941406	0.1927332336425781	0.17657237243652343	0.9002685546875	-5.340576171875	-3.0670166015625	10.017938296508788	0.3028665100097656	-0.1292868896484375	3.047943115234375	-4.90570068359375	-1.56402587890625	
247	0.988	0.0	0.0	0.0	0.0	0.003	0.003	0.003	0.003	9.9981861328125	-0.17776947326660156	-0.20051438903808594	4.863739013671875	-5.298614501953125	0.34332275390625	9.886257205200195	0.17776947326660156	0.086191259765625	1.232147216796875	-5.096435546875	-3.41033935546875	10.283096130371094	0.5662286926269531	-0.5500678314208984	2.918243408203125	-4.375457763671875	-1.54876708984375	
248	0.992	0.0	0.0	0.0	0.0	0.003	0.006	0.006	0.006	9.52533130493164	0.31663316955566406	0.5626373901367188	-0.396728515625	-2.655029296875	-0.926971435546875	9.80066449584961	0.25917232971191406	0.19153613281249998	0.942230224609375	-5.313873291015625	-2.93731689453125	9.929951385498047	0.38786066894531246	-0.01915361328125	2.92205810546875	-4.802703857421875	-1.438140869140625	
249	0.996	0.0	0.0	0.0	0.0	0.006	0.006	0.006	0.006	10.01015714111328	0.4004302276611328	0.20171148986816406	-1.071929931640625	-1.53350830078125	-1.8463134765625	9.973047015380859	0.1406593475341797	0.09277531433105468	1.28936767578125	-5.023956298828125	-3.406524658203125	10.424354028320312	0.4836287353515625	-0.6344634399414062	2.849578857421875	-4.543304443359375	-1.491546630859375	
250	1.0	0.0	0.0	0.0	0.0	0.003	0.003	0.003	0.003	9.718663088989258	0.13826514587402344	0.6021417175292968	-1.41143798828125	-1.956939697265625	-1.743316650390625	9.605537060546874	0.3699041564941406	0.5518634826660156	1.010894775390625	-4.5623779296875	-3.39508056640625	10.073603485107421	0.39444472351074217	-0.12808978881835936	2.750396728515625	-4.60052490234375	-1.621246337890625	
251	1.004	0.0	0.0	0.0	0.0	0.006	0.003	0.003	0.006	10.01674119567871	0.5680243438720702	0.25737667846679685	5.245208740234375	-4.60052490234375	-0.5035400390625	9.879074600219726	0.2753331909179687	0.1657984649658203	1.3885498046875	-5.04302978515625	-3.60107421875	10.303446844482421	0.5542576843261718	-0.6266822845458984	2.899169921875	-4.4403076171875	-1.70135498046875	
252	1.008	0.0	0.0	0.0	0.0	0.006	0.006	0.006	0.003	9.70369932861328	0.46627077331542965	0.5913678100585937	3.528594970703125	-3.7689208984375	-0.446319580078125	9.648034140014648	0.31663316955566406	0.43574470214843747	1.338958740234375	-5.016326904296875	-3.326416015625	10.091559997558592	0.4435258575439453	-0.17058686828613281	2.9144287109375	-4.69207763671875	-1.3580322265625	
253	1.012	0.0	0.0	0.0	0.0	0.003	0.006	0.003	0.006	10.031704956054687	0.3920505218505859	0.022146365356445312	2.3651123046875	-3.30352783203125	-1.22833251953125	9.92217023010254	0.18076222534179687	0.2262520568847656	0.05340576171875	-4.688262939453125	-3.002166748046875	10.410587368774413	0.41958384094238277	-0.7056909393310546	2.742767333984375	-4.688262939453125	-1.5411376953125	
254	1.016	0.0	0.0	0.0	0.0	0.006	0.006	0.003	0.006	9.951499200439452	-0.015562310791015624	-0.18136077575683593	3.3721923828125	-3.97491455078125	-0.881195068359375	9.582193594360351	0.3220201232910156	0.5183446594238281	0.629425048828125	-4.90570068359375	-3.208160400390625	9.90840357055664	0.4417302062988281	0.0053869537353515625	2.74658203125	-4.657745361328125	-1.605987548828125	
255	1.02	0.0	0.0	0.0	0.0	0.006	0.006	0.006	0.006	10.178948358154296	-0.015562310791015624	-0.296881005859375	4.161834716796875	-4.367828369140625	-0.640869140625	9.904812268066406	0.1149216796875	-0.05027823486328125	0.26702880859375	-5.115509033203125	-3.01361083984375	9.974244116210937	0.4961982940673828	-0.25797522888183594	2.475738525390625	-4.909515380859375	-1.789093017578125	
256	1.024	0.0	0.0	0.0	0.0	0.003	0.003	0.006	0.006	9.88266590270996	-0.028131869506835935	-0.23403321228027343	3.60107421875	-4.192352294921875	-0.41961669921875	9.727641345214844	0.26695348510742184	0.2693476867675781	0.545501708984375	-5.008697509765625	-3.3111572265625	10.043675964355469	0.33578678283691404	-0.09038111267089843	2.895355224609375	-4.650115966796875	-1.94549560546875	
257	1.028	0.0	0.0	0.0	0.0	0.003	0.006	0.003	0.003	9.936535440063476	-0.008379705810546874	-0.21607669982910155	0.9765625	-3.2196044921875	-1.27410888671875	9.878476049804688	0.10594342346191406	-0.06045359191894531	0.23651123046875	-5.0048828125	-3.1585693359375	9.958681805419921	0.642244595336914	-0.23403321228027343	2.66265869140625	-5.054473876953125	-1.911163330078125	
258	1.032	0.0	0.0	0.0	0.0	0.003	0.006	0.003	0.009000000000000001	9.752181912231444	0.029927520751953124	0.008978256225585938	-0.6256103515625	-2.4871826171875	-1.5106201171875	9.589376199340819	0.3142389678955078	0.3429693878173828	0.629425048828125	-5.126953125	-3.47137451171875	9.647435589599608	0.24779987182617186	0.2328361114501953	2.246856689453125	-4.695892333984375	-2.017974853515625	
259	1.036	0.0	0.0	0.0	0.0	-0.003	0.006	0.003	0.003	9.80066449584961	0.4435258575439453	0.24899697265624998	3.078460693359375	-4.0435791015625	-0.885009765625	9.950302099609374	0.13766659545898435	-0.09038111267089843	0.728607177734375	-5.0201416015625	-3.36456298828125	10.071209283447265	0.6153098266601562	-0.24899697265624998	2.34222412109375	-4.909515380859375	-1.880645751953125	
260	1.04	0.0	0.0	0.0	0.0	0.006	0.003	0.006	0.003	9.79408044128418	0.25139117431640623	0.08918401184082031	0.797271728515625	-2.979278564453125	-1.4190673828125	9.650428341674804	0.20769699401855468	0.34117373657226563	0.690460205078125	-5.046844482421875	-3.360748291015625	9.700108026123047	0.18315642700195311	0.1610100616455078	2.223968505859375	-4.608154296875	-2.010345458984375	
261	1.044	0.0	0.0	0.0	0.0	0.006	0.006	0.003	0.006	9.791087689208984	0.699705435180664	0.2603694305419922	4.70733642578125	-4.703521728515625	-0.759124755859375	9.662997900390625	0.1693897674560547	0.25797522888183594	0.408172607421875	-4.962921142578125	-3.2958984375	9.698910925292969	0.5740098480224609	0.058657940673828124	2.37274169921875	-4.730224609375	-1.9073486328125	
262	1.048	0.0	0.0	0.0	0.0	0.006	0.003	0.003	0.006	9.973645565795898	-0.047884033203124995	0.012569558715820313	3.47137451171875	-4.08935546875	-0.858306884765625	9.694721072387695	0.1352723937988281	0.31184476623535157	0.545501708984375	-4.970550537109375	-3.41033935546875	9.685742816162108	0.1610100616455078	0.14604630126953125	2.376556396484375	-4.764556884765625	-1.781463623046875	
263	1.052	0.0	0.0	0.0	0.0	0.003	0.006	0.006	0.006	9.962273107910155	0.28012159423828126	-0.10115502014160156	4.5318603515625	-4.550933837890625	-1.007080078125	9.733028298950195	0.08200140686035155	0.10115502014160156	0.19073486328125	-4.94384765625	-3.185272216796875	9.805452899169921	0.3872621185302734	0.06404489440917968	2.468109130859375	-4.8980712890625	-2.056121826171875	
264	1.056	0.0	0.0	0.0	0.0	0.003	0.003	0.006	0.006	9.892841259765625	-0.1514332550048828	0.04967968444824218	4.245758056640625	-4.627227783203125	-0.25177001953125	9.718663088989258	0.11372457885742186	0.18854338073730467	0.37384033203125	-4.5623779296875	-3.22723388671875	9.540295065307618	0.2507926239013672	-0.24839842224121092	2.5787353515625	-4.1351318359375	-1.67083740234375	
265	1.06	0.0	0.0	0.0	0.0	0.0	0.006	0.006	0.003	9.919776028442381	0.2280477081298828	-0.1197100830078125	4.40216064453125	-4.886627197265625	-0.2593994140625	9.74200655517578	0.14125789794921875	0.076614453125	0.42724609375	-5.43975830078125	-2.971649169921875	9.810241302490233	0.508169302368164	0.025737667846679687	2.414703369140625	-4.825592041015625	-1.995086669921875	
266	1.064	0.0	0.0	0.0	0.0	-0.003	0.003	0.003	0.006	9.846154327392577	0.005985504150390624	0.14185644836425781	2.14385986328125	-3.4942626953125	-0.74005126953125	9.83238766784668	0.11671733093261719	0.07900865478515624	0.6866455078125	-4.8370361328125	-3.574371337890625	10.168773001098632	0.36092590026855464	-0.34656069030761716	2.5787353515625	-4.352569580078125	-1.735687255859375	
267	1.068	0.0	0.0	0.0	0.0	0.003	0.003	0.006	0.003	9.94671079711914	0.07122749938964844	0.09756371765136718	2.46429443359375	-3.80706787109375	-0.934600830078125	9.811438403320311	0.16041151123046873	0.14006079711914063	0.751495361328125	-5.10406494140625	-3.345489501953125	9.813832604980469	0.5027823486328125	0.04548983154296875	2.368927001953125	-4.6234130859375	-1.880645751953125	
268	1.072	0.0	0.0	0.0	0.0	0.003	0.003	0.003	0.003	9.871293444824218	0.14484920043945312	0.16041151123046873	2.292633056640625	-3.63922119140625	-0.57220458984375	9.744400756835937	0.24899697265624998	0.201112939453125	0.362396240234375	-4.64630126953125	-3.131866455078125	10.052055670166014	0.4632780212402344	-0.38666356811523434	2.918243408203125	-4.589080810546875	-1.678466796875	
269	1.076	0.0	0.0	0.0	0.0	0.003	0.003	0.006	0.006	10.026916552734374	-0.009576806640625	-0.013766659545898436	4.100799560546875	-4.467010498046875	-0.537872314453125	9.910199221801758	0.09816226806640624	0.029328970336914062	0.66375732421875	-4.901885986328125	-3.01361083984375	10.063428128051758	0.44053310546874996	-0.2950853546142578	2.849578857421875	-4.70733642578125	-1.4801025390625	
270	1.08	0.0	0.0	0.0	0.0	0.003	0.003	0.006	0.006	9.868899243164062	0.029328970336914062	0.06284779357910156	-0.965118408203125	-2.178192138671875	-1.140594482421875	9.956287603759765	0.17417817077636719	-0.06883329772949218	1.12152099609375	-5.039215087890625	-3.086090087890625	10.120290417480469	0.34536358947753903	-0.4830301849365234	3.040313720703125	-4.2724609375	-1.33514404296875	
271	1.084	0.0	0.0	0.0	0.0	0.009000000000000001	0.006	0.006	0.006	9.948506448364258	-0.05027823486328125	0.11372457885742186	3.002166748046875	-4.46319580078125	-0.705718994140625	9.783306533813477	0.1197100830078125	0.0987608184814453	-0.0457763671875	-5.06591796875	-2.994537353515625	9.929951385498047	0.48243163452148435	-0.19512743530273435	2.98309326171875	-4.901885986328125	-1.62506103515625	
272	1.088	0.0	0.0	0.0	0.0	0.006	0.006	0.006	0.009000000000000001	9.944316595458984	-0.044891281127929686	-0.001197100830078125	-0.858306884765625	-2.34222412109375	-1.07574462890625	9.996390481567381	0.24121581726074218	-0.11911153259277343	1.495361328125	-4.50897216796875	-3.04412841796875	10.289081634521484	0.48243163452148435	-0.47285482788085936	2.727508544921875	-4.871368408203125	-1.605987548828125	
273	1.092	0.0	0.0	0.0	0.0	0.003	0.003	0.006	0.009000000000000001	9.916783276367187	0.037708676147460936	0.14425065002441406	3.326416015625	-4.28009033203125	-0.4425048828125	9.886855755615233	0.05087678527832031	0.05087678527832031	0.896453857421875	-5.16510009765625	-3.4942626953125	10.082581741333007	0.3812766143798828	-0.20829554443359374	2.86102294921875	-4.734039306640625	-1.6326904296875	
274	1.096	0.0	0.0	0.0	0.0	0.009000000000000001	0.003	0.006	0.003	9.885060104370117	0.16041151123046873	0.12330138549804687	-1.560211181640625	-2.05230712890625	-1.308441162109375	9.925761532592773	0.17657237243652343	-0.001197100830078125	1.163482666015625	-4.76837158203125	-2.89154052734375	10.189722265624999	0.489015689086914	-0.2759317413330078	2.765655517578125	-4.657745361328125	-1.415252685546875	
275	1.1	0.0	0.0	0.0	0.0	0.003	2.697	4.635	4.617	9.566631283569336	0.38786066894531246	0.3238157745361328	4.558563232421875	-4.60052490234375	-0.99945068359375	9.534309561157226	0.3920505218505859	0.6069301208496093	0.66375732421875	-5.298614501953125	-3.032684326171875	9.829394915771484	0.35134909362792965	0.09576806640624999	2.31170654296875	-4.741668701171875	-2.2430419921875	
276	1.104	0.0	0.0	0.0	0.0	4.617	4.65	4.65	4.605	10.005368737792969	0.09038111267089843	-0.01915361328125	-2.094268798828125	-1.308441162109375	-1.293182373046875	10.08078609008789	0.0430956298828125	-0.18614917907714842	0.965118408203125	-4.856109619140625	-3.238677978515625	10.410587368774413	0.49380409240722656	-0.5590460876464843	2.605438232421875	-4.604339599609375	-1.399993896484375	
277	1.108	0.0	0.0	0.0	0.0	4.617	4.65	4.65	4.593	9.60793126220703	0.3716998077392578	0.28969840087890625	5.008697509765625	-4.749298095703125	-0.7171630859375	9.63366893005371	0.41958384094238277	0.4860229370117187	1.03759765625	-5.19561767578125	-3.11279296875	9.883264453125	0.2663549346923828	0.11671733093261719	2.582550048828125	-4.69207763671875	-2.040863037109375	
278	1.112	0.0	0.0	0.0	0.0	4.617	4.647	4.65	4.602	9.885060104370117	0.13347674255371092	0.14963760375976562	-1.155853271484375	-2.178192138671875	-1.186370849609375	9.877877499389648	0.00239420166015625	0.11911153259277343	0.75531005859375	-4.871368408203125	-3.30352783203125	10.20169327392578	0.5985504150390625	-0.43993455505371093	2.422332763671875	-4.669189453125	-1.194000244140625	
279	1.116	0.0	0.0	0.0	0.0	4.62	4.641	4.65	4.605	9.68454571533203	0.32501287536621093	0.1771709228515625	3.326416015625	-3.932952880859375	-1.171112060546875	9.713276135253906	0.39324762268066404	0.3489548919677734	0.652313232421875	-5.096435546875	-2.99835205078125	9.906009368896484	0.2753331909179687	0.016160861206054686	2.506256103515625	-4.93621826171875	-2.02178955078125	
280	1.12	0.0	0.0	0.0	0.0	4.617	4.65	4.65	4.614	9.951499200439452	0.39803602600097654	-0.09217676391601562	1.293182373046875	-3.07464599609375	-1.140594482421875	9.99160207824707	-0.009576806640625	-0.014963760375976562	1.07574462890625	-4.63104248046875	-3.34930419921875	10.050260018920898	0.5991489654541016	-0.2184709014892578	2.2125244140625	-4.82177734375	-1.96075439453125	
281	1.124	0.0	0.0	0.0	0.0	4.611	4.65	4.65	4.617	9.616909518432617	0.12569558715820311	0.2663549346923828	3.452301025390625	-4.1961669921875	-0.766754150390625	9.511564645385741	0.3956418243408203	0.5063736511230469	0.652313232421875	-4.84466552734375	-3.643035888671875	9.756371765136718	0.3280056274414062	0.1867477294921875	2.47955322265625	-4.917144775390625	-2.0751953125	
282	1.1280000000000001	0.0	0.0	0.0	0.0	4.605	4.65	4.644	4.617	9.873687646484374	0.45549686584472654	0.05027823486328125	1.735687255859375	-3.3721923828125	-0.728607177734375	9.955090502929687	0.13946224670410157	0.012569558715820313	1.331329345703125	-5.3253173828125	-3.2196044921875	9.904213717651366	0.6578069061279297	-0.007781155395507812	2.384185791015625	-5.130767822265625	-2.18963623046875	
283	1.1320000000000001	0.0	0.0	0.0	0.0	4.617	4.65	4.6530000000000005	4.599	9.739612353515625	0.12509703674316405	0.13407529296874998	2.00653076171875	-3.387451171875	-1.30462646484375	9.701903677368163	0.3525461944580078	0.3812766143798828	0.652313232421875	-4.917144775390625	-3.574371337890625	9.781510882568359	0.23822306518554687	0.007781155395507812	2.227783203125	-4.573822021484375	-2.063751220703125	
284	1.1360000000000001	0.0	0.0	0.0	0.0	4.623	4.6530000000000005	4.65	4.596	9.897629663085937	0.4381389038085937	0.10235212097167969	0.67138671875	-2.750396728515625	-1.10626220703125	9.708487731933593	0.11731588134765625	0.19333178405761717	0.4730224609375	-4.917144775390625	-3.589630126953125	9.947907897949218	0.6398503936767578	-0.09636661682128905	2.285003662109375	-4.894256591796875	-1.8463134765625	
285	1.1400000000000001	0.0	0.0	0.0	0.0	4.614	4.65	4.65	4.605	9.763554370117188	0.025139117431640625	0.0909796630859375	3.1585693359375	-3.89862060546875	-0.957489013671875	9.543886367797851	0.3315969299316406	0.4483142608642578	0.415802001953125	-5.0506591796875	-3.204345703125	9.553463174438477	0.26276363220214843	0.1771709228515625	1.995086669921875	-4.390716552734375	-1.941680908203125	
286	1.1440000000000001	0.0	0.0	0.0	0.0	4.62	4.6530000000000005	4.6530000000000005	4.6080000000000005	9.945513696289062	0.5871779571533203	-0.002992752075195312	2.838134765625	-3.9520263671875	-0.72479248046875	9.722254391479492	0.18614917907714842	0.22565350646972654	0.576019287109375	-4.878997802734375	-3.116607666015625	9.85692823486328	0.51714755859375	-0.03232172241210937	2.349853515625	-4.650115966796875	-1.89971923828125	
287	1.1480000000000001	0.0	0.0	0.0	0.0	4.614	4.6530000000000005	4.6530000000000005	0.006	9.80724855041504	-0.013168109130859374	-0.016759411621093748	2.288818359375	-3.536224365234375	-1.19781494140625	9.74200655517578	0.12090718383789062	0.19632453613281248	0.1983642578125	-4.604339599609375	-3.5552978515625	9.734823950195311	0.2292448089599609	0.022744915771484374	2.227783203125	-4.50897216796875	-1.953125	
288	1.1520000000000001	0.0	0.0	0.0	0.0	0.006	0.006	0.003	0.003	9.958681805419921	0.13587094421386717	-0.09277531433105468	4.0740966796875	-4.364013671875	-0.469207763671875	9.568426934814452	0.105344873046875	0.3812766143798828	0.08392333984375	-4.95147705078125	-3.162384033203125	9.71686743774414	0.4848258361816406	0.047285482788085934	2.422332763671875	-4.547119140625	-1.964569091796875	
289	1.156	0.0	0.0	0.0	0.0	0.003	0.003	0.006	0.006	9.852738381958007	0.16998831787109375	0.12030863342285156	4.024505615234375	-4.543304443359375	-0.54168701171875	9.639055883789062	0.2316390106201172	0.2645592834472656	0.392913818359375	-4.932403564453125	-3.658294677734375	9.642048635864258	0.3345896820068359	0.13407529296874998	2.689361572265625	-4.474639892578125	-1.739501953125	
290	1.16	0.0	0.0	0.0	0.0	0.006	0.003	0.006	0.009000000000000001	9.996390481567381	0.003591302490234375	-0.19093758239746092	5.035400390625	-5.07354736328125	-0.12969970703125	9.87668039855957	0.15382745666503905	-0.010175357055664061	0.41961669921875	-5.008697509765625	-3.002166748046875	9.94671079711914	0.37229835815429685	-0.047884033203124995	2.52532958984375	-4.43267822265625	-1.705169677734375	
291	1.164	0.0	0.0	0.0	0.0	0.003	0.003	0.003	0.003	9.796474642944336	0.14544775085449219	0.12808978881835936	3.31878662109375	-3.948211669921875	-0.637054443359375	9.643245736694336	0.2741360900878906	0.3082534637451172	0.308990478515625	-4.669189453125	-3.7994384765625	10.120290417480469	0.5351040710449219	-0.37768531188964843	2.696990966796875	-4.32586669921875	-1.499176025390625	
292	1.168	0.0	0.0	0.0	0.0	0.006	0.006	0.006	0.006	9.82580361328125	-0.034715924072265626	0.003591302490234375	3.238677978515625	-4.337310791015625	-0.919342041015625	9.677363110351562	0.12389993591308593	0.19931728820800781	0.48828125	-5.07354736328125	-3.025054931640625	9.689334118652344	0.39983167724609375	0.13587094421386717	2.368927001953125	-4.7454833984375	-1.750946044921875	
293	1.172	0.0	0.0	0.0	0.0	0.0	0.006	0.003	0.003	10.090362896728514	0.013766659545898436	-0.2609679809570312	1.9989013671875	-3.89862060546875	-0.385284423828125	9.706692080688477	0.17597382202148437	-0.08858546142578125	0.667572021484375	-5.2642822265625	-2.925872802734375	10.184335311889647	0.5931634613037109	-0.4477157104492187	2.73895263671875	-4.57000732421875	-1.50299072265625	
294	1.176	0.0	0.0	0.0	0.0	0.003	0.003	0.003	0.003	9.95329485168457	-0.12868833923339842	-0.15382745666503905	5.2032470703125	-5.2490234375	-0.308990478515625	9.780912332153319	0.181959326171875	0.086191259765625	0.3814697265625	-5.10406494140625	-3.34930419921875	10.153809240722655	0.2154781494140625	-0.28790274963378903	3.002166748046875	-4.604339599609375	-1.468658447265625	
295	1.18	0.0	0.0	0.0	0.0	0.003	0.003	0.003	0.006	9.843760125732421	0.03591302490234375	-0.02633621826171875	1.39617919921875	-3.44085693359375	-0.904083251953125	9.855731134033203	0.020949264526367185	0.033518823242187495	0.583648681640625	-4.9896240234375	-2.902984619140625	9.970054263305663	0.5770026000976562	-0.2663549346923828	2.685546875	-4.44793701171875	-1.598358154296875	
296	1.184	0.0	0.0	0.0	0.0	0.006	0.003	0.003	0.003	9.919776028442381	-0.15382745666503905	-0.13946224670410157	1.987457275390625	-3.7841796875	-0.91552734375	9.7928833404541	0.24061726684570311	0.07601590270996093	1.01470947265625	-5.039215087890625	-2.948760986328125	10.013149893188476	0.33399113159179683	-0.21188684692382811	3.2958984375	-4.619598388671875	-1.30462646484375	
297	1.188	0.0	0.0	0.0	0.0	0.006	0.003	0.003	0.003	10.084377392578125	-0.17597382202148437	-0.30885201416015623	0.988006591796875	-3.0670166015625	-0.812530517578125	10.027515103149414	-0.011372457885742187	-0.09217676391601562	0.812530517578125	-4.66156005859375	-3.170013427734375	10.381856948852539	0.5147533569335937	-0.4991910461425781	3.147125244140625	-4.41741943359375	-1.60980224609375	
298	1.192	0.0	0.0	0.0	0.0	0.003	0.006	0.006	0.003	9.59476315307617	0.09636661682128905	0.37708676147460934	1.804351806640625	-3.25775146484375	-0.49591064453125	9.694122521972655	0.3435679382324219	0.3716998077392578	0.804901123046875	-5.046844482421875	-2.864837646484375	9.950900650024414	0.2723404388427734	-0.04908113403320312	3.307342529296875	-4.421234130859375	-1.5411376953125	
299	1.196	0.0	0.0	0.0	0.0	0.003	0.006	0.003	0.003	9.951499200439452	0.07481880187988281	-0.10175357055664062	2.12860107421875	-3.84521484375	-0.591278076171875	9.874884747314452	0.1514332550048828	-0.05805939025878906	0.782012939453125	-5.3558349609375	-3.025054931640625	10.13884548034668	0.5470750793457031	-0.3226186737060547	2.872467041015625	-4.718780517578125	-1.708984375	
300	1.2	0.0	0.0	0.0	0.0	0.003	0.006	0.003	0.003	9.6013472076416	0.2472013214111328	0.3268085266113281	0.553131103515625	-2.7618408203125	-1.01470947265625	9.855731134033203	0.26276363220214843	0.20530279235839843	1.06048583984375	-5.218505859375	-2.857208251953125	10.11849476623535	0.36092590026855464	-0.2693476867675781	2.758026123046875	-5.008697509765625	-1.583099365234375	
301	1.204	0.0	0.0	0.0	0.0	0.003	0.006	0.006	0.003	9.944316595458984	0.23702596435546874	0.008978256225585938	1.697540283203125	-2.99835205078125	-1.2969970703125	10.108319409179687	-0.0053869537353515625	-0.0383072265625	0.766754150390625	-5.016326904296875	-3.36456298828125	10.420762725830077	0.3794809631347656	-0.6308721374511719	2.83050537109375	-4.49371337890625	-1.64031982421875	
302	1.208	0.0	0.0	0.0	0.0	0.003	0.003	0.003	0.006	9.451709603881836	0.2705447875976562	0.7511807708740234	1.30462646484375	-3.429412841796875	-0.84686279296875	9.62109937133789	0.3399766357421875	0.4991910461425781	0.84686279296875	-5.126953125	-3.154754638671875	9.83777462158203	0.34656069030761716	0.029927520751953124	2.61688232421875	-4.787445068359375	-1.873016357421875	
303	1.212	0.0	0.0	0.0	0.0	0.006	0.006	0.003	0.003	9.909600671386718	0.5009866973876953	0.14484920043945312	3.170013427734375	-3.936767578125	-1.01470947265625	9.986215124511718	0.18435352783203124	0.11013327636718749	0.8087158203125	-4.96673583984375	-3.437042236328125	10.363301885986328	0.5859808563232421	-0.6733692169189452	2.689361572265625	-4.547119140625	-1.369476318359375	
304	1.216	0.0	0.0	0.0	0.0	0.003	0.003	0.006	0.003	9.609128363037108	0.4004302276611328	0.44532150878906246	2.140045166015625	-3.2806396484375	-0.72479248046875	9.892841259765625	0.2711433380126953	0.14903905334472656	0.69427490234375	-4.8370361328125	-3.387451171875	10.165780249023436	0.2771288421630859	-0.17178396911621094	2.872467041015625	-4.596710205078125	-1.97601318359375	
305	1.22	0.0	0.0	0.0	0.0	0.006	0.003	0.003	0.006	9.771335525512695	0.48662148742675776	0.21248539733886718	3.94439697265625	-4.161834716796875	-1.117706298828125	9.867702142333984	0.12868833923339842	0.34117373657226563	0.827789306640625	-4.764556884765625	-3.498077392578125	9.89583401184082	0.4100070343017578	-0.28909985046386716	2.567291259765625	-4.817962646484375	-2.044677734375	
306	1.224	0.0	0.0	0.0	0.0	0.006	0.003	0.003	0.0	9.89583401184082	0.18914193115234373	-0.1657984649658203	2.803802490234375	-3.875732421875	-0.79345703125	9.66000514831543	0.3806780639648437	0.34057518615722654	0.751495361328125	-5.035400390625	-3.12042236328125	9.801861596679688	0.5045779998779296	0.03411737365722656	2.5482177734375	-4.79888916015625	-1.79290771484375	
307	1.228	0.0	0.0	0.0	0.0	0.006	0.003	0.003	0.003	10.078990438842773	0.25797522888183594	-0.24839842224121092	4.940032958984375	-4.73785400390625	-0.766754150390625	9.898826763916015	0.07242460021972656	-0.061650692749023434	0.011444091796875	-4.82177734375	-2.84576416015625	10.064026678466796	0.42018239135742186	-0.4010287780761719	2.735137939453125	-4.970550537109375	-1.77001953125	
