	time	dac1	dac2	dac3	dac4	adc1.3	adc2.3	adc3.3	adc4.3	imu1accx	imu1accy	imu1accz	imu1gyrox	imu1gyroy	imu1gyroz	imu2accx	imu2accy	imu2accz	imu2gyrox	imu2gyroy	imu2gyroz	imu3accx	imu3accy	imu3accz	imu3gyrox	imu3gyroy	imu3gyroz	log
0	0.0	0.0	0.0	0.0	0.0	4.62	4.659	4.656	4.632	9.853336932373047	0.13108254089355467	0.006584054565429687	2.38800048828125	-3.772735595703125	-0.701904296875	9.783905084228515	0.16639701538085935	0.16160861206054686	0.522613525390625	-5.035400390625	-3.208160400390625	9.996390481567381	0.40880993347167965	-0.1849520782470703	2.4871826171875	-4.619598388671875	-1.94549560546875	Estabizou em 5s, 931 rpm
1	0.004	0.0	0.0	0.0	0.0	4.632	4.656	4.659	4.62	9.849745629882811	0.1771709228515625	0.022744915771484374	2.445220947265625	-3.84521484375	-0.827789306640625	9.76235726928711	0.23642741394042968	0.17178396911621094	0.621795654296875	-4.791259765625	-3.265380859375	9.967660061645507	0.4752490295410156	-0.18255787658691405	2.674102783203125	-4.367828369140625	-1.8768310546875	Started
2	0.008	0.0	0.0	0.0	0.0	4.626	4.659	4.659	4.605	9.854534033203125	0.20171148986816406	0.029927520751953124	2.44903564453125	-3.635406494140625	-0.885009765625	9.783306533813477	0.2519897247314453	0.16280571289062498	0.69427490234375	-5.176544189453125	-3.2196044921875	9.970652813720703	0.4914098907470703	-0.19393033447265623	2.895355224609375	-4.44793701171875	-1.79290771484375	IMU1|LSM6DS3|0x6A|I2C-1|±2g (±19,6m/s²)|±125º/s|400Hz
3	0.012	0.0	0.0	0.0	0.0	4.632	4.656	4.656	4.6080000000000005	9.880870251464843	0.17956512451171874	0.02454056701660156	2.593994140625	-3.85284423828125	-0.70953369140625	9.802460147094726	0.2280477081298828	0.1466448516845703	0.60272216796875	-5.0048828125	-3.177642822265625	9.997587582397461	0.4584896179199218	-0.20290859069824219	2.67791748046875	-4.8828125	-2.117156982421875	IMU2|LSM6DS3|0x6B|I2C-1|±2g (±19,6m/s²)|±125º/s|400Hz
4	0.016	0.0	0.0	0.0	0.0	4.6290000000000004	4.6530000000000005	4.659	4.617	9.87727894897461	0.1897404815673828	0.02633621826171875	2.536773681640625	-3.650665283203125	-0.66375732421875	9.803058697509766	0.24001871643066405	0.1693897674560547	0.530242919921875	-5.0506591796875	-3.208160400390625	9.992799179077148	0.47105917663574215	-0.19333178405761717	2.758026123046875	-4.669189453125	-1.6021728515625	IMU3|LSM6DS3|0x6B|I2C-2|±2g (±19,6m/s²)|±125º/s|400Hz
5	0.02	0.0	0.0	0.0	0.0	4.626	4.659	4.659	4.623	9.853336932373047	0.2154781494140625	0.04249707946777344	2.376556396484375	-3.72314453125	-0.904083251953125	9.788094937133788	0.2519897247314453	0.18255787658691405	0.8544921875	-5.107879638671875	-3.261566162109375	9.969455712890625	0.5021837982177734	-0.17776947326660156	2.605438232421875	-4.73785400390625	-1.773834228515625	ADC|ADS1015|0|0|1|0|±6,144 V|2400 SPS
6	0.024	0.0	0.0	0.0	0.0	4.6290000000000004	4.659	4.659	4.623	9.867103591918944	0.19093758239746092	0.02454056701660156	2.567291259765625	-3.71551513671875	-0.80108642578125	9.785102185058593	0.23702596435546874	0.1610100616455078	0.51116943359375	-5.14984130859375	-3.02886962890625	9.974244116210937	0.48243163452148435	-0.19871873779296872	2.64739990234375	-4.8675537109375	-1.819610595703125	Gen1|Disabled
7	0.028	0.0	0.0	0.0	0.0	4.617	4.656	4.656	4.6290000000000004	9.858125335693359	0.19991583862304688	0.03411737365722656	2.5482177734375	-3.559112548828125	-0.736236572265625	9.78629928588867	0.23104046020507812	0.1484405029296875	0.995635986328125	-4.940032958984375	-3.18145751953125	9.968857162475585	0.4800374328613281	-0.2154781494140625	2.635955810546875	-4.398345947265625	-1.827239990234375	Gen2|Enabled|Noise|0.0|10.0|1668
8	0.032	0.0	0.0	0.0	0.0	4.6290000000000004	4.656	4.659	4.617	9.834781869506836	0.21009119567871093	0.044891281127929686	2.79998779296875	-3.971099853515625	-0.888824462890625	9.773131176757811	0.25318682556152344	0.16639701538085935	0.701904296875	-4.825592041015625	-3.147125244140625	9.952696301269532	0.4836287353515625	-0.18914193115234373	2.6397705078125	-4.669189453125	-1.74713134765625	Gen3|Enabled|Noise|0.0|10.0|128
9	0.036000000000000004	0.0	0.0	0.0	0.0	4.626	4.659	4.659	4.605	9.848548529052733	0.1897404815673828	0.047285482788085934	2.315521240234375	-3.7994384765625	-0.63323974609375	9.78629928588867	0.21727380065917967	0.15682020874023436	0.61798095703125	-4.978179931640625	-3.082275390625	9.982623822021484	0.45190556335449217	-0.1927332336425781	2.628326416015625	-4.627227783203125	-1.70135498046875	Gen4|Enabled|Noise|0.0|10.0|128
10	0.04	0.0	0.0	0.0	0.0	4.638	4.656	4.659	4.6080000000000005	9.868899243164062	0.17477672119140625	0.02693476867675781	2.5634765625	-3.726959228515625	-0.9002685546875	9.80066449584961	0.20709844360351562	0.14903905334472656	0.743865966796875	-5.279541015625	-3.082275390625	9.993397729492187	0.43993455505371093	-0.19871873779296872	2.620697021484375	-4.779815673828125	-1.77001953125	Ctrl|Disabled
11	0.044	0.0	0.0	0.0	0.0	4.623	4.656	4.659	4.617	9.859322436523437	0.19512743530273435	0.03232172241210937	2.544403076171875	-3.734588623046875	-0.70953369140625	9.795876092529296	0.23822306518554687	0.16519991455078123	0.84686279296875	-5.16510009765625	-3.16619873046875	9.984419473266602	0.46208092041015625	-0.18854338073730467	2.796173095703125	-4.726409912109375	-1.895904541015625	
12	0.048	0.0	0.0	0.0	0.0	4.623	4.659	4.659	4.623	9.858125335693359	0.21487959899902342	0.037110125732421874	2.574920654296875	-3.726959228515625	-0.728607177734375	9.779715231323241	0.2507926239013672	0.1562216583251953	0.732421875	-4.99725341796875	-3.223419189453125	9.97783541870117	0.48183308410644526	-0.1771709228515625	2.597808837890625	-4.871368408203125	-1.861572265625	
13	0.052000000000000005	0.0	0.0	0.0	0.0	4.626	4.659	4.659	4.626	9.852738381958007	0.17956512451171874	0.03172317199707031	2.57110595703125	-3.887176513671875	-0.84686279296875	9.775525378417969	0.2292448089599609	0.1562216583251953	0.41961669921875	-4.871368408203125	-2.99072265625	9.980229620361328	0.4572925170898437	-0.18734627990722655	2.64739990234375	-4.520416259765625	-1.6632080078125	
14	0.056	0.0	0.0	0.0	0.0	4.617	4.659	4.656	4.6290000000000004	9.858723886108399	0.17058686828613281	0.029927520751953124	2.655029296875	-3.88336181640625	-0.83160400390625	9.785102185058593	0.21727380065917967	0.15203180541992187	0.438690185546875	-5.252838134765625	-3.261566162109375	9.989806427001952	0.4477157104492187	-0.18136077575683593	2.7008056640625	-4.72259521484375	-1.560211181640625	
15	0.06	0.0	0.0	0.0	0.0	4.6290000000000004	4.656	4.659	4.617	9.867103591918944	0.18614917907714842	0.05746083984375	2.46429443359375	-3.635406494140625	-0.667572021484375	9.773729727172851	0.23403321228027343	0.1771709228515625	0.35858154296875	-4.852294921875	-2.8839111328125	9.97244846496582	0.47285482788085936	-0.19333178405761717	2.567291259765625	-4.528045654296875	-1.773834228515625	
16	0.064	0.0	0.0	0.0	0.0	4.626	4.659	4.659	4.605	9.861716638183593	0.17417817077636719	0.06105214233398437	2.44140625	-3.6468505859375	-0.83160400390625	9.785102185058593	0.21727380065917967	0.1801636749267578	0.63323974609375	-4.856109619140625	-3.2196044921875	9.976039767456054	0.4644751220703125	-0.1849520782470703	2.674102783203125	-4.550933837890625	-1.598358154296875	
17	0.068	0.0	0.0	0.0	0.0	4.626	4.656	4.659	4.6080000000000005	9.865906491088866	0.143652099609375	0.052073886108398436	2.391815185546875	-3.620147705078125	-0.84686279296875	9.80066449584961	0.18734627990722655	0.17477672119140625	0.518798828125	-4.95147705078125	-3.009796142578125	9.998784683227539	0.421978042602539	-0.20051438903808594	2.67791748046875	-4.390716552734375	-1.800537109375	
18	0.07200000000000001	0.0	0.0	0.0	0.0	4.632	4.656	4.659	4.62	9.87009634399414	0.12569558715820311	0.07062894897460938	2.41851806640625	-3.902435302734375	-0.629425048828125	9.7928833404541	0.18375497741699218	0.1879448303222656	0.40435791015625	-4.8828125	-3.131866455078125	9.98501802368164	0.411802685546875	-0.17956512451171874	2.52532958984375	-4.695892333984375	-1.621246337890625	
19	0.076	0.0	0.0	0.0	0.0	4.626	4.659	4.659	4.623	9.840767373657226	0.12689268798828124	0.09995791931152344	2.468109130859375	-3.673553466796875	-0.9002685546875	9.782707983398437	0.17597382202148437	0.21068974609375	0.537872314453125	-4.787445068359375	-3.200531005859375	9.976638317871092	0.41898529052734373	-0.14903905334472656	2.50244140625	-4.49371337890625	-1.705169677734375	
20	0.08	0.0	0.0	0.0	0.0	4.626	4.659	4.656	4.623	9.854534033203125	0.08978256225585937	0.0796072052001953	2.54058837890625	-3.887176513671875	-1.0223388671875	9.785102185058593	0.13168109130859373	0.19991583862304688	0.5035400390625	-5.11932373046875	-3.1890869140625	9.989806427001952	0.364517202758789	-0.15322890625	2.5634765625	-4.810333251953125	-1.7547607421875	
21	0.084	0.0	0.0	0.0	0.0	4.617	4.659	4.656	4.6290000000000004	9.866505041503906	0.07242460021972656	0.08200140686035155	2.41851806640625	-3.849029541015625	-0.64849853515625	9.783306533813477	0.11133037719726561	0.1975216369628906	0.598907470703125	-4.96673583984375	-3.200531005859375	9.998784683227539	0.33578678283691404	-0.15263035583496093	2.582550048828125	-4.53948974609375	-1.708984375	
22	0.088	0.0	0.0	0.0	0.0	4.6290000000000004	4.656	4.662	4.617	9.85752678527832	0.07541735229492187	0.0987608184814453	2.58636474609375	-3.89862060546875	-0.946044921875	9.771934075927733	0.12569558715820311	0.2136824981689453	0.5035400390625	-5.01251220703125	-3.1890869140625	9.974842666625976	0.36092590026855464	-0.1197100830078125	2.765655517578125	-4.718780517578125	-1.83868408203125	
23	0.092	0.0	0.0	0.0	0.0	4.626	4.659	4.659	4.6080000000000005	9.85632968444824	0.07841010437011718	0.09217676391601562	2.5787353515625	-3.7689208984375	-0.8544921875	9.785700735473633	0.1149216796875	0.22086510314941404	0.530242919921875	-5.138397216796875	-3.16619873046875	9.982623822021484	0.34237083740234375	-0.12988544006347655	2.7008056640625	-4.547119140625	-1.8157958984375	
24	0.096	0.0	0.0	0.0	0.0	4.632	4.659	4.659	4.6080000000000005	9.866505041503906	0.0430956298828125	0.09217676391601562	2.40325927734375	-3.74603271484375	-0.865936279296875	9.789890588378906	0.086191259765625	0.21068974609375	0.774383544921875	-4.962921142578125	-2.986907958984375	10.00955859069824	0.32620997619628905	-0.1466448516845703	2.742767333984375	-4.947662353515625	-1.85394287109375	
25	0.1	0.0	0.0	0.0	0.0	4.6290000000000004	4.6530000000000005	4.656	4.62	9.860519537353515	0.06584054565429687	0.0939724151611328	2.4871826171875	-3.71551513671875	-0.812530517578125	9.782707983398437	0.10115502014160156	0.21487959899902342	0.484466552734375	-5.084991455078125	-3.50189208984375	9.988609326171874	0.34177228698730466	-0.13587094421386717	2.47955322265625	-4.703521728515625	-1.605987548828125	
26	0.10400000000000001	0.0	0.0	0.0	0.0	4.626	4.659	4.659	4.623	9.855132583618163	0.07900865478515624	0.09217676391601562	2.407073974609375	-3.9215087890625	-0.80108642578125	9.782707983398437	0.11791443176269531	0.20290859069824219	0.408172607421875	-4.84466552734375	-3.383636474609375	9.97783541870117	0.35015199279785153	-0.13766659545898435	2.712249755859375	-4.7454833984375	-1.995086669921875	
27	0.108	0.0	0.0	0.0	0.0	4.626	4.659	4.659	4.623	9.865906491088866	0.06643909606933593	0.08738836059570312	2.8076171875	-3.566741943359375	-0.6103515625	9.785102185058593	0.09516951599121093	0.18555062866210936	0.522613525390625	-4.909515380859375	-3.0670166015625	9.986813674926758	0.33698388366699217	-0.1562216583251953	2.704620361328125	-4.810333251953125	-1.74713134765625	
28	0.112	0.0	0.0	0.0	0.0	4.617	4.659	4.656	4.6290000000000004	9.861118087768554	0.06763619689941405	0.08798691101074219	2.51007080078125	-3.88336181640625	-0.705718994140625	9.794678991699218	0.10893617553710937	0.18375497741699218	0.568389892578125	-4.932403564453125	-3.143310546875	10.00417163696289	0.33039982910156246	-0.1562216583251953	2.4566650390625	-4.543304443359375	-1.873016357421875	
29	0.116	0.0	0.0	0.0	0.0	4.6290000000000004	4.656	4.659	4.617	9.85752678527832	0.08918401184082031	0.09516951599121093	2.51007080078125	-3.76129150390625	-0.980377197265625	9.785102185058593	0.1227028350830078	0.2154781494140625	0.43487548828125	-4.947662353515625	-3.2958984375	9.986813674926758	0.3597287994384765	-0.15322890625	2.69317626953125	-4.974365234375	-1.861572265625	
30	0.12	0.0	0.0	0.0	0.0	4.626	4.659	4.659	4.605	9.86291373901367	0.09217676391601562	0.08499415893554688	2.5482177734375	-3.76129150390625	-0.827789306640625	9.788094937133788	0.12389993591308593	0.2041056915283203	0.644683837890625	-5.05828857421875	-3.162384033203125	9.984419473266602	0.3597287994384765	-0.15682020874023436	2.55584716796875	-4.8828125	-1.903533935546875	
31	0.124	0.0	0.0	0.0	0.0	4.626	4.659	4.659	4.605	9.854534033203125	0.08798691101074219	0.06823474731445311	2.483367919921875	-3.704071044921875	-0.728607177734375	9.788693487548828	0.12090718383789062	0.17956512451171874	0.60272216796875	-4.84466552734375	-3.032684326171875	9.982623822021484	0.3585316986083984	-0.16759411621093748	2.742767333984375	-4.69970703125	-1.628875732421875	
32	0.128	0.0	0.0	0.0	0.0	4.632	4.6530000000000005	4.659	4.623	9.8449572265625	0.10654197387695312	0.05566518859863281	2.410888671875	-3.772735595703125	-0.598907470703125	9.779715231323241	0.15023615417480468	0.17657237243652343	0.530242919921875	-4.917144775390625	-3.200531005859375	9.967061511230469	0.3890577697753906	-0.17657237243652343	2.50244140625	-4.608154296875	-1.735687255859375	
33	0.132	0.0	0.0	0.0	0.0	4.623	4.659	4.659	4.626	9.849745629882811	0.1304839904785156	0.04249707946777344	2.422332763671875	-3.749847412109375	-0.789642333984375	9.783905084228515	0.1801636749267578	0.1657984649658203	0.453948974609375	-5.13458251953125	-3.269195556640625	9.962871658325195	0.41419688720703124	-0.18435352783203124	2.63214111328125	-4.718780517578125	-1.708984375	
34	0.136	0.0	0.0	0.0	0.0	4.626	4.659	4.659	4.626	9.855132583618163	0.13826514587402344	0.034715924072265626	2.471923828125	-3.74603271484375	-0.667572021484375	9.78629928588867	0.1879448303222656	0.15263035583496093	0.6103515625	-4.863739013671875	-3.0670166015625	9.989806427001952	0.41359833679199215	-0.19632453613281248	2.666473388671875	-4.573822021484375	-1.91497802734375	
35	0.14	0.0	0.0	0.0	0.0	4.62	4.659	4.656	4.6290000000000004	9.855731134033203	0.1562216583251953	0.0430956298828125	2.49481201171875	-3.925323486328125	-0.89263916015625	9.7928833404541	0.20769699401855468	0.15023615417480468	0.49591064453125	-4.9591064453125	-3.223419189453125	9.986215124511718	0.4255693450927734	-0.19512743530273435	2.742767333984375	-4.680633544921875	-1.85394287109375	
36	0.14400000000000002	0.0	0.0	0.0	0.0	4.6290000000000004	4.656	4.659	4.617	9.860519537353515	0.18854338073730467	0.04129997863769531	2.40325927734375	-3.345489501953125	-0.89263916015625	9.785102185058593	0.24480711975097655	0.15083470458984374	0.392913818359375	-4.863739013671875	-3.154754638671875	9.97783541870117	0.45968671875	-0.201112939453125	2.613067626953125	-4.695892333984375	-1.728057861328125	
37	0.148	0.0	0.0	0.0	0.0	4.6290000000000004	4.659	4.659	4.605	9.861716638183593	0.19812018737792966	0.032920272827148434	2.582550048828125	-3.5247802734375	-0.720977783203125	9.789890588378906	0.24779987182617186	0.13826514587402344	0.4425048828125	-4.96673583984375	-3.261566162109375	9.981426721191406	0.47884033203125	-0.21128829650878905	2.5634765625	-4.55474853515625	-1.71661376953125	
38	0.152	0.0	0.0	0.0	0.0	4.632	4.659	4.659	4.6080000000000005	9.866505041503906	0.19572598571777342	0.014963760375976562	2.429962158203125	-3.6163330078125	-0.74005126953125	9.791087689208984	0.258573779296875	0.12330138549804687	0.5645751953125	-5.001068115234375	-2.979278564453125	9.980828170776366	0.48243163452148435	-0.21906945190429686	2.605438232421875	-4.512786865234375	-1.850128173828125	
39	0.156	0.0	0.0	0.0	0.0	4.632	4.6530000000000005	4.659	4.62	9.861118087768554	0.22565350646972654	0.005985504150390624	2.410888671875	-3.719329833984375	-0.77056884765625	9.784503634643555	0.26755203552246093	0.1352723937988281	0.4425048828125	-5.115509033203125	-3.116607666015625	9.97783541870117	0.49859249572753905	-0.21607669982910155	2.8533935546875	-4.64630126953125	-2.14385986328125	
40	0.16	0.0	0.0	0.0	0.0	4.626	4.659	4.659	4.623	9.86291373901367	0.23822306518554687	0.012569558715820313	2.54058837890625	-3.7078857421875	-0.84686279296875	9.787496386718749	0.27952304382324217	0.13168109130859373	0.51116943359375	-4.932403564453125	-3.131866455078125	9.968258612060547	0.5195417602539062	-0.2214636535644531	2.590179443359375	-4.5013427734375	-1.544952392578125	
41	0.164	0.0	0.0	0.0	0.0	4.6290000000000004	4.659	4.656	4.623	9.86291373901367	0.22505495605468748	0.014963760375976562	2.544403076171875	-3.879547119140625	-0.926971435546875	9.785102185058593	0.2771288421630859	0.1406593475341797	0.6103515625	-5.123138427734375	-3.391265869140625	9.973047015380859	0.5135562561035156	-0.22086510314941404	2.81524658203125	-4.734039306640625	-1.689910888671875	
42	0.168	0.0	0.0	0.0	0.0	4.614	4.656	4.656	4.632	9.858125335693359	0.23582886352539062	0.014963760375976562	2.3956298828125	-3.41033935546875	-0.75531005859375	9.78031378173828	0.2819172454833984	0.13287819213867186	0.514984130859375	-5.100250244140625	-3.047943115234375	9.97184991455078	0.5063736511230469	-0.21487959899902342	2.5482177734375	-4.45556640625	-1.682281494140625	
43	0.17200000000000001	0.0	0.0	0.0	0.0	4.632	4.656	4.659	4.611	9.861716638183593	0.25438392639160157	0.010175357055664061	2.307891845703125	-3.704071044921875	-0.957489013671875	9.787496386718749	0.28909985046386716	0.1292868896484375	0.446319580078125	-4.756927490234375	-3.101348876953125	9.97244846496582	0.5410895751953124	-0.22206220397949217	2.643585205078125	-4.726409912109375	-1.697540283203125	
44	0.176	0.0	0.0	0.0	0.0	4.6290000000000004	4.659	4.659	4.605	9.851541281127929	0.25737667846679685	0.012569558715820313	2.7008056640625	-3.864288330078125	-0.79345703125	9.784503634643555	0.3064578125	0.1322796417236328	0.514984130859375	-4.978179931640625	-3.2806396484375	9.974244116210937	0.5398924743652344	-0.20769699401855468	2.658843994140625	-4.764556884765625	-1.76239013671875	
45	0.18	0.0	0.0	0.0	0.0	4.632	4.659	4.656	4.6080000000000005	9.86291373901367	0.24899697265624998	0.010773907470703125	2.197265625	-3.60870361328125	-1.04522705078125	9.780912332153319	0.29269115295410153	0.12808978881835936	0.415802001953125	-4.833221435546875	-3.116607666015625	9.962273107910155	0.5165490081787109	-0.21906945190429686	2.819061279296875	-4.50897216796875	-1.842498779296875	
46	0.184	0.0	0.0	0.0	0.0	4.6290000000000004	4.6530000000000005	4.656	4.62	9.866505041503906	0.2519897247314453	0.016160861206054686	2.47955322265625	-3.86810302734375	-0.77056884765625	9.784503634643555	0.28909985046386716	0.1370680450439453	0.522613525390625	-5.2642822265625	-3.19671630859375	9.969455712890625	0.5297171173095703	-0.21308394775390624	2.758026123046875	-4.52423095703125	-1.70135498046875	
47	0.188	0.0	0.0	0.0	0.0	4.6290000000000004	4.659	4.659	4.623	9.861716638183593	0.24181436767578124	0.027533319091796873	2.410888671875	-3.887176513671875	-0.74005126953125	9.788693487548828	0.2932897033691406	0.13946224670410157	0.3814697265625	-5.100250244140625	-3.23486328125	9.965265859985351	0.526125814819336	-0.201112939453125	2.651214599609375	-4.61578369140625	-1.773834228515625	
48	0.192	0.0	0.0	0.0	0.0	4.626	4.659	4.659	4.626	9.866505041503906	0.22565350646972654	0.044292730712890624	2.521514892578125	-3.71551513671875	-0.8544921875	9.789890588378906	0.2603694305419922	0.15263035583496093	0.67138671875	-4.87518310546875	-3.025054931640625	9.982623822021484	0.49859249572753905	-0.19991583862304688	2.826690673828125	-4.810333251953125	-1.819610595703125	
49	0.196	0.0	0.0	0.0	0.0	4.62	4.656	4.656	4.6290000000000004	9.8694977935791	0.20649989318847656	0.04249707946777344	2.613067626953125	-3.635406494140625	-0.77056884765625	9.791087689208984	0.2555810272216797	0.14484920043945312	0.476837158203125	-5.054473876953125	-3.265380859375	9.981426721191406	0.49380409240722656	-0.19812018737792966	2.696990966796875	-4.69207763671875	-1.678466796875	
50	0.2	0.0	0.0	0.0	0.0	4.6290000000000004	4.656	4.659	4.614	9.859322436523437	0.19871873779296872	0.044891281127929686	2.597808837890625	-3.772735595703125	-0.70953369140625	9.773729727172851	0.23702596435546874	0.15023615417480468	0.606536865234375	-5.10406494140625	-3.215789794921875	9.980229620361328	0.4830301849365234	-0.18375497741699218	2.7313232421875	-4.67681884765625	-1.89971923828125	
51	0.20400000000000001	0.0	0.0	0.0	0.0	4.626	4.659	4.659	4.605	9.855132583618163	0.17417817077636719	0.04908113403320312	2.37274169921875	-3.8909912109375	-0.713348388671875	9.776123928833007	0.22026655273437498	0.16160861206054686	0.759124755859375	-4.848480224609375	-3.143310546875	9.964667309570311	0.44592005920410155	-0.17597382202148437	2.5482177734375	-4.680633544921875	-1.800537109375	
52	0.20800000000000002	0.0	0.0	0.0	0.0	4.6290000000000004	4.659	4.659	4.6080000000000005	9.854534033203125	0.1514332550048828	0.05805939025878906	2.429962158203125	-3.726959228515625	-0.7781982421875	9.785102185058593	0.19093758239746092	0.17178396911621094	0.6256103515625	-4.962921142578125	-3.192901611328125	9.988609326171874	0.4261678955078125	-0.1753752716064453	2.819061279296875	-4.688262939453125	-1.7242431640625	
53	0.212	0.0	0.0	0.0	0.0	4.626	4.6530000000000005	4.659	4.617	9.852738381958007	0.1406593475341797	0.0652419952392578	2.399444580078125	-3.726959228515625	-0.8697509765625	9.783905084228515	0.18136077575683593	0.17118541870117188	0.644683837890625	-4.955291748046875	-3.131866455078125	9.982025271606444	0.4291606475830078	-0.16460136413574217	2.666473388671875	-4.6844482421875	-1.934051513671875	
54	0.216	0.0	0.0	0.0	0.0	4.6290000000000004	4.659	4.659	4.623	9.855731134033203	0.11671733093261719	0.0796072052001953	2.4871826171875	-3.63922119140625	-0.61798095703125	9.78629928588867	0.16280571289062498	0.17956512451171874	0.560760498046875	-4.962921142578125	-3.24249267578125	9.981426721191406	0.4052186309814453	-0.15442600708007811	2.590179443359375	-4.604339599609375	-1.712799072265625	
55	0.22	0.0	0.0	0.0	0.0	4.626	4.659	4.659	4.626	9.86411083984375	0.09576806640624999	0.07781155395507812	2.4566650390625	-3.83758544921875	-0.911712646484375	9.797671743774414	0.13766659545898435	0.1879448303222656	0.31280517578125	-4.909515380859375	-3.04412841796875	9.992799179077148	0.3854664672851562	-0.14604630126953125	2.532958984375	-4.45556640625	-1.697540283203125	
56	0.224	0.0	0.0	0.0	0.0	4.617	4.659	4.656	4.632	9.861716638183593	0.08259995727539061	0.08439560852050781	2.41851806640625	-3.95965576171875	-0.86212158203125	9.798270294189452	0.12808978881835936	0.19393033447265623	0.57220458984375	-4.82177734375	-3.101348876953125	9.996390481567381	0.35134909362792965	-0.1514332550048828	2.7618408203125	-4.76837158203125	-1.758575439453125	
57	0.228	0.0	0.0	0.0	0.0	4.632	4.659	4.659	4.617	9.86411083984375	0.06284779357910156	0.0796072052001953	2.498626708984375	-3.787994384765625	-0.81634521484375	9.78629928588867	0.10474632263183593	0.20709844360351562	0.583648681640625	-5.039215087890625	-3.28826904296875	9.990404977416992	0.3315969299316406	-0.13826514587402344	2.66265869140625	-4.79888916015625	-1.67083740234375	
58	0.232	0.0	0.0	0.0	0.0	4.6290000000000004	4.659	4.659	4.6080000000000005	9.86351228942871	0.0526724365234375	0.09457096557617187	2.605438232421875	-3.787994384765625	-0.80108642578125	9.784503634643555	0.09816226806640624	0.20051438903808594	0.270843505859375	-5.130767822265625	-3.177642822265625	9.982025271606444	0.33099837951660155	-0.13347674255371092	2.483367919921875	-4.589080810546875	-1.88446044921875	
59	0.23600000000000002	0.0	0.0	0.0	0.0	4.635	4.656	4.659	4.611	9.862315188598632	0.027533319091796873	0.09157821350097656	2.6092529296875	-3.83758544921875	-0.682830810546875	9.78629928588867	0.07362170104980469	0.2088940948486328	0.431060791015625	-5.138397216796875	-3.2806396484375	9.97903251953125	0.316034619140625	-0.14006079711914063	2.7008056640625	-4.802703857421875	-1.697540283203125	
60	0.24	0.0	0.0	0.0	0.0	4.6290000000000004	4.6530000000000005	4.659	4.62	9.85632968444824	0.016759411621093748	0.09277531433105468	2.5482177734375	-3.734588623046875	-0.640869140625	9.788693487548828	0.06045359191894531	0.20051438903808594	0.63323974609375	-5.115509033203125	-3.173828125	9.986215124511718	0.30406361083984373	-0.13168109130859373	2.84576416015625	-4.589080810546875	-1.735687255859375	
61	0.244	0.0	0.0	0.0	0.0	4.623	4.659	4.659	4.626	9.853336932373047	0.01915361328125	0.08798691101074219	2.44140625	-3.8604736328125	-0.79345703125	9.785102185058593	0.06883329772949218	0.21428104858398436	0.78582763671875	-5.04302978515625	-3.108978271484375	9.987412225341796	0.3022679595947265	-0.13407529296874998	2.605438232421875	-4.611968994140625	-1.71661376953125	
62	0.248	0.0	0.0	0.0	0.0	4.626	4.659	4.659	4.626	9.849745629882811	0.02454056701660156	0.08918401184082031	2.399444580078125	-3.818511962890625	-0.95367431640625	9.783905084228515	0.06344634399414062	0.21068974609375	0.69427490234375	-5.0201416015625	-2.979278564453125	9.986215124511718	0.2914940521240234	-0.1388636962890625	2.89154052734375	-4.7149658203125	-1.678466796875	
63	0.252	0.0	0.0	0.0	0.0	4.62	4.659	4.656	4.6290000000000004	9.850344180297851	0.023942016601562498	0.07242460021972656	2.3956298828125	-3.5858154296875	-0.69427490234375	9.788693487548828	0.05805939025878906	0.20051438903808594	0.518798828125	-5.062103271484375	-3.307342529296875	9.986215124511718	0.28909985046386716	-0.14484920043945312	2.52532958984375	-4.76837158203125	-1.79290771484375	
64	0.256	0.0	0.0	0.0	0.0	4.6290000000000004	4.659	4.662	4.614	9.847949978637695	0.032920272827148434	0.08918401184082031	2.471923828125	-3.95965576171875	-1.003265380859375	9.78629928588867	0.07541735229492187	0.19572598571777342	0.57220458984375	-4.924774169921875	-3.04412841796875	9.99160207824707	0.3082534637451172	-0.14963760375976562	2.658843994140625	-4.711151123046875	-1.8463134765625	
65	0.26	0.0	0.0	0.0	0.0	4.6290000000000004	4.659	4.659	4.6080000000000005	9.849745629882811	0.040701428222656245	0.07362170104980469	2.3956298828125	-3.86810302734375	-0.682830810546875	9.784503634643555	0.086191259765625	0.1879448303222656	0.682830810546875	-5.0048828125	-3.101348876953125	9.987412225341796	0.3190273712158203	-0.15023615417480468	2.773284912109375	-4.833221435546875	-1.644134521484375	
66	0.264	0.0	0.0	0.0	0.0	4.632	4.659	4.659	4.614	9.861716638183593	0.04848258361816406	0.07481880187988281	2.44903564453125	-3.95965576171875	-0.827789306640625	9.790489138793944	0.08738836059570312	0.18914193115234373	0.5950927734375	-5.1116943359375	-3.192901611328125	9.983222372436522	0.3178302703857422	-0.16879121704101563	2.55584716796875	-4.6234130859375	-1.8310546875	
67	0.268	0.0	0.0	0.0	0.0	4.6290000000000004	4.6530000000000005	4.659	4.62	9.868300692749022	0.07721300354003906	0.06703764648437499	2.66265869140625	-3.662109375	-0.7476806640625	9.792284790039062	0.12090718383789062	0.18255787658691405	0.48065185546875	-5.100250244140625	-3.162384033203125	9.98501802368164	0.3573345977783203	-0.16699556579589842	2.536773681640625	-4.688262939453125	-1.65557861328125	
68	0.272	0.0	0.0	0.0	0.0	4.626	4.659	4.662	4.623	9.860519537353515	0.08259995727539061	0.06464344482421874	2.35748291015625	-3.749847412109375	-0.789642333984375	9.787496386718749	0.12569558715820311	0.181959326171875	0.614166259765625	-4.901885986328125	-3.215789794921875	9.979631069946288	0.37409400939941406	-0.17597382202148437	2.62451171875	-4.7149658203125	-1.86920166015625	
69	0.276	0.0	0.0	0.0	0.0	4.623	4.656	4.659	4.626	9.85692823486328	0.09935936889648436	0.05327098693847656	2.559661865234375	-3.833770751953125	-0.78582763671875	9.785102185058593	0.1406593475341797	0.16460136413574217	0.621795654296875	-5.02777099609375	-3.063201904296875	9.98501802368164	0.3752911102294922	-0.17836802368164062	2.66265869140625	-4.6234130859375	-1.739501953125	
70	0.28	0.0	0.0	0.0	0.0	4.62	4.659	4.656	4.6290000000000004	9.847351428222655	0.1274912384033203	0.04608838195800781	2.471923828125	-3.814697265625	-0.743865966796875	9.781510882568359	0.16879121704101563	0.1580173095703125	0.446319580078125	-4.993438720703125	-3.314971923828125	9.984419473266602	0.4010287780761719	-0.17776947326660156	2.44140625	-4.528045654296875	-1.842498779296875	
71	0.28400000000000003	0.0	0.0	0.0	0.0	4.6290000000000004	4.659	4.659	4.614	9.852139831542969	0.1562216583251953	0.04129997863769531	2.49481201171875	-3.70025634765625	-0.8392333984375	9.785102185058593	0.18255787658691405	0.15382745666503905	0.576019287109375	-4.817962646484375	-3.047943115234375	9.976638317871092	0.4261678955078125	-0.19512743530273435	2.681732177734375	-4.791259765625	-1.941680908203125	
72	0.28800000000000003	0.0	0.0	0.0	0.0	4.632	4.656	4.659	4.605	9.861716638183593	0.17597382202148437	0.030526071166992186	2.410888671875	-3.818511962890625	-0.66375732421875	9.785102185058593	0.20649989318847656	0.15203180541992187	0.885009765625	-4.085540771484375	-3.0364990234375	9.975441217041014	0.4525041137695312	-0.19692308654785154	2.3956298828125	-4.4097900390625	-1.842498779296875	
73	0.292	0.0	0.0	0.0	0.0	4.6290000000000004	4.659	4.659	4.614	9.864709390258788	0.19033903198242186	0.028730419921875	2.44903564453125	-3.89862060546875	-0.823974609375	9.785102185058593	0.2262520568847656	0.15442600708007811	0.476837158203125	-4.82940673828125	-3.15093994140625	9.983820922851562	0.4686649749755859	-0.20470424194335937	2.635955810546875	-4.608154296875	-1.895904541015625	
74	0.296	0.0	0.0	0.0	0.0	4.623	4.6530000000000005	4.659	4.62	9.866505041503906	0.19931728820800781	0.03651157531738281	2.32696533203125	-3.780364990234375	-0.99945068359375	9.788094937133788	0.2501940734863281	0.14724340209960937	0.518798828125	-4.9285888671875	-3.34930419921875	9.984419473266602	0.479438882446289	-0.20709844360351562	2.6397705078125	-4.734039306640625	-1.861572265625	
75	0.3	0.0	0.0	0.0	0.0	4.626	4.659	4.659	4.623	9.86291373901367	0.2292448089599609	0.01915361328125	2.349853515625	-3.814697265625	-0.87738037109375	9.783905084228515	0.2711433380126953	0.15322890625	0.507354736328125	-4.932403564453125	-3.078460693359375	9.974244116210937	0.49859249572753905	-0.2088940948486328	2.605438232421875	-4.69207763671875	-1.804351806640625	
76	0.304	0.0	0.0	0.0	0.0	4.626	4.656	4.659	4.626	9.85692823486328	0.24779987182617186	0.0383072265625	2.559661865234375	-3.60107421875	-0.827789306640625	9.788094937133788	0.2861070983886719	0.14185644836425781	0.560760498046875	-4.947662353515625	-3.18145751953125	9.975441217041014	0.5255272644042969	-0.20350714111328125	2.803802490234375	-4.6844482421875	-1.79290771484375	
77	0.308	0.0	0.0	0.0	0.0	4.62	4.659	4.656	4.6290000000000004	9.852139831542969	0.2501940734863281	0.028730419921875	2.3193359375	-3.772735595703125	-0.904083251953125	9.785102185058593	0.29089550170898437	0.13467384338378904	0.606536865234375	-5.0048828125	-3.02886962890625	9.97125136413574	0.5321113189697265	-0.2136824981689453	2.7008056640625	-4.50897216796875	-1.758575439453125	
78	0.312	0.0	0.0	0.0	0.0	4.6290000000000004	4.659	4.659	4.611	9.85632968444824	0.2699462371826172	0.02154781494140625	2.483367919921875	-3.8299560546875	-0.919342041015625	9.785102185058593	0.3064578125	0.14604630126953125	0.362396240234375	-5.252838134765625	-3.276824951171875	9.976039767456054	0.5476736297607422	-0.2041056915283203	2.67791748046875	-4.73785400390625	-1.537322998046875	
79	0.316	0.0	0.0	0.0	0.0	4.6290000000000004	4.659	4.662	4.6080000000000005	9.853935482788085	0.28012159423828126	0.031124621582031248	2.231597900390625	-3.627777099609375	-0.789642333984375	9.78689783630371	0.3280056274414062	0.1514332550048828	0.457763671875	-4.863739013671875	-3.082275390625	9.97903251953125	0.55545478515625	-0.20290859069824219	2.712249755859375	-4.718780517578125	-1.895904541015625	
80	0.32	0.0	0.0	0.0	0.0	4.632	4.659	4.659	4.614	9.859322436523437	0.277727392578125	0.01915361328125	2.50244140625	-3.85284423828125	-0.858306884765625	9.785102185058593	0.3190273712158203	0.15861585998535155	0.614166259765625	-4.955291748046875	-3.27301025390625	9.97903251953125	0.556053335571289	-0.2088940948486328	2.7923583984375	-4.6844482421875	-1.60980224609375	
81	0.324	0.0	0.0	0.0	0.0	4.6290000000000004	4.65	4.659	4.62	9.855731134033203	0.2759317413330078	0.02454056701660156	2.50244140625	-4.032135009765625	-0.72479248046875	9.775525378417969	0.3190273712158203	0.15023615417480468	0.698089599609375	-4.833221435546875	-3.208160400390625	9.982623822021484	0.5578489868164063	-0.20709844360351562	2.838134765625	-4.703521728515625	-1.636505126953125	
82	0.328	0.0	0.0	0.0	0.0	4.626	4.659	4.659	4.626	9.846752877807617	0.2747346405029297	0.020949264526367185	2.323150634765625	-3.635406494140625	-0.83160400390625	9.7683427734375	0.3130418670654297	0.1562216583251953	0.354766845703125	-4.863739013671875	-2.96783447265625	9.969455712890625	0.55545478515625	-0.20171148986816406	2.7313232421875	-4.84466552734375	-1.796722412109375	
83	0.332	0.0	0.0	0.0	0.0	4.623	4.659	4.659	4.623	9.861118087768554	0.2711433380126953	0.03950432739257812	2.34222412109375	-3.696441650390625	-0.797271728515625	9.782707983398437	0.31004911499023435	0.16519991455078123	0.652313232421875	-4.825592041015625	-3.143310546875	9.97783541870117	0.5416881256103515	-0.18914193115234373	2.628326416015625	-4.6539306640625	-1.708984375	
84	0.336	0.0	0.0	0.0	0.0	4.62	4.656	4.6530000000000005	4.632	9.854534033203125	0.2537853759765625	0.03950432739257812	2.300262451171875	-3.726959228515625	-0.965118408203125	9.780912332153319	0.3010708587646484	0.16220716247558592	0.362396240234375	-4.901885986328125	-3.265380859375	9.97903251953125	0.5333084197998047	-0.19093758239746092	2.63214111328125	-4.474639892578125	-1.834869384765625	
85	0.34	0.0	0.0	0.0	0.0	4.632	4.659	4.659	4.611	9.859322436523437	0.23822306518554687	0.05087678527832031	2.3956298828125	-3.749847412109375	-0.823974609375	9.78629928588867	0.2885013000488281	0.1562216583251953	0.46539306640625	-5.138397216796875	-3.13568115234375	9.97903251953125	0.5267243652343749	-0.19153613281249998	2.7313232421875	-4.711151123046875	-1.804351806640625	
86	0.34400000000000003	0.0	0.0	0.0	0.0	4.6290000000000004	4.659	4.659	4.605	9.86351228942871	0.22445640563964842	0.05027823486328125	2.452850341796875	-3.66973876953125	-0.667572021484375	9.777919580078125	0.27293898925781246	0.15682020874023436	0.499725341796875	-4.909515380859375	-3.3111572265625	9.974842666625976	0.508169302368164	-0.1771709228515625	2.655029296875	-4.730224609375	-1.82342529296875	
87	0.34800000000000003	0.0	0.0	0.0	0.0	4.6290000000000004	4.659	4.659	4.614	9.859920986938477	0.20290859069824219	0.04848258361816406	2.475738525390625	-3.856658935546875	-0.8544921875	9.781510882568359	0.25139117431640623	0.16041151123046873	0.5645751953125	-4.856109619140625	-3.0517578125	9.974244116210937	0.49859249572753905	-0.17417817077636719	2.74658203125	-4.497528076171875	-1.68609619140625	
88	0.352	0.0	0.0	0.0	0.0	4.626	4.65	4.659	4.617	9.855731134033203	0.18555062866210936	0.06404489440917968	2.460479736328125	-3.82232666015625	-0.659942626953125	9.782707983398437	0.23822306518554687	0.1693897674560547	0.81634521484375	-5.126953125	-3.1280517578125	9.973047015380859	0.47165772705078124	-0.16819266662597654	2.696990966796875	-4.5013427734375	-1.987457275390625	
89	0.356	0.0	0.0	0.0	0.0	4.632	4.659	4.659	4.626	9.85692823486328	0.16041151123046873	0.05566518859863281	2.63214111328125	-3.6773681640625	-0.66375732421875	9.78629928588867	0.20530279235839843	0.1801636749267578	0.45013427734375	-5.146026611328125	-3.30352783203125	9.97903251953125	0.4465186096191406	-0.16998831787109375	2.704620361328125	-4.673004150390625	-1.873016357421875	
90	0.36	0.0	0.0	0.0	0.0	4.623	4.659	4.659	4.626	9.86411083984375	0.13946224670410157	0.06943184814453125	2.47955322265625	-3.82232666015625	-0.728607177734375	9.789890588378906	0.1801636749267578	0.19213468322753904	0.644683837890625	-5.0201416015625	-3.131866455078125	9.983820922851562	0.42377369384765623	-0.1592144104003906	2.69317626953125	-4.383087158203125	-1.800537109375	
91	0.364	0.0	0.0	0.0	0.0	4.614	4.659	4.6530000000000005	4.6290000000000004	9.859322436523437	0.12210428466796874	0.08259995727539061	2.529144287109375	-3.879547119140625	-0.797271728515625	9.794678991699218	0.1640028137207031	0.19333178405761717	0.881195068359375	-4.974365234375	-3.223419189453125	9.986215124511718	0.4070142822265625	-0.14903905334472656	2.8228759765625	-4.772186279296875	-1.728057861328125	
92	0.368	0.0	0.0	0.0	0.0	4.6290000000000004	4.659	4.659	4.611	9.861118087768554	0.10295067138671875	0.08259995727539061	2.620697021484375	-3.681182861328125	-0.896453857421875	9.785700735473633	0.14305354919433594	0.1897404815673828	0.5950927734375	-5.01251220703125	-3.284454345703125	9.987412225341796	0.36810850524902344	-0.14425065002441406	2.7313232421875	-4.669189453125	-1.651763916015625	
93	0.372	0.0	0.0	0.0	0.0	4.6290000000000004	4.659	4.659	4.605	9.85692823486328	0.07062894897460938	0.07302315063476562	2.44140625	-3.74603271484375	-0.762939453125	9.78629928588867	0.12808978881835936	0.20051438903808594	0.530242919921875	-4.99725341796875	-3.108978271484375	9.984419473266602	0.3585316986083984	-0.15682020874023436	2.6702880859375	-4.566192626953125	-1.8463134765625	
94	0.376	0.0	0.0	0.0	0.0	4.6290000000000004	4.659	4.659	4.614	9.861118087768554	0.061650692749023434	0.0652419952392578	2.597808837890625	-3.85284423828125	-0.95367431640625	9.785700735473633	0.10354922180175781	0.19033903198242186	0.713348388671875	-5.077362060546875	-3.08990478515625	9.988609326171874	0.34117373657226563	-0.14903905334472656	2.5177001953125	-4.581451416015625	-1.5716552734375	
95	0.38	0.0	0.0	0.0	0.0	4.635	4.6530000000000005	4.659	4.623	9.85632968444824	0.059256491088867186	0.06943184814453125	2.567291259765625	-3.513336181640625	-0.904083251953125	9.785102185058593	0.08798691101074219	0.19033903198242186	0.469207763671875	-4.947662353515625	-3.24249267578125	9.982025271606444	0.32620997619628905	-0.1562216583251953	2.582550048828125	-4.642486572265625	-1.83868408203125	
96	0.384	0.0	0.0	0.0	0.0	4.623	4.659	4.659	4.626	9.85632968444824	0.044292730712890624	0.08259995727539061	2.353668212890625	-3.833770751953125	-0.652313232421875	9.785102185058593	0.076614453125	0.17477672119140625	0.55694580078125	-4.73785400390625	-2.95257568359375	9.986215124511718	0.3136404174804687	-0.1514332550048828	2.635955810546875	-4.596710205078125	-1.68609619140625	
97	0.388	0.0	0.0	0.0	0.0	4.626	4.659	4.659	4.6290000000000004	9.861118087768554	0.025139117431640625	0.08379705810546874	2.582550048828125	-3.749847412109375	-0.79345703125	9.785102185058593	0.06105214233398437	0.17298106994628906	0.606536865234375	-5.11932373046875	-3.116607666015625	9.988010775756836	0.29269115295410153	-0.1640028137207031	2.758026123046875	-4.741668701171875	-1.834869384765625	
98	0.392	0.0	0.0	0.0	0.0	4.62	4.659	4.6530000000000005	4.6290000000000004	9.858723886108399	0.017357962036132813	0.076614453125	2.349853515625	-3.780364990234375	-0.77056884765625	9.785102185058593	0.06045359191894531	0.16819266662597654	0.331878662109375	-5.023956298828125	-3.154754638671875	9.988609326171874	0.2950853546142578	-0.16998831787109375	2.750396728515625	-4.52423095703125	-1.880645751953125	
99	0.396	0.0	0.0	0.0	0.0	4.6290000000000004	4.659	4.659	4.611	9.87009634399414	0.0143652099609375	0.06763619689941405	2.506256103515625	-3.627777099609375	-0.87738037109375	9.787496386718749	0.06105214233398437	0.17298106994628906	0.720977783203125	-4.94384765625	-3.063201904296875	9.989207876586914	0.29269115295410153	-0.18076222534179687	2.613067626953125	-4.6539306640625	-1.8157958984375	
100	0.4	0.0	0.0	0.0	0.0	4.6290000000000004	4.659	4.659	4.605	9.86291373901367	0.015562310791015624	0.07422025146484375	2.349853515625	-3.826141357421875	-0.72479248046875	9.78629928588867	0.06105214233398437	0.16759411621093748	0.52642822265625	-4.894256591796875	-3.108978271484375	9.990404977416992	0.2980781066894531	-0.17657237243652343	2.69317626953125	-4.695892333984375	-1.77001953125	
101	0.404	0.0	0.0	0.0	0.0	4.632	4.656	4.659	4.614	9.858125335693359	0.023343466186523436	0.06344634399414062	2.4566650390625	-3.734588623046875	-0.942230224609375	9.78031378173828	0.06284779357910156	0.1580173095703125	1.10626220703125	-5.24139404296875	-3.11279296875	9.976638317871092	0.30526071166992186	-0.18614917907714842	2.64739990234375	-4.688262939453125	-1.827239990234375	
102	0.40800000000000003	0.0	0.0	0.0	0.0	4.6290000000000004	4.6530000000000005	4.659	4.62	9.8449572265625	0.03950432739257812	0.06883329772949218	2.475738525390625	-3.570556640625	-0.81634521484375	9.777919580078125	0.05027823486328125	0.18734627990722655	0.57220458984375	-5.279541015625	-3.200531005859375	9.991003527832031	0.30885201416015623	-0.18555062866210936	2.681732177734375	-4.596710205078125	-1.83868408203125	
103	0.41200000000000003	0.0	0.0	0.0	0.0	4.6290000000000004	4.659	4.659	4.626	9.860519537353515	0.04608838195800781	0.059256491088867186	2.66265869140625	-3.910064697265625	-1.041412353515625	9.808445651245117	0.07601590270996093	0.15382745666503905	0.652313232421875	-5.039215087890625	-3.482818603515625	10.007762939453125	0.3651157531738281	-0.22266075439453123	2.6092529296875	-4.61578369140625	-1.766204833984375	
104	0.41600000000000004	0.0	0.0	0.0	0.0	4.62	4.659	4.659	4.626	9.8311905670166	0.09516951599121093	0.0909796630859375	2.689361572265625	-3.688812255859375	-0.774383544921875	9.764751470947266	0.12330138549804687	0.20350714111328125	0.743865966796875	-4.7607421875	-2.986907958984375	9.991003527832031	0.38666356811523434	-0.18614917907714842	2.651214599609375	-4.69207763671875	-1.54876708984375	
105	0.42	0.0	0.0	0.0	0.0	4.617	4.659	4.6530000000000005	4.6290000000000004	9.86291373901367	0.006584054565429687	0.05327098693847656	2.4871826171875	-4.06646728515625	-0.659942626953125	9.810839852905273	0.040102877807617184	0.12569558715820311	0.728607177734375	-4.81414794921875	-3.31878662109375	10.020931048583984	0.2549824768066406	-0.229843359375	2.64739990234375	-4.642486572265625	-1.82342529296875	
106	0.424	0.0	0.0	0.0	0.0	4.6290000000000004	4.659	4.662	4.617	9.82460651245117	0.1879448303222656	0.08319850769042968	2.605438232421875	-3.955841064453125	-0.81634521484375	9.770736975097655	0.2537853759765625	0.14544775085449219	0.35858154296875	-5.352020263671875	-3.131866455078125	9.987412225341796	0.4950011932373047	-0.19632453613281248	2.7923583984375	-4.665374755859375	-1.728057861328125	
107	0.428	0.0	0.0	0.0	0.0	4.6290000000000004	4.659	4.659	4.6080000000000005	9.868899243164062	0.06045359191894531	0.055066638183593745	2.307891845703125	-3.66973876953125	-0.69427490234375	9.814431155395507	0.07841010437011718	0.10953472595214843	0.507354736328125	-4.932403564453125	-3.307342529296875	10.015544094848632	0.32082302246093747	-0.258573779296875	2.716064453125	-4.7149658203125	-1.6326904296875	
108	0.432	0.0	0.0	0.0	0.0	4.623	4.656	4.659	4.614	9.850344180297851	0.14784195251464843	-0.01915361328125	2.67791748046875	-3.849029541015625	-1.03759765625	9.770736975097655	0.2328361114501953	0.1562216583251953	0.789642333984375	-4.863739013671875	-3.131866455078125	9.938331091308592	0.45190556335449217	-0.17357962036132812	2.7008056640625	-4.787445068359375	-1.94549560546875	
109	0.436	0.0	0.0	0.0	0.0	4.626	4.659	4.659	4.62	9.889249957275391	0.10594342346191406	0.04608838195800781	2.246856689453125	-3.780364990234375	-0.782012939453125	9.943119494628906	0.1406593475341797	0.14903905334472656	0.408172607421875	-4.81414794921875	-3.093719482421875	10.02392380065918	0.3938461730957031	-0.2753331909179687	2.83050537109375	-4.802703857421875	-1.850128173828125	
110	0.44	0.0	0.0	0.0	0.0	4.626	4.659	4.662	4.626	9.827599264526366	0.21128829650878905	-0.017357962036132813	2.73895263671875	-3.849029541015625	-0.858306884765625	9.757568865966796	0.3274070770263672	0.16519991455078123	0.6561279296875	-5.1116943359375	-3.0975341796875	9.909600671386718	0.5578489868164063	-0.1657984649658203	2.803802490234375	-4.75311279296875	-1.766204833984375	
111	0.444	0.0	0.0	0.0	0.0	4.623	4.659	4.659	4.6290000000000004	9.858125335693359	0.08080430603027343	0.05985504150390625	2.593994140625	-3.780364990234375	-1.132965087890625	9.788693487548828	0.10235212097167969	0.14784195251464843	0.48065185546875	-4.974365234375	-3.185272216796875	10.037091909790039	0.3321954803466797	-0.28969840087890625	2.49481201171875	-4.8370361328125	-1.8310546875	
112	0.448	0.0	0.0	0.0	0.0	4.6290000000000004	4.659	4.6530000000000005	4.6290000000000004	9.835380419921874	0.2555810272216797	-0.020350714111328123	2.819061279296875	-4.09698486328125	-1.06048583984375	9.758167416381836	0.41359833679199215	0.18136077575683593	0.644683837890625	-4.974365234375	-3.391265869140625	9.900023864746093	0.6075286712646484	-0.1370680450439453	2.54058837890625	-4.76837158203125	-1.94549560546875	
113	0.452	0.0	0.0	0.0	0.0	4.6290000000000004	4.659	4.659	4.6080000000000005	9.840168823242188	0.32920272827148434	-0.013766659545898436	2.44140625	-3.673553466796875	-0.896453857421875	9.794678991699218	0.16160861206054686	0.15442600708007811	0.431060791015625	-4.993438720703125	-2.964019775390625	9.957484704589843	0.45669396667480466	-0.17597382202148437	2.765655517578125	-4.730224609375	-1.750946044921875	
114	0.456	0.0	0.0	0.0	0.0	4.6290000000000004	4.659	4.659	4.6080000000000005	9.828197814941406	0.2472013214111328	-0.0017956512451171875	2.895355224609375	-3.85284423828125	-0.919342041015625	9.718663088989258	0.3315969299316406	0.18734627990722655	0.6561279296875	-4.78363037109375	-3.429412841796875	9.883264453125	0.5770026000976562	-0.11611878051757812	2.58636474609375	-4.78363037109375	-1.972198486328125	
115	0.46	0.0	0.0	0.0	0.0	4.632	4.659	4.659	4.617	9.843760125732421	0.37888241271972656	-0.0005985504150390625	2.410888671875	-3.662109375	-0.881195068359375	9.791087689208984	0.16759411621093748	0.1562216583251953	0.54168701171875	-4.978179931640625	-2.84576416015625	9.94671079711914	0.4584896179199218	-0.1562216583251953	2.513885498046875	-4.7607421875	-1.678466796875	
116	0.464	0.0	0.0	0.0	0.0	4.6290000000000004	4.659	4.659	4.623	9.83897172241211	0.22565350646972654	0.05805939025878906	2.6092529296875	-3.772735595703125	-0.858306884765625	9.724050042724608	0.39923312683105466	0.19333178405761717	0.55694580078125	-4.665374755859375	-3.238677978515625	9.981426721191406	0.5823895538330078	-0.23104046020507812	2.750396728515625	-4.608154296875	-1.834869384765625	
117	0.468	0.0	0.0	0.0	0.0	4.626	4.659	4.662	4.623	9.828197814941406	0.37409400939941406	0.027533319091796873	2.349853515625	-3.94439697265625	-0.79345703125	9.746794958496093	0.27892449340820313	0.13168109130859373	0.644683837890625	-5.28717041015625	-3.154754638671875	9.911396322631836	0.43514615173339843	-0.11731588134765625	2.3345947265625	-4.73785400390625	-1.71661376953125	
118	0.47200000000000003	0.0	0.0	0.0	0.0	4.623	4.659	4.659	4.626	9.828197814941406	0.20470424194335937	0.07362170104980469	2.34222412109375	-3.566741943359375	-1.01470947265625	9.713276135253906	0.39803602600097654	0.22026655273437498	0.6256103515625	-4.730224609375	-3.25775146484375	9.977236868286132	0.5626373901367188	-0.229843359375	2.628326416015625	-4.779815673828125	-1.9378662109375	
119	0.47600000000000003	0.0	0.0	0.0	0.0	4.626	4.659	4.6530000000000005	4.6290000000000004	9.843161575317382	0.4052186309814453	0.015562310791015624	2.41851806640625	-3.88336181640625	-0.812530517578125	9.752780462646484	0.33698388366699217	0.12988544006347655	0.55694580078125	-5.123138427734375	-3.086090087890625	9.909600671386718	0.7499836700439453	-0.055066638183593745	2.7008056640625	-4.550933837890625	-1.59454345703125	
120	0.48	0.0	0.0	0.0	0.0	4.6290000000000004	4.659	4.662	4.6080000000000005	9.849147079467773	0.15861585998535155	0.08319850769042968	2.44903564453125	-3.719329833984375	-0.96893310546875	9.780912332153319	0.2885013000488281	0.17776947326660156	0.79345703125	-4.96673583984375	-3.116607666015625	9.950302099609374	0.536899722290039	-0.20829554443359374	2.696990966796875	-4.520416259765625	-1.86920166015625	
121	0.484	0.0	0.0	0.0	0.0	4.632	4.656	4.659	4.6080000000000005	9.897629663085937	0.23523031311035156	0.10893617553710937	2.567291259765625	-3.7689208984375	-0.81634521484375	9.758167416381836	0.2765302917480469	0.1274912384033203	0.3814697265625	-5.0201416015625	-3.02886962890625	9.896432562255859	0.6973112335205077	-0.008978256225585938	2.979278564453125	-4.69970703125	-1.5869140625	
122	0.488	0.0	0.0	0.0	0.0	4.6290000000000004	4.656	4.659	4.617	9.842563024902343	0.14305354919433594	0.09217676391601562	2.300262451171875	-3.88336181640625	-0.9613037109375	9.788693487548828	0.34656069030761716	0.17956512451171874	0.804901123046875	-4.974365234375	-3.387451171875	9.968258612060547	0.5195417602539062	-0.29568390502929687	2.765655517578125	-4.688262939453125	-1.922607421875	
123	0.492	0.0	0.0	0.0	0.0	4.626	4.659	4.659	4.62	9.904812268066406	0.21906945190429686	0.12030863342285156	2.44903564453125	-3.8604736328125	-0.621795654296875	9.783905084228515	0.42437224426269526	0.29927520751953124	0.667572021484375	-5.138397216796875	-3.025054931640625	9.89523546142578	0.6566098052978515	0.022146365356445312	2.689361572265625	-4.573822021484375	-1.605987548828125	
124	0.496	0.0	0.0	0.0	0.0	4.626	4.659	4.659	4.623	9.819818109130859	0.07422025146484375	0.09816226806640624	2.620697021484375	-3.753662109375	-0.86212158203125	9.779116680908203	0.29089550170898437	0.19213468322753904	0.782012939453125	-5.100250244140625	-3.265380859375	10.111910711669921	0.25258827514648435	-0.2902969512939453	2.593994140625	-4.46319580078125	-2.109527587890625	
125	0.5	0.0	0.0	0.0	0.0	4.626	4.659	4.659	4.6290000000000004	9.929951385498047	0.21308394775390624	0.1406593475341797	2.61688232421875	-3.856658935546875	-0.69427490234375	9.797073193359374	0.45190556335449217	0.297479556274414	0.469207763671875	-5.06591796875	-3.002166748046875	9.892841259765625	0.6769605194091797	0.017357962036132813	2.72369384765625	-4.497528076171875	-1.39617919921875	
126	0.504	0.0	0.0	0.0	0.0	4.6290000000000004	4.659	4.6530000000000005	4.626	9.97125136413574	0.009576806640625	0.028730419921875	1.25885009765625	-3.200531005859375	-0.885009765625	9.948506448364258	0.07422025146484375	0.09157821350097656	0.732421875	-5.207061767578125	-3.444671630859375	10.130465774536132	0.2059013427734375	-0.31962592163085934	2.490997314453125	-4.512786865234375	-2.13623046875	
127	0.508	0.0	0.0	0.0	0.0	4.626	4.659	4.662	4.6080000000000005	9.924564431762695	0.1580173095703125	0.16998831787109375	2.796173095703125	-4.21905517578125	-0.568389892578125	9.787496386718749	0.4070142822265625	0.29388825378417965	0.40435791015625	-5.062103271484375	-3.11279296875	10.019733947753906	0.6069301208496093	-0.22744915771484372	2.529144287109375	-4.688262939453125	-1.583099365234375	
128	0.512	0.0	0.0	0.0	0.0	4.6290000000000004	4.656	4.659	4.602	9.981426721191406	-0.010773907470703125	0.03890577697753906	1.3580322265625	-3.162384033203125	-0.8544921875	9.945513696289062	0.06703764648437499	0.07242460021972656	0.926971435546875	-4.9896240234375	-3.4332275390625	10.166378799438476	0.19093758239746092	-0.33758243408203126	2.597808837890625	-4.413604736328125	-1.857757568359375	
129	0.516	0.0	0.0	0.0	0.0	4.6290000000000004	4.656	4.659	4.623	9.928754284667969	0.0909796630859375	0.17776947326660156	3.910064697265625	-4.444122314453125	-0.560760498046875	9.739013803100585	0.3603273498535156	0.2902969512939453	0.46539306640625	-4.856109619140625	-2.93731689453125	10.052055670166014	0.5835866546630859	-0.25438392639160157	2.811431884765625	-4.76837158203125	-1.804351806640625	
130	0.52	0.0	0.0	0.0	0.0	4.626	4.659	4.662	4.623	9.952097750854492	-0.028730419921875	0.07122749938964844	0.93841552734375	-3.02886962890625	-0.58746337890625	9.950302099609374	0.0	0.05686228942871093	1.007080078125	-5.062103271484375	-3.4942626953125	10.144232434082031	0.0796072052001953	-0.3860650177001953	3.11279296875	-4.604339599609375	-1.434326171875	
131	0.524	0.0	0.0	0.0	0.0	4.6290000000000004	4.659	4.662	4.623	9.79348189086914	0.38307226562499996	0.15023615417480468	4.03594970703125	-4.34112548828125	-0.659942626953125	9.727042794799804	0.3393780853271484	0.2711433380126953	0.446319580078125	-4.94384765625	-3.021240234375	10.047267266845703	0.565031591796875	-0.2693476867675781	2.925872802734375	-4.764556884765625	-1.689910888671875	
132	0.528	0.0	0.0	0.0	0.0	4.617	4.659	4.659	4.626	9.95987890625	-0.03950432739257812	0.052073886108398436	1.0986328125	-3.086090087890625	-0.7476806640625	9.962871658325195	-0.04967968444824218	0.04548983154296875	0.18310546875	-4.955291748046875	-2.87628173828125	10.147823736572265	0.022744915771484374	-0.38786066894531246	3.108978271484375	-4.608154296875	-1.407623291015625	
133	0.532	0.0	0.0	0.0	0.0	4.626	4.659	4.6530000000000005	4.623	9.798868844604492	0.34057518615722654	0.11372457885742186	3.62396240234375	-4.276275634765625	-0.78582763671875	9.701903677368163	0.3136404174804687	0.2819172454833984	0.446319580078125	-5.19561767578125	-2.986907958984375	9.80724855041504	0.5249287139892578	0.05566518859863281	2.4566650390625	-4.608154296875	-2.1514892578125	
134	0.536	0.0	0.0	0.0	0.0	4.6290000000000004	4.659	4.659	4.611	9.897629663085937	0.09516951599121093	0.034715924072265626	1.983642578125	-3.39508056640625	-0.77056884765625	9.846752877807617	-0.34237083740234375	0.11432312927246092	0.438690185546875	-4.932403564453125	-2.93731689453125	10.156203442382813	0.009576806640625	-0.4100070343017578	3.215789794921875	-4.9591064453125	-1.407623291015625	
135	0.54	0.0	0.0	0.0	0.0	4.632	4.656	4.659	4.602	9.818022457885741	0.29867665710449215	0.0718260498046875	3.4027099609375	-4.28009033203125	-0.99945068359375	9.696516723632811	0.2753331909179687	0.2663549346923828	0.545501708984375	-4.848480224609375	-2.979278564453125	9.801263046264648	0.5333084197998047	0.047884033203124995	2.437591552734375	-4.589080810546875	-2.105712890625	
136	0.544	0.0	0.0	0.0	0.0	4.632	4.656	4.659	4.617	9.899425314331054	0.0939724151611328	0.0053869537353515625	2.574920654296875	-3.66973876953125	-0.804901123046875	9.858723886108399	-0.39324762268066404	0.0987608184814453	0.446319580078125	-5.28717041015625	-2.93731689453125	10.150217938232421	0.047884033203124995	-0.4339490509033203	3.15093994140625	-4.863739013671875	-1.438140869140625	
137	0.548	0.0	0.0	0.0	0.0	4.626	4.659	4.662	4.62	9.822810861206055	0.25737667846679685	0.040701428222656245	3.734588623046875	-4.085540771484375	-1.049041748046875	9.668983404541015	0.21966800231933592	0.2663549346923828	0.35858154296875	-4.665374755859375	-3.23486328125	9.777919580078125	0.6051344696044921	0.07302315063476562	2.471923828125	-4.535675048828125	-2.20489501953125	
138	0.552	0.0	0.0	0.0	0.0	4.626	4.659	4.659	4.623	9.884461553955077	0.11372457885742186	0.002992752075195312	2.197265625	-3.77655029296875	-0.751495361328125	9.858723886108399	-0.45070846252441404	0.08080430603027343	0.335693359375	-5.035400390625	-2.758026123046875	9.81862100830078	0.29568390502929687	0.059256491088867186	1.983642578125	-5.07354736328125	-1.911163330078125	
139	0.556	0.0	0.0	0.0	0.0	4.623	4.659	4.659	4.6290000000000004	9.787496386718749	-0.1406593475341797	0.09935936889648436	3.276824951171875	-3.91387939453125	-0.96893310546875	9.65940659790039	0.24899697265624998	0.2663549346923828	0.396728515625	-4.85992431640625	-3.30352783203125	9.77432827758789	0.6218938812255859	0.07062894897460938	2.6397705078125	-4.87518310546875	-2.414703369140625	
140	0.56	0.0	0.0	0.0	0.0	4.6290000000000004	4.659	4.6530000000000005	4.623	9.884461553955077	0.17836802368164062	0.00718260498046875	2.269744873046875	-3.559112548828125	-0.576019287109375	9.679757312011718	0.1352723937988281	0.143652099609375	0.60272216796875	-4.93621826171875	-3.11279296875	9.84555577697754	0.3387795349121094	-0.028730419921875	1.781463623046875	-4.909515380859375	-2.00653076171875	
141	0.5640000000000001	0.0	0.0	0.0	0.0	4.6290000000000004	4.659	4.659	4.611	9.80066449584961	-0.09756371765136718	0.10354922180175781	3.04412841796875	-4.177093505859375	-0.79345703125	9.652223992919922	0.3280056274414062	0.25737667846679685	0.606536865234375	-4.825592041015625	-3.4637451171875	9.98561657409668	0.34835634155273437	-0.3938461730957031	2.902984619140625	-4.581451416015625	-1.987457275390625	
142	0.5680000000000001	0.0	0.0	0.0	0.0	4.632	4.659	4.659	4.605	9.878476049804688	0.21428104858398436	0.15203180541992187	2.7313232421875	-4.138946533203125	-0.72479248046875	9.680355862426758	0.14425065002441406	0.16160861206054686	0.774383544921875	-5.0811767578125	-2.902984619140625	9.87608184814453	0.277727392578125	-0.13467384338378904	2.1820068359375	-5.092620849609375	-1.995086669921875	
143	0.5720000000000001	0.0	0.0	0.0	0.0	4.6290000000000004	4.656	4.659	4.617	9.821613760375977	-0.05087678527832031	0.06284779357910156	2.811431884765625	-3.582000732421875	-0.865936279296875	9.81862100830078	0.3495534423828125	0.07601590270996093	0.904083251953125	-4.9591064453125	-4.032135009765625	10.003573086547851	0.40940848388671874	-0.39983167724609375	2.773284912109375	-4.375457763671875	-1.93023681640625	
144	0.5760000000000001	0.0	0.0	0.0	0.0	4.6290000000000004	4.662	4.659	4.623	9.950302099609374	0.13646949462890623	-0.1352723937988281	3.0670166015625	-4.253387451171875	-0.484466552734375	9.673771807861328	0.14125789794921875	0.13587094421386717	0.614166259765625	-5.0201416015625	-2.83050537109375	9.874884747314452	0.6961141326904297	-0.01975216369628906	2.74658203125	-4.5928955078125	-1.361846923828125	
145	0.58	0.0	0.0	0.0	0.0	4.626	4.659	4.659	4.623	9.8311905670166	-0.027533319091796873	0.05087678527832031	3.0364990234375	-3.963470458984375	-0.946044921875	9.817423907470703	0.29927520751953124	0.061650692749023434	0.614166259765625	-4.673004150390625	-3.910064697265625	9.980229620361328	0.36691140441894526	-0.3711012573242187	2.750396728515625	-4.428863525390625	-2.117156982421875	
146	0.584	0.0	0.0	0.0	0.0	4.62	4.659	4.659	4.6290000000000004	9.979631069946288	0.18555062866210936	-0.12808978881835936	3.3111572265625	-4.03594970703125	-0.40435791015625	9.872490545654296	0.4465186096191406	0.08020575561523437	0.064849853515625	-5.1727294921875	-2.727508544921875	9.885658654785155	0.7966706024169922	-0.08798691101074219	2.79998779296875	-4.70733642578125	-1.15966796875	
147	0.588	0.0	0.0	0.0	0.0	4.6290000000000004	4.659	4.6530000000000005	4.62	9.904812268066406	0.00239420166015625	-0.05686228942871093	1.873016357421875	-3.688812255859375	-0.789642333984375	9.80724855041504	0.277727392578125	0.07481880187988281	0.774383544921875	-4.779815673828125	-3.97491455078125	9.97783541870117	0.3705027069091797	-0.3758896606445312	2.899169921875	-4.4097900390625	-1.8157958984375	
148	0.592	0.0	0.0	0.0	0.0	4.6290000000000004	4.659	4.659	4.611	9.97783541870117	0.1867477294921875	-0.08559270935058594	3.780364990234375	-4.41741943359375	-0.476837158203125	9.854534033203125	0.3687070556640625	0.10474632263183593	0.1373291015625	-5.16510009765625	-2.605438232421875	9.898826763916015	0.805050308227539	-0.11073182678222655	2.7923583984375	-4.596710205078125	-1.255035400390625	
149	0.596	0.0	0.0	0.0	0.0	4.635	4.659	4.659	4.6080000000000005	9.900622415161132	0.04129997863769531	-0.029328970336914062	1.708984375	-3.429412841796875	-0.934600830078125	9.991003527832031	-0.08140285644531249	-0.10773907470703124	0.720977783203125	-5.0048828125	-3.421783447265625	10.280103378295898	0.42317514343261714	-0.6177040283203125	2.78472900390625	-4.82177734375	-2.00653076171875	
150	0.6	0.0	0.0	0.0	0.0	4.6290000000000004	4.656	4.656	4.62	9.95987890625	0.1927332336425781	-0.06703764648437499	3.41796875	-4.100799560546875	-0.67138671875	9.8449572265625	0.31663316955566406	0.09457096557617187	0.152587890625	-5.11932373046875	-2.6702880859375	9.879074600219726	0.8313865264892578	-0.08858546142578125	2.685546875	-4.49371337890625	-1.3580322265625	
151	0.604	0.0	0.0	0.0	0.0	4.626	4.659	4.659	4.623	9.899425314331054	0.034715924072265626	0.001197100830078125	1.3427734375	-3.330230712890625	-0.911712646484375	9.989806427001952	-0.10714052429199218	-0.09516951599121093	0.843048095703125	-4.791259765625	-3.36456298828125	10.283694680786132	0.43574470214843747	-0.6105214233398437	2.475738525390625	-4.58526611328125	-2.254486083984375	
152	0.608	0.0	0.0	0.0	0.0	4.626	4.662	4.662	4.626	9.664793551635741	0.38367081604003905	0.2262520568847656	3.4942626953125	-4.150390625	-0.720977783203125	9.847351428222655	0.31184476623535157	0.09636661682128905	0.621795654296875	-5.06591796875	-2.685546875	9.99160207824707	1.1097124694824219	-0.22206220397949217	2.872467041015625	-4.669189453125	-1.773834228515625	
153	0.612	0.0	0.0	0.0	0.0	4.623	4.656	4.656	4.632	9.907206469726562	0.007781155395507812	0.0	1.10626220703125	-3.505706787109375	-1.110076904296875	9.998784683227539	-0.17238251953125	-0.10773907470703124	0.774383544921875	-4.932403564453125	-2.994537353515625	10.295067138671874	0.39444472351074217	-0.6117185241699218	2.35748291015625	-4.4403076171875	-2.06756591796875	
154	0.616	0.0	0.0	0.0	0.0	4.632	4.659	4.662	4.623	9.63366893005371	0.3507505432128906	0.26336218261718747	3.1890869140625	-3.91387939453125	-0.7781982421875	9.624690673828125	0.7685387329101562	0.411802685546875	0.942230224609375	-4.9896240234375	-2.716064453125	9.99220062866211	1.0773907470703123	-0.2292448089599609	2.838134765625	-4.64630126953125	-1.590728759765625	
155	0.62	0.0	0.0	0.0	0.0	4.626	4.659	4.659	4.611	9.91558617553711	0.0652419952392578	0.014963760375976562	-0.331878662109375	-2.315521240234375	-1.094818115234375	9.991003527832031	-0.14544775085449219	-0.105344873046875	0.934600830078125	-5.062103271484375	-3.24249267578125	10.079588989257813	0.2825157958984375	-0.15263035583496093	2.841949462890625	-4.6844482421875	-1.605987548828125	
156	0.624	0.0	0.0	0.0	0.0	4.632	4.659	4.659	4.6080000000000005	9.623493572998047	0.3094505645751953	0.26755203552246093	3.11279296875	-4.02069091796875	-0.80108642578125	9.631873278808593	0.7308300567626953	0.3908534210205078	0.8697509765625	-4.9285888671875	-2.7618408203125	9.996390481567381	1.035492218017578	-0.21428104858398436	3.002166748046875	-4.802703857421875	-1.537322998046875	
157	0.628	0.0	0.0	0.0	0.0	4.6290000000000004	4.656	4.659	4.62	9.937732540893554	-0.07422025146484375	-0.009576806640625	-0.278472900390625	-2.223968505859375	-1.09100341796875	9.937133990478515	-0.04848258361816406	0.07362170104980469	0.904083251953125	-5.016326904296875	-3.643035888671875	10.085574493408203	0.18315642700195311	-0.15203180541992187	3.0364990234375	-4.642486572265625	-1.811981201171875	
158	0.632	0.0	0.0	0.0	0.0	4.6290000000000004	4.662	4.662	4.623	9.628880526733397	0.3597287994384765	0.2771288421630859	2.92205810546875	-3.77655029296875	-0.7171630859375	9.630676177978515	0.8349778289794921	0.4165910888671875	0.621795654296875	-5.1727294921875	-2.658843994140625	9.995791931152343	1.1761515655517578	-0.20649989318847656	1.983642578125	-4.573822021484375	-1.51824951171875	
159	0.636	0.0	0.0	0.0	0.0	4.6290000000000004	4.659	4.659	4.623	9.94012674255371	-0.04608838195800781	0.016759411621093748	-0.064849853515625	-2.635955810546875	-0.9307861328125	9.93952819213867	-0.02693476867675781	0.08080430603027343	0.70953369140625	-5.05828857421875	-3.322601318359375	10.090961447143554	0.229843359375	-0.15861585998535155	2.74658203125	-4.848480224609375	-1.468658447265625	
160	0.64	0.0	0.0	0.0	0.0	4.62	4.659	4.656	4.6290000000000004	9.787496386718749	0.15263035583496093	0.15263035583496093	2.81524658203125	-3.8604736328125	-0.9613037109375	9.600748657226562	0.9379285003662109	0.4608838195800781	0.720977783203125	-4.852294921875	-3.80706787109375	9.710881933593749	0.5315127685546874	0.19512743530273435	2.269744873046875	-4.75311279296875	-2.58636474609375	
161	0.644	0.0	0.0	0.0	0.0	4.6290000000000004	4.656	4.659	4.62	9.945513696289062	0.011971008300781249	0.008978256225585938	0.179290771484375	-2.765655517578125	-0.8697509765625	9.970652813720703	0.016759411621093748	0.07122749938964844	1.15203857421875	-5.13458251953125	-3.35693359375	10.109516510009765	0.2885013000488281	-0.17896657409667968	2.872467041015625	-4.81414794921875	-1.556396484375	
162	0.648	0.0	0.0	0.0	0.0	4.626	4.659	4.659	4.6080000000000005	9.775525378417969	0.1610100616455078	0.14604630126953125	2.819061279296875	-3.814697265625	-0.95367431640625	9.585186346435547	1.016937155151367	0.4734533782958984	0.762939453125	-4.95147705078125	-3.734588623046875	9.704297879028319	0.6009446166992187	0.20769699401855468	1.987457275390625	-4.489898681640625	-2.025604248046875	
163	0.652	0.0	0.0	0.0	0.0	4.635	4.659	4.659	4.6080000000000005	9.922768780517577	-0.052073886108398436	0.044292730712890624	0.29754638671875	-2.933502197265625	-0.7781982421875	9.728838446044922	0.09277531433105468	0.2645592834472656	0.45013427734375	-5.1727294921875	-3.1280517578125	9.882067352294921	0.16819266662597654	-0.05686228942871093	2.5177001953125	-5.016326904296875	-1.59454345703125	
164	0.656	0.0	0.0	0.0	0.0	4.6290000000000004	4.656	4.659	4.623	9.788094937133788	0.08379705810546874	0.10594342346191406	2.788543701171875	-3.71551513671875	-1.110076904296875	9.620500820922851	0.9696516723632812	0.42018239135742186	0.946044921875	-4.8370361328125	-4.08172607421875	9.74200655517578	0.5141548065185546	0.16699556579589842	2.323150634765625	-4.627227783203125	-2.315521240234375	
165	0.66	0.0	0.0	0.0	0.0	4.623	4.659	4.659	4.626	9.89463691101074	0.6123170745849609	0.02154781494140625	4.528045654296875	-4.63104248046875	-0.08392333984375	9.71686743774414	0.2819172454833984	0.28311434631347654	0.0457763671875	-5.039215087890625	-3.269195556640625	9.8694977935791	0.3758896606445312	-0.023343466186523436	2.3040771484375	-4.779815673828125	-1.50299072265625	
166	0.664	0.0	0.0	0.0	0.0	4.626	4.659	4.659	4.6290000000000004	9.784503634643555	0.020350714111328123	0.08918401184082031	2.74658203125	-3.8299560546875	-0.89263916015625	9.720458740234374	0.14125789794921875	0.25737667846679685	0.179290771484375	-5.1116943359375	-3.8909912109375	9.958083255004881	0.26276363220214843	-0.2723404388427734	2.78472900390625	-4.436492919921875	-1.74713134765625	
167	0.668	0.0	0.0	0.0	0.0	4.617	4.659	4.659	4.6290000000000004	9.891644158935547	0.3968389251708984	0.0	4.940032958984375	-4.932403564453125	-0.23651123046875	9.743203656005859	0.13946224670410157	0.24600422058105467	0.179290771484375	-5.2642822265625	-3.204345703125	9.878476049804688	0.15083470458984374	-0.0047884033203125	2.216339111328125	-4.6844482421875	-1.644134521484375	
168	0.672	0.0	0.0	0.0	0.0	4.6290000000000004	4.659	4.659	4.623	9.798270294189452	0.14185644836425781	0.030526071166992186	3.73077392578125	-4.18853759765625	-0.728607177734375	9.749787710571288	0.32142157287597656	0.21068974609375	0.63323974609375	-4.852294921875	-4.02069091796875	9.984419473266602	0.3716998077392578	-0.26396073303222656	2.643585205078125	-4.253387451171875	-2.3193359375	
169	0.676	0.0	0.0	0.0	0.0	4.6290000000000004	4.659	4.662	4.6080000000000005	9.877877499389648	0.4261678955078125	-0.008978256225585938	4.772186279296875	-5.069732666015625	0.110626220703125	9.775525378417969	-0.0652419952392578	0.1388636962890625	-0.12969970703125	-4.947662353515625	-2.60162353515625	9.842563024902343	0.21009119567871093	-0.010773907470703125	2.86102294921875	-4.85992431640625	-1.12152099609375	
170	0.68	0.0	0.0	0.0	0.0	4.632	4.659	4.659	4.605	9.83238766784668	-0.0005985504150390625	0.12509703674316405	3.33404541015625	-4.41741943359375	-0.90789794921875	9.751583361816406	0.1227028350830078	0.16879121704101563	0.3814697265625	-4.7760009765625	-4.322052001953125	9.981426721191406	0.009576806640625	-0.29269115295410153	2.391815185546875	-4.3182373046875	-2.13623046875	
171	0.684	0.0	0.0	0.0	0.0	4.6290000000000004	4.656	4.659	4.623	9.9215716796875	0.4955997436523437	-0.10474632263183593	4.63104248046875	-4.711151123046875	-0.41961669921875	9.82460651245117	0.06883329772949218	0.05626373901367187	-0.133514404296875	-5.062103271484375	-2.7923583984375	9.910797772216796	0.7841010437011718	-0.10893617553710937	2.93731689453125	-4.787445068359375	-1.361846923828125	
172	0.6880000000000001	0.0	0.0	0.0	0.0	4.632	4.659	4.659	4.626	9.829394915771484	0.17477672119140625	0.08439560852050781	3.543853759765625	-4.00543212890625	-0.48828125	9.700108026123047	0.4225765930175781	0.19333178405761717	0.667572021484375	-4.76837158203125	-2.941131591796875	9.956287603759765	0.32501287536621093	-0.3076549133300781	2.838134765625	-4.413604736328125	-1.8463134765625	
173	0.6920000000000001	0.0	0.0	0.0	0.0	4.6290000000000004	4.659	4.659	4.623	9.820416659545899	-0.020350714111328123	0.14305354919433594	3.3721923828125	-4.46319580078125	-0.67901611328125	9.759963067626952	0.001197100830078125	0.09935936889648436	0.17547607421875	-5.1727294921875	-2.73895263671875	9.867702142333984	0.6955155822753906	-0.11611878051757812	2.9449462890625	-4.67681884765625	-1.0528564453125	
174	0.6960000000000001	0.0	0.0	0.0	0.0	4.62	4.659	4.656	4.6290000000000004	9.938929641723632	0.12210428466796874	-0.009576806640625	4.093170166015625	-4.41741943359375	-0.4119873046875	10.032303506469725	-0.5620388397216797	-0.13587094421386717	0.247955322265625	-4.73785400390625	-2.895355224609375	10.374075793457031	-0.03172317199707031	-0.6715735656738281	2.9296875	-4.604339599609375	-1.827239990234375	
175	0.7000000000000001	0.0	0.0	0.0	0.0	4.6290000000000004	4.659	4.662	4.62	9.82580361328125	-0.2711433380126953	0.12090718383789062	2.72369384765625	-4.001617431640625	-0.75531005859375	9.79946739501953	0.23044190979003906	0.07003039855957031	0.499725341796875	-4.9896240234375	-3.0670166015625	9.926360083007811	0.74699091796875	-0.16699556579589842	2.74658203125	-4.44793701171875	-1.45721435546875	
176	0.704	0.0	0.0	0.0	0.0	4.6290000000000004	4.659	4.659	4.6080000000000005	9.98501802368164	0.03591302490234375	-0.029927520751953124	3.31878662109375	-4.0283203125	-0.274658203125	9.97903251953125	-0.03531447448730469	-0.07541735229492187	0.255584716796875	-4.726409912109375	-2.979278564453125	10.301052642822265	0.3393780853271484	-0.5925649108886718	2.83050537109375	-4.69207763671875	-1.514434814453125	
177	0.708	0.0	0.0	0.0	0.0	4.626	0.003	0.003	0.003	9.79946739501953	-0.181959326171875	0.1945288848876953	4.33349609375	-4.78363037109375	-0.03814697265625	9.7683427734375	0.10354922180175781	0.28311434631347654	0.5340576171875	-5.031585693359375	-2.117156982421875	9.982623822021484	0.8002619049072265	-0.16819266662597654	2.910614013671875	-4.8980712890625	-1.415252685546875	
178	0.712	0.0	0.0	0.0	0.0	0.003	0.003	0.006	0.003	10.024522351074218	0.062249243164062495	-0.20829554443359374	0.598907470703125	-2.9754638671875	-1.087188720703125	10.031704956054687	-0.3716998077392578	-0.17657237243652343	0.499725341796875	-5.237579345703125	-3.650665283203125	10.401609112548828	-0.14604630126953125	-0.7230489013671875	2.902984619140625	-4.5623779296875	-1.89208984375	
179	0.716	0.0	0.0	0.0	0.0	0.006	0.003	0.003	0.003	9.728838446044922	-0.12449848632812499	0.21188684692382811	3.269195556640625	-4.46319580078125	-0.5035400390625	9.765948571777344	0.35314474487304687	0.3076549133300781	0.339508056640625	-4.917144775390625	-2.635955810546875	9.987412225341796	0.9062053283691406	-0.14963760375976562	2.902984619140625	-4.718780517578125	-1.995086669921875	
180	0.72	0.0	0.0	0.0	0.0	0.003	0.006	0.006	0.003	9.993996279907225	-0.025737667846679687	-0.12330138549804687	0.5340576171875	-2.948760986328125	-1.224517822265625	10.039486111450195	-0.37409400939941406	-0.06045359191894531	0.675201416015625	-5.260467529296875	-2.674102783203125	10.325593209838866	0.08259995727539061	-0.6596025573730468	2.7618408203125	-4.833221435546875	-0.9307861328125	
181	0.724	0.0	0.0	0.0	0.0	0.009000000000000001	0.006	0.003	0.003	9.815029705810547	-0.07062894897460938	0.15322890625	0.858306884765625	-2.76947021484375	-1.30462646484375	9.83897172241211	0.105344873046875	0.17357962036132812	0.446319580078125	-5.30242919921875	-2.6092529296875	10.020931048583984	0.6212953308105469	-0.18555062866210936	3.01361083984375	-4.94384765625	-1.8463134765625	
182	0.728	0.0	0.0	0.0	0.0	0.003	0.003	0.006	0.006	10.035296258544921	0.07003039855957031	-0.1083376251220703	1.338958740234375	-3.1585693359375	-1.04522705078125	10.11849476623535	-0.37289690856933594	-0.12330138549804687	0.499725341796875	-5.218505859375	-3.009796142578125	10.18313821105957	0.24779987182617186	-0.4052186309814453	2.857208251953125	-5.02777099609375	-1.956939697265625	
183	0.732	0.0	0.0	0.0	0.0	0.009000000000000001	0.006	0.003	0.003	9.701903677368163	0.10414777221679687	0.23223756103515625	-0.385284423828125	-2.20489501953125	-1.255035400390625	9.603741409301758	0.6590040069580078	0.30705636291503907	1.239776611328125	-4.96673583984375	-2.925872802734375	9.964667309570311	0.6871358764648438	-0.10175357055664062	3.204345703125	-4.7149658203125	-1.6021728515625	
184	0.736	0.0	0.0	0.0	0.0	0.003	0.006	0.003	0.006	9.955090502929687	0.062249243164062495	-0.010773907470703125	1.09100341796875	-3.261566162109375	-1.02996826171875	10.087968695068358	-0.6590040069580078	-0.07242460021972656	0.81634521484375	-5.51605224609375	-2.7923583984375	10.123283169555663	0.13946224670410157	-0.3232172241210937	2.864837646484375	-5.05828857421875	-1.70135498046875	
185	0.74	0.0	0.0	0.0	0.0	0.0	0.006	0.003	0.003	9.7928833404541	0.13287819213867186	0.1406593475341797	-0.2288818359375	-2.2430419921875	-0.919342041015625	9.707290631103515	0.25917232971191406	0.23523031311035156	1.068115234375	-5.054473876953125	-3.4332275390625	9.777321029663085	0.526125814819336	0.06284779357910156	2.1209716796875	-4.795074462890625	-2.44140625	
186	0.744	0.0	0.0	0.0	0.0	0.0	0.003	0.006	0.006	9.795876092529296	0.3286041778564453	0.08678981018066406	4.8828125	-4.61578369140625	-0.827789306640625	9.689932669067382	0.3232172241210937	0.30346506042480464	0.37384033203125	-5.0201416015625	-3.2806396484375	10.153809240722655	0.32920272827148434	-0.354341845703125	2.780914306640625	-4.695892333984375	-1.56402587890625	
187	0.748	0.0	0.0	0.0	0.0	0.006	0.006	0.006	0.003	9.750386260986328	0.2376245147705078	0.2519897247314453	-0.583648681640625	-2.18963623046875	-1.2359619140625	9.585186346435547	0.556053335571289	0.33099837951660155	1.117706298828125	-4.913330078125	-2.76947021484375	9.652223992919922	0.3633201019287109	0.17417817077636719	2.101898193359375	-4.512786865234375	-2.605438232421875	
188	0.752	0.0	0.0	0.0	0.0	0.006	0.006	0.006	0.006	9.827000714111328	0.37708676147460934	0.09516951599121093	5.062103271484375	-4.985809326171875	-0.84686279296875	9.71028338317871	0.03531447448730469	0.3393780853271484	0.25177001953125	-5.08880615234375	-3.13568115234375	9.818022457885741	0.6931213806152343	-0.025139117431640625	2.38037109375	-4.9896240234375	-1.708984375	
189	0.756	0.0	0.0	0.0	0.0	0.006	0.006	0.006	0.003	9.823409411621093	0.229843359375	0.15741875915527342	-0.701904296875	-2.147674560546875	-1.468658447265625	9.676166009521484	0.16160861206054686	0.17417817077636719	0.461578369140625	-4.61578369140625	-3.21197509765625	9.772532626342773	0.25797522888183594	0.11252747802734374	2.3956298828125	-4.550933837890625	-2.315521240234375	
190	0.76	0.0	0.0	0.0	0.0	0.003	0.003	0.006	0.006	9.819219558715819	0.47165772705078124	0.13646949462890623	6.053924560546875	-5.290985107421875	-0.762939453125	9.64025298461914	0.39743747558593745	0.4034229797363281	0.5340576171875	-5.008697509765625	-3.513336181640625	9.769539874267577	0.7876923461914062	0.014963760375976562	2.376556396484375	-4.673004150390625	-1.750946044921875	
191	0.764	0.0	0.0	0.0	0.0	0.012	0.003	0.003	0.003	9.890447058105469	0.28490999755859375	0.0718260498046875	2.498626708984375	-3.753662109375	-0.823974609375	9.64623848876953	0.02154781494140625	0.23104046020507812	0.2593994140625	-4.673004150390625	-3.45611572265625	9.699509475708007	0.2454056701660156	0.21009119567871093	2.338409423828125	-4.17327880859375	-1.468658447265625	
192	0.768	0.0	0.0	0.0	0.0	0.003	0.006	0.006	0.006	9.913191973876952	0.5620388397216797	0.023942016601562498	5.313873291015625	-4.9591064453125	-0.70953369140625	9.718064538574218	0.3238157745361328	0.33399113159179683	0.392913818359375	-4.787445068359375	-3.1890869140625	9.850344180297851	0.7362170104980469	-0.11252747802734374	2.376556396484375	-4.817962646484375	-2.017974853515625	
193	0.772	0.0	0.0	0.0	0.0	0.006	0.006	0.006	0.003	9.896432562255859	0.1693897674560547	0.07841010437011718	3.47900390625	-4.2572021484375	-0.72479248046875	9.665392102050781	0.12629413757324218	0.21128829650878905	0.644683837890625	-4.72259521484375	-3.826141357421875	9.988609326171874	0.36272155151367186	-0.3435679382324219	2.83050537109375	-4.425048828125	-1.3885498046875	
194	0.776	0.0	0.0	0.0	0.0	0.003	0.006	0.003	0.006	9.816825357055663	0.40402153015136716	0.12689268798828124	2.964019775390625	-4.436492919921875	-0.522613525390625	9.631873278808593	0.3537432952880859	0.2657563842773437	0.232696533203125	-4.98199462890625	-2.643585205078125	9.758765966796874	0.6482300994873047	-0.020949264526367185	2.2430419921875	-4.85992431640625	-2.147674560546875	
195	0.78	0.0	0.0	0.0	0.0	0.003	0.003	0.006	0.006	9.944316595458984	0.30885201416015623	0.09337386474609374	4.802703857421875	-4.741668701171875	-0.522613525390625	9.682151513671874	0.42377369384765623	0.15981296081542967	0.5645751953125	-4.100799560546875	-3.787994384765625	9.993996279907225	0.4950011932373047	-0.34117373657226563	2.841949462890625	-4.375457763671875	-1.354217529296875	
196	0.784	0.0	0.0	0.0	0.0	0.006	0.006	0.006	0.003	9.938929641723632	-0.14604630126953125	-0.08738836059570312	2.101898193359375	-3.6773681640625	-0.812530517578125	9.75517466430664	0.05746083984375	0.12389993591308593	0.152587890625	-4.955291748046875	-2.67791748046875	9.979631069946288	0.32022447204589843	-0.11851298217773437	2.727508544921875	-4.638671875	-1.888275146484375	
197	0.788	0.0	0.0	0.0	0.0	0.006	0.006	0.006	0.006	9.950900650024414	0.41838674011230464	0.10893617553710937	4.627227783203125	-4.581451416015625	-0.64849853515625	9.900023864746093	0.23582886352539062	-0.03890577697753906	0.621795654296875	-4.657745361328125	-3.24249267578125	9.955090502929687	0.5416881256103515	-0.29568390502929687	2.777099609375	-4.375457763671875	-1.51824951171875	
198	0.792	0.0	0.0	0.0	0.0	0.009000000000000001	0.003	0.003	0.006	9.861716638183593	-0.39923312683105466	0.027533319091796873	1.30462646484375	-3.353118896484375	-0.64849853515625	9.694122521972655	-0.07721300354003906	0.21607669982910155	0.1068115234375	-5.207061767578125	-2.964019775390625	9.87668039855957	0.26695348510742184	-0.029927520751953124	2.838134765625	-4.734039306640625	-2.0294189453125	
199	0.796	0.0	0.0	0.0	0.0	0.006	0.003	0.006	0.003	10.0748005859375	0.0017956512451171875	-0.2376245147705078	2.5634765625	-4.08172607421875	-0.606536865234375	9.948506448364258	0.30047230834960936	-0.08798691101074219	0.331878662109375	-5.146026611328125	-3.139495849609375	10.320206256103514	0.6961141326904297	-0.5315127685546874	2.81524658203125	-4.680633544921875	-1.495361328125	
200	0.8	0.0	0.0	0.0	0.0	0.003	0.006	0.006	0.006	9.835978970336914	-0.44113165588378905	0.025139117431640625	2.0904541015625	-3.76129150390625	-0.74005126953125	9.834183319091796	0.10594342346191406	0.22266075439453123	0.8087158203125	-5.092620849609375	-2.750396728515625	9.922768780517577	0.22026655273437498	-0.09337386474609374	2.899169921875	-4.756927490234375	-1.804351806640625	
201	0.804	0.0	0.0	0.0	0.0	0.003	0.003	0.003	0.003	10.026318002319336	0.11252747802734374	-0.15023615417480468	1.811981201171875	-3.322601318359375	-0.682830810546875	9.836577520751952	0.19632453613281248	0.015562310791015624	0.26702880859375	-4.95147705078125	-2.9296875	10.219051235961913	0.7038952880859375	-0.4842272857666015	2.941131591796875	-4.44793701171875	-1.71661376953125	
202	0.808	0.0	0.0	0.0	0.0	0.003	0.006	0.003	0.006	9.861716638183593	-0.2771288421630859	-0.0005985504150390625	2.719879150390625	-4.199981689453125	-0.667572021484375	9.848548529052733	0.2567781280517578	0.23044190979003906	0.698089599609375	-5.14984130859375	-2.765655517578125	9.967061511230469	0.2472013214111328	-0.16041151123046873	2.81524658203125	-4.78363037109375	-1.76239013671875	
203	0.812	0.0	0.0	0.0	0.0	0.006	0.006	0.003	0.003	10.077194787597655	-0.14604630126953125	-0.2292448089599609	-0.156402587890625	-2.70843505859375	-1.064300537109375	10.08078609008789	0.09935936889648436	-0.03232172241210937	0.762939453125	-4.99725341796875	-2.826690673828125	10.388441003417968	0.6386532928466796	-0.632667788696289	3.086090087890625	-4.505157470703125	-1.560211181640625	
204	0.8160000000000001	0.0	0.0	0.0	0.0	0.003	0.006	0.003	0.003	9.539097964477538	0.4291606475830078	0.5363011718749999	2.349853515625	-3.5247802734375	-0.57220458984375	9.804255798339844	0.3860650177001953	0.25258827514648435	0.774383544921875	-4.8370361328125	-2.92205810546875	10.02392380065918	0.27174188842773433	0.037110125732421874	2.960205078125	-4.730224609375	-1.5411376953125	
205	0.8200000000000001	0.0	0.0	0.0	0.0	0.009000000000000001	0.006	0.003	0.003	9.903016616821288	-0.10953472595214843	-0.011372457885742187	0.965118408203125	-3.25775146484375	-1.22833251953125	10.033500607299803	-0.0053869537353515625	-0.014963760375976562	1.19781494140625	-5.542755126953125	-3.30352783203125	10.290278735351562	0.6566098052978515	-0.6189011291503906	3.1280517578125	-4.60052490234375	-1.59454345703125	
206	0.8240000000000001	0.0	0.0	0.0	0.0	0.003	0.006	0.003	0.0	9.695319622802733	0.5009866973876953	0.39803602600097654	0.247955322265625	-2.552032470703125	-1.041412353515625	9.752780462646484	0.5339069702148437	0.2346317626953125	1.117706298828125	-4.95147705078125	-3.39508056640625	10.13226142578125	0.3345896820068359	-0.16041151123046873	3.07464599609375	-4.8828125	-1.617431640625	
207	0.8280000000000001	0.0	0.0	0.0	0.0	0.003	0.003	0.003	0.009000000000000001	9.974244116210937	0.04369418029785156	0.028730419921875	4.734039306640625	-4.695892333984375	-0.9918212890625	10.045471615600585	-0.04668693237304687	0.016160861206054686	1.277923583984375	-5.191802978515625	-3.0975341796875	10.187926614379883	0.412401235961914	-0.44113165588378905	2.63214111328125	-4.63104248046875	-1.781463623046875	
208	0.8320000000000001	0.0	0.0	0.0	0.0	0.003	0.006	0.006	0.006	9.519944351196289	0.526125814819336	0.6242880828857421	-0.5035400390625	-1.96075439453125	-1.476287841796875	9.637858782958984	0.48542438659667964	0.36571430358886714	1.171112060546875	-5.146026611328125	-3.12042236328125	9.986215124511718	0.3902548706054687	0.011971008300781249	2.6702880859375	-4.58526611328125	-1.57928466796875	
209	0.836	0.0	0.0	0.0	0.0	0.003	0.003	0.003	0.003	9.967061511230469	0.3435679382324219	0.02154781494140625	6.072998046875	-5.153656005859375	-0.457763671875	9.782707983398437	0.034715924072265626	0.34057518615722654	0.217437744140625	-4.90570068359375	-3.22723388671875	10.197503421020507	0.4381389038085937	-0.4746504791259765	2.788543701171875	-4.6844482421875	-1.678466796875	
210	0.84	0.0	0.0	0.0	0.0	0.003	0.006	0.006	0.003	9.65282254333496	0.51714755859375	0.39743747558593745	3.0517578125	-3.8604736328125	-0.52642822265625	9.762955819702148	0.37768531188964843	0.2561795776367187	1.1138916015625	-4.756927490234375	-3.200531005859375	9.758167416381836	0.35314474487304687	0.0939724151611328	2.61688232421875	-4.7149658203125	-1.71661376953125	
211	0.844	0.0	0.0	0.0	0.0	0.003	0.006	0.006	0.003	9.828197814941406	0.3687070556640625	0.07900865478515624	4.207611083984375	-4.4403076171875	-1.24359130859375	9.750386260986328	0.03232172241210937	0.33099837951660155	0.102996826171875	-4.810333251953125	-3.124237060546875	10.078990438842773	0.4273649963378906	-0.4070142822265625	2.57110595703125	-4.581451416015625	-1.911163330078125	
212	0.848	0.0	0.0	0.0	0.0	0.003	0.003	0.003	0.006	9.97184991455078	0.0	-0.2454056701660156	2.66265869140625	-3.94439697265625	-0.988006591796875	9.686939916992188	0.37828386230468747	0.40761283264160153	0.194549560546875	-4.779815673828125	-3.265380859375	9.668384854125977	0.4052186309814453	0.09277531433105468	2.28118896484375	-4.638671875	-1.712799072265625	
213	0.852	0.0	0.0	0.0	0.0	0.009000000000000001	0.003	0.003	0.006	10.008361489868163	0.1849520782470703	-0.201112939453125	6.870269775390625	-5.45501708984375	-0.28228759765625	9.878476049804688	0.031124621582031248	0.10175357055664062	0.09918212890625	-5.001068115234375	-3.21197509765625	10.203488925170898	0.35314474487304687	-0.5542576843261718	2.3651123046875	-5.031585693359375	-2.09808349609375	
214	0.856	0.0	0.0	0.0	0.0	0.006	0.006	0.003	0.006	9.828197814941406	0.047285482788085934	-0.2507926239013672	1.9378662109375	-3.42559814453125	-1.27410888671875	9.715071786499022	0.12449848632812499	-0.044292730712890624	0.186920166015625	-4.787445068359375	-3.177642822265625	9.676764559936522	0.30346506042480464	0.1197100830078125	2.323150634765625	-4.67681884765625	-2.040863037109375	
215	0.86	0.0	0.0	0.0	0.0	0.003	0.006	0.003	0.003	9.865906491088866	0.16639701538085935	-0.11731588134765625	4.161834716796875	-4.611968994140625	-1.033782958984375	9.830592016601562	0.09516951599121093	0.1322796417236328	0.339508056640625	-5.19561767578125	-2.941131591796875	9.704297879028319	0.4584896179199218	-0.05327098693847656	2.288818359375	-4.9285888671875	-2.1820068359375	
216	0.864	0.0	0.0	0.0	0.0	0.003	0.003	0.006	0.006	9.991003527832031	-0.15562310791015624	-0.32082302246093747	2.2125244140625	-3.894805908203125	-0.60272216796875	9.753379013061522	0.20709844360351562	-0.0796072052001953	0.125885009765625	-4.840850830078125	-3.0059814453125	9.758765966796874	0.34057518615722654	-0.014963760375976562	2.31170654296875	-4.627227783203125	-2.05230712890625	
217	0.868	0.0	0.0	0.0	0.0	0.006	0.003	0.003	0.0	9.74799205932617	-0.11252747802734374	-0.1083376251220703	1.911163330078125	-3.925323486328125	-0.438690185546875	9.69771382446289	0.05386953735351562	-0.054468087768554684	0.766754150390625	-5.37109375	-3.04412841796875	9.817423907470703	0.4004302276611328	-0.10295067138671875	2.162933349609375	-4.772186279296875	-2.197265625	
218	0.872	0.0	0.0	0.0	0.0	0.003	0.003	0.006	0.006	9.734225399780273	0.11252747802734374	-0.014963760375976562	0.89263916015625	-3.05938720703125	-1.18255615234375	9.670779055786133	0.2609679809570312	-0.055066638183593745	0.225067138671875	-4.642486572265625	-3.154754638671875	9.92217023010254	0.3962403747558593	-0.12988544006347655	2.361297607421875	-4.41741943359375	-1.71661376953125	
219	0.876	0.0	0.0	0.0	0.0	0.006	0.006	0.003	0.003	9.861716638183593	-0.31663316955566406	-0.08559270935058594	-1.1749267578125	-2.38800048828125	-1.361846923828125	9.642647186279296	0.14484920043945312	0.06344634399414062	0.499725341796875	-5.33294677734375	-3.093719482421875	9.770736975097655	0.5243301635742187	-0.07362170104980469	2.197265625	-4.863739013671875	-2.079010009765625	
220	0.88	0.0	0.0	0.0	0.0	0.003	0.003	0.006	0.003	10.001178884887695	-0.19931728820800781	-0.13946224670410157	4.619598388671875	-4.909515380859375	-0.110626220703125	9.872490545654296	0.17298106994628906	0.14784195251464843	1.079559326171875	-4.993438720703125	-3.391265869140625	10.04846436767578	0.33518823242187495	-0.2316390106201172	2.529144287109375	-4.302978515625	-1.689910888671875	
221	0.884	0.0	0.0	0.0	0.0	0.003	0.003	0.003	0.0	9.85752678527832	-0.013168109130859374	-0.0017956512451171875	4.1961669921875	-4.810333251953125	-0.186920166015625	9.64025298461914	0.12569558715820311	0.11671733093261719	0.8392333984375	-5.1727294921875	-3.34930419921875	9.958681805419921	0.3711012573242187	-0.04908113403320312	2.960205078125	-4.5623779296875	-1.750946044921875	
222	0.888	0.0	0.0	0.0	0.0	0.006	0.006	0.003	0.003	9.789292037963866	0.4267664459228515	0.21906945190429686	0.713348388671875	-2.8076171875	-1.1749267578125	9.785102185058593	0.18375497741699218	0.19632453613281248	0.843048095703125	-5.100250244140625	-3.322601318359375	9.948506448364258	0.39983167724609375	-0.181959326171875	2.43377685546875	-4.467010498046875	-1.556396484375	
223	0.892	0.0	0.0	0.0	0.0	0.003	0.003	0.006	0.003	9.894038360595703	-0.0383072265625	-0.05327098693847656	-0.8697509765625	-2.338409423828125	-1.6632080078125	9.813832604980469	0.1406593475341797	0.4734533782958984	0.583648681640625	-4.8675537109375	-3.086090087890625	10.037690460205077	0.37409400939941406	-0.16340426330566404	2.803802490234375	-4.81414794921875	-1.537322998046875	
224	0.896	0.0	0.0	0.0	0.0	0.003	0.003	0.003	0.006	10.123283169555663	-0.11911153259277343	-0.07721300354003906	3.73077392578125	-4.180908203125	-0.278472900390625	9.85094273071289	0.16759411621093748	0.16998831787109375	0.835418701171875	-4.688262939453125	-3.18145751953125	10.08078609008789	0.46148236999511716	-0.7122749938964843	3.02886962890625	-4.405975341796875	-1.468658447265625	
225	0.9	0.0	0.0	0.0	0.0	0.003	0.003	0.006	0.006	9.637858782958984	0.5704185455322265	0.4417302062988281	6.740570068359375	-5.828857421875	0.34332275390625	9.752181912231444	0.12330138549804687	0.3274070770263672	0.461578369140625	-5.14984130859375	-3.204345703125	9.87608184814453	0.4375403533935547	-0.0047884033203125	2.834320068359375	-4.619598388671875	-1.62506103515625	
226	0.904	0.0	0.0	0.0	0.0	0.006	0.003	0.006	0.003	9.841365924072266	0.28490999755859375	-0.025139117431640625	4.390716552734375	-4.99725341796875	0.06103515625	9.935936889648437	0.22206220397949217	-0.034715924072265626	0.9613037109375	-5.01251220703125	-2.838134765625	10.302249743652343	0.5099649536132812	-0.6488286499023437	3.23486328125	-4.627227783203125	-1.399993896484375	
227	0.908	0.0	0.0	0.0	0.0	0.003	0.006	0.003	0.006	9.592967501831055	0.36691140441894526	0.4034229797363281	-0.4730224609375	-2.32696533203125	-1.514434814453125	9.85752678527832	0.16280571289062498	0.2747346405029297	0.759124755859375	-5.336761474609375	-3.253936767578125	10.044274514770507	0.3920505218505859	-0.1849520782470703	2.76947021484375	-4.673004150390625	-1.552581787109375	
228	0.912	0.0	0.0	0.0	0.0	0.006	0.003	0.006	0.006	9.855731134033203	-0.08738836059570312	0.010773907470703125	-2.37274169921875	-1.422882080078125	-1.617431640625	9.95389340209961	0.2424129180908203	0.011372457885742187	0.9307861328125	-5.008697509765625	-3.101348876953125	10.328585961914062	0.5494692810058593	-0.6332663391113281	3.0670166015625	-4.5013427734375	-1.605987548828125	
229	0.916	0.0	0.0	0.0	0.0	0.006	0.006	0.003	0.003	9.757568865966796	0.3381809844970703	0.3806780639648437	4.863739013671875	-4.7607421875	-0.1220703125	9.561244329833984	0.36212300109863277	0.5392939239501953	0.606536865234375	-5.023956298828125	-3.19671630859375	9.934739788818359	0.39923312683105466	-0.03411737365722656	2.92205810546875	-4.87518310546875	-1.76239013671875	
230	0.92	0.0	0.0	0.0	0.0	0.003	0.003	0.006	0.003	9.93354268798828	0.4010287780761719	0.008379705810546874	3.162384033203125	-4.12750244140625	-0.698089599609375	10.03050785522461	0.2316390106201172	-0.06703764648437499	1.36566162109375	-4.848480224609375	-3.017425537109375	10.375272894287109	0.5099649536132812	-0.6655880615234374	3.078460693359375	-4.619598388671875	-1.422882080078125	
231	0.924	0.0	0.0	0.0	0.0	0.003	0.003	0.003	0.006	9.589974749755859	0.5069722015380859	0.36152445068359373	5.359649658203125	-4.802703857421875	-0.286102294921875	9.597157354736327	0.296881005859375	0.49260699157714843	0.347137451171875	-4.917144775390625	-2.994537353515625	10.001777435302733	0.34117373657226563	-0.09935936889648436	2.7313232421875	-4.619598388671875	-1.590728759765625	
232	0.928	0.0	0.0	0.0	0.0	0.003	0.003	0.006	0.003	9.898228213500976	0.28790274963378903	-0.00239420166015625	-1.6326904296875	-1.697540283203125	-1.789093017578125	9.846154327392577	0.21068974609375	0.00239420166015625	0.537872314453125	-5.275726318359375	-3.147125244140625	9.947907897949218	0.6607996582031249	-0.18734627990722655	2.620697021484375	-4.90570068359375	-1.7852783203125	
233	0.932	0.0	0.0	0.0	0.0	0.009000000000000001	0.006	0.003	0.003	9.663596450805663	0.2765302917480469	0.21308394775390624	2.643585205078125	-4.085540771484375	-1.293182373046875	9.604339959716796	0.30047230834960936	0.46507367248535153	0.522613525390625	-5.031585693359375	-3.0670166015625	9.999981784057617	0.3399766357421875	-0.06703764648437499	2.86102294921875	-4.64630126953125	-1.827239990234375	
234	0.936	0.0	0.0	0.0	0.0	0.003	0.003	0.006	0.006	9.931747036743163	0.2657563842773437	0.08379705810546874	0.591278076171875	-2.655029296875	-1.132965087890625	9.941323843383788	0.17178396911621094	-0.001197100830078125	0.698089599609375	-4.87518310546875	-3.292083740234375	10.102932455444336	0.6057330200195312	-0.3028665100097656	2.552032470703125	-4.734039306640625	-1.850128173828125	
235	0.9400000000000001	0.0	0.0	0.0	0.0	0.006	0.006	0.003	0.006	9.764751470947266	0.24839842224121092	0.12509703674316405	2.99835205078125	-3.7994384765625	-1.216888427734375	9.534908111572266	0.3806780639648437	0.5141548065185546	0.46539306640625	-4.82177734375	-3.5858154296875	9.682151513671874	0.2645592834472656	0.1227028350830078	2.292633056640625	-4.619598388671875	-2.010345458984375	
236	0.9440000000000001	0.0	0.0	0.0	0.0	0.006	0.003	0.003	0.006	9.917980377197265	0.5159504577636719	0.08499415893554688	-0.48065185546875	-2.285003662109375	-1.552581787109375	9.899425314331054	0.20171148986816406	0.006584054565429687	0.75531005859375	-4.840850830078125	-3.185272216796875	10.041281762695311	0.6949170318603515	-0.33039982910156246	2.5482177734375	-4.8065185546875	-1.47247314453125	
237	0.9480000000000001	0.0	0.0	0.0	0.0	0.003	0.006	0.006	0.006	9.91498762512207	-0.21068974609375	-0.14484920043945312	3.44085693359375	-4.12750244140625	-1.15203857421875	9.641450085449218	0.18136077575683593	0.34177228698730466	0.3814697265625	-4.92095947265625	-3.34930419921875	9.738415252685547	0.16998831787109375	0.08319850769042968	2.216339111328125	-4.49371337890625	-2.124786376953125	
238	0.9520000000000001	0.0	0.0	0.0	0.0	0.006	0.003	0.006	0.003	9.906009368896484	0.23523031311035156	-0.05686228942871093	5.252838134765625	-5.0048828125	-0.156402587890625	9.873089096069336	0.11013327636718749	0.055066638183593745	0.339508056640625	-4.85992431640625	-3.2806396484375	10.035894808959961	0.651821401977539	-0.3429693878173828	2.40325927734375	-4.970550537109375	-1.8157958984375	
239	0.9560000000000001	0.0	0.0	0.0	0.0	0.003	0.006	0.006	0.003	9.785700735473633	-0.14903905334472656	-0.07122749938964844	5.1727294921875	-4.863739013671875	-0.43487548828125	9.558850128173827	0.3022679595947265	0.4321533996582031	0.492095947265625	-4.852294921875	-3.444671630859375	9.66000514831543	0.2603694305419922	0.09935936889648436	2.2430419921875	-4.53948974609375	-1.99127197265625	
240	0.96	0.0	0.0	0.0	0.0	0.009000000000000001	0.003	0.006	0.006	9.866505041503906	0.507570751953125	-0.044292730712890624	2.964019775390625	-4.138946533203125	-0.789642333984375	9.725247143554688	0.12389993591308593	0.07900865478515624	0.568389892578125	-5.001068115234375	-2.87628173828125	9.810241302490233	0.5991489654541016	0.005985504150390624	2.18963623046875	-4.79888916015625	-2.124786376953125	
241	0.964	0.0	0.0	0.0	0.0	0.003	0.006	0.003	0.003	9.710881933593749	0.03172317199707031	0.06344634399414062	1.964569091796875	-3.42559814453125	-1.117706298828125	9.602544308471678	0.24600422058105467	0.37888241271972656	0.209808349609375	-4.405975341796875	-3.3721923828125	9.728838446044922	0.20231004028320312	0.040102877807617184	2.803802490234375	-4.512786865234375	-2.044677734375	
242	0.968	0.0	0.0	0.0	0.0	0.003	0.003	0.006	0.0	9.91438907470703	0.5021837982177734	-0.031124621582031248	4.46319580078125	-4.711151123046875	-0.70953369140625	9.706093530273437	0.16041151123046873	0.05805939025878906	0.469207763671875	-5.04302978515625	-2.964019775390625	9.783905084228515	0.5907692596435546	-0.0005985504150390625	2.32696533203125	-4.711151123046875	-2.14385986328125	
243	0.972	0.0	0.0	0.0	0.0	0.006	0.006	0.006	0.006	9.849147079467773	-0.03591302490234375	0.04249707946777344	2.765655517578125	-3.8604736328125	-0.89263916015625	9.795876092529296	0.13287819213867186	0.06763619689941405	0.278472900390625	-4.619598388671875	-3.27301025390625	10.101136804199218	0.3477577911376953	-0.4465186096191406	2.803802490234375	-4.306793212890625	-1.476287841796875	
244	0.976	0.0	0.0	0.0	0.0	3.855	4.644	4.65	4.6290000000000004	9.954491952514648	0.45549686584472654	-0.18854338073730467	4.711151123046875	-4.96673583984375	-0.518798828125	9.749189160156249	0.1466448516845703	0.04129997863769531	0.423431396484375	-5.161285400390625	-2.941131591796875	9.878476049804688	0.5997475158691405	-0.07302315063476562	2.31170654296875	-4.66156005859375	-2.23541259765625	
245	0.98	0.0	0.0	0.0	0.0	4.6290000000000004	4.656	4.659	4.611	9.861716638183593	-0.1322796417236328	0.011372457885742187	0.484466552734375	-2.777099609375	-0.873565673828125	9.81263550415039	0.13347674255371092	0.08259995727539061	0.217437744140625	-4.787445068359375	-3.314971923828125	10.114304913330077	0.36212300109863277	-0.5237316131591797	3.032684326171875	-4.322052001953125	-1.3275146484375	
246	0.984	0.0	0.0	0.0	0.0	4.6290000000000004	4.659	4.659	4.605	9.89583401184082	0.38307226562499996	-0.003591302490234375	4.34112548828125	-4.695892333984375	-0.32806396484375	9.860519537353515	0.22385785522460935	0.10953472595214843	0.514984130859375	-5.336761474609375	-2.651214599609375	9.980229620361328	0.40581718139648437	-0.21248539733886718	3.040313720703125	-4.6234130859375	-1.67083740234375	
247	0.988	0.0	0.0	0.0	0.0	4.6290000000000004	4.656	4.659	4.611	9.892841259765625	-0.022744915771484374	0.014963760375976562	1.861572265625	-3.330230712890625	-0.66375732421875	9.814431155395507	0.105344873046875	0.1227028350830078	0.3662109375	-4.566192626953125	-3.30352783203125	10.147225186157225	0.3315969299316406	-0.5099649536132812	2.92205810546875	-4.581451416015625	-1.346588134765625	
248	0.992	0.0	0.0	0.0	0.0	4.626	4.65	4.659	4.62	9.904812268066406	0.1370680450439453	0.09756371765136718	5.16510009765625	-5.1727294921875	-0.49591064453125	9.922768780517577	0.2442085693359375	0.040701428222656245	0.19073486328125	-5.268096923828125	-2.9449462890625	10.088567245483398	0.3890577697753906	-0.3920505218505859	2.986907958984375	-4.497528076171875	-1.68609619140625	
249	0.996	0.0	0.0	0.0	0.0	4.626	4.659	4.659	4.6290000000000004	9.827000714111328	0.0718260498046875	0.029328970336914062	1.77764892578125	-3.48663330078125	-0.885009765625	10.040683212280273	0.1352723937988281	-0.2280477081298828	0.83160400390625	-5.069732666015625	-2.811431884765625	10.0748005859375	0.42497079467773435	-0.4722562774658203	3.139495849609375	-4.741668701171875	-1.2969970703125	
250	1.0	0.0	0.0	0.0	0.0	4.62	4.659	4.659	4.6290000000000004	9.859920986938477	0.1352723937988281	0.13168109130859373	4.627227783203125	-5.016326904296875	-0.705718994140625	9.911396322631836	0.1592144104003906	0.023343466186523436	0.2899169921875	-5.390167236328125	-2.7618408203125	10.08078609008789	0.39444472351074217	-0.38247371520996093	3.326416015625	-4.657745361328125	-1.651763916015625	
251	1.004	0.0	0.0	0.0	0.0	4.623	4.656	4.6530000000000005	4.6290000000000004	10.05564697265625	-0.010773907470703125	-0.13587094421386717	-1.636505126953125	-1.800537109375	-1.125335693359375	10.090961447143554	0.11791443176269531	-0.23702596435546874	1.239776611328125	-5.0506591796875	-3.215789794921875	10.405200415039062	0.5967547637939453	-0.7930792999267577	2.95257568359375	-4.695892333984375	-1.2664794921875	
252	1.008	0.0	0.0	0.0	0.0	4.6290000000000004	4.659	4.659	4.611	9.821613760375977	0.20171148986816406	0.1322796417236328	4.8065185546875	-4.718780517578125	-0.457763671875	9.660603698730467	0.34117373657226563	0.28969840087890625	0.484466552734375	-5.22613525390625	-2.777099609375	10.06881508178711	0.36930560607910157	-0.3537432952880859	2.84576416015625	-4.802703857421875	-1.80816650390625	
253	1.012	0.0	0.0	0.0	0.0	4.6290000000000004	4.659	4.659	4.605	10.034697708129881	0.04848258361816406	-0.1657984649658203	-2.1209716796875	-1.903533935546875	-1.3885498046875	10.03050785522461	0.17597382202148437	-0.17597382202148437	0.728607177734375	-4.93621826171875	-3.047943115234375	10.340556970214843	0.6524199523925781	-0.7302315063476562	3.2501220703125	-4.718780517578125	-1.45721435546875	
254	1.016	0.0	0.0	0.0	0.0	4.632	4.656	4.659	4.614	9.82520506286621	0.12150573425292968	0.09576806640624999	3.753662109375	-4.550933837890625	-0.400543212890625	9.692925421142577	0.3178302703857422	0.2567781280517578	0.766754150390625	-5.08880615234375	-2.72369384765625	9.961076007080077	0.2555810272216797	-0.029927520751953124	2.9144287109375	-4.650115966796875	-1.697540283203125	
255	1.02	0.0	0.0	0.0	0.0	4.6290000000000004	4.65	4.659	4.62	10.032902056884765	0.044292730712890624	-0.15382745666503905	-1.270294189453125	-1.941680908203125	-1.3275146484375	10.001777435302733	0.14245499877929688	-0.1693897674560547	1.02996826171875	-4.99725341796875	-3.25775146484375	10.311826550292968	0.5967547637939453	-0.5907692596435546	3.009796142578125	-4.7607421875	-1.5106201171875	
256	1.024	0.0	0.0	0.0	0.0	4.6290000000000004	4.659	4.662	4.632	9.674968908691406	0.2693476867675781	0.2885013000488281	2.105712890625	-3.620147705078125	-1.28936767578125	9.672574707031249	0.38187516479492184	0.3184288208007812	0.77056884765625	-5.19561767578125	-2.838134765625	9.916783276367187	0.3058592620849609	0.05027823486328125	2.6397705078125	-4.680633544921875	-1.811981201171875	
257	1.028	0.0	0.0	0.0	0.0	4.623	4.659	4.659	0.006	10.011354241943359	0.1292868896484375	-0.0652419952392578	-1.438140869140625	-1.857757568359375	-1.323699951171875	9.90122096557617	0.07541735229492187	0.10414777221679687	1.049041748046875	-5.100250244140625	-3.391265869140625	10.044274514770507	0.5823895538330078	-0.181959326171875	2.288818359375	-4.878997802734375	-2.0751953125	
258	1.032	0.0	0.0	0.0	0.0	0.003	0.003	0.003	0.006	9.741408004760741	0.2262520568847656	0.22505495605468748	1.842498779296875	-3.37982177734375	-1.3580322265625	9.69831237487793	0.38247371520996093	0.2609679809570312	0.965118408203125	-5.428314208984375	-2.788543701171875	9.943119494628906	0.2771288421630859	0.040701428222656245	2.750396728515625	-4.787445068359375	-1.819610595703125	
259	1.036	0.0	0.0	0.0	0.0	0.006	0.006	0.003	0.003	10.012551342773437	0.14903905334472656	-0.04189852905273437	3.936767578125	-2.399444580078125	-1.171112060546875	9.889249957275391	0.0796072052001953	0.13108254089355467	0.95367431640625	-5.184173583984375	-3.387451171875	9.991003527832031	0.5758054992675781	-0.12808978881835936	2.185821533203125	-4.962921142578125	-2.1209716796875	
260	1.04	0.0	0.0	0.0	0.0	0.003	0.003	0.006	0.006	9.744999307250977	0.19991583862304688	0.19812018737792966	1.880645751953125	-3.56292724609375	-1.04522705078125	9.673771807861328	0.36691140441894526	0.34656069030761716	0.823974609375	-4.825592041015625	-3.276824951171875	9.97244846496582	0.3142389678955078	0.011372457885742187	2.277374267578125	-4.665374755859375	-1.8768310546875	
261	1.044	0.0	0.0	0.0	0.0	0.003	0.006	0.003	0.006	9.8694977935791	0.4531026641845703	0.07302315063476562	3.215789794921875	-3.917694091796875	-0.804901123046875	9.929352835083007	-0.029927520751953124	0.09576806640624999	0.89263916015625	-5.100250244140625	-3.391265869140625	10.034099157714843	0.5159504577636719	-0.16998831787109375	2.300262451171875	-4.7454833984375	-2.166748046875	
262	1.048	0.0	0.0	0.0	0.0	0.003	0.003	0.003	0.006	9.780912332153319	0.1197100830078125	0.19632453613281248	1.026153564453125	-2.841949462890625	-1.308441162109375	9.613318215942382	0.38666356811523434	0.3854664672851562	0.606536865234375	-4.8675537109375	-3.498077392578125	9.65940659790039	0.37289690856933594	0.15682020874023436	2.2125244140625	-4.45556640625	-1.842498779296875	
263	1.052	0.0	0.0	0.0	0.0	0.006	0.003	0.006	0.006	9.873687646484374	0.3435679382324219	0.05327098693847656	4.96673583984375	-5.1727294921875	-0.568389892578125	9.643245736694336	0.11851298217773437	0.3591302490234375	0.339508056640625	-5.001068115234375	-3.215789794921875	10.084377392578125	0.5811924530029297	-0.3076549133300781	2.6397705078125	-5.1116943359375	-1.827239990234375	
264	1.056	0.0	0.0	0.0	0.0	-0.003	0.003	0.003	0.009000000000000001	9.888651406860351	0.15562310791015624	0.03950432739257812	2.471923828125	-3.749847412109375	-0.640869140625	9.692326870727538	0.36631285400390623	0.3489548919677734	0.949859619140625	-5.054473876953125	-3.589630126953125	9.704896429443359	0.3633201019287109	0.15502455749511718	2.18963623046875	-4.29534912109375	-1.6632080078125	
265	1.06	0.0	0.0	0.0	0.0	0.009000000000000001	0.003	0.003	0.003	9.853336932373047	0.4034229797363281	0.1370680450439453	5.222320556640625	-5.035400390625	-0.6103515625	9.624092123413085	0.028131869506835935	0.40880993347167965	0.35858154296875	-4.955291748046875	-3.215789794921875	9.835380419921874	0.32620997619628905	-0.061650692749023434	2.429962158203125	-4.627227783203125	-2.124786376953125	
266	1.064	0.0	0.0	0.0	0.0	0.003	0.003	0.006	0.006	9.884461553955077	0.19393033447265623	0.11552023010253906	3.398895263671875	-4.261016845703125	-0.545501708984375	9.695319622802733	0.24361001892089842	0.1370680450439453	0.392913818359375	-4.9896240234375	-3.39508056640625	9.647435589599608	0.469263525390625	0.12210428466796874	2.49481201171875	-4.53948974609375	-1.83868408203125	
267	1.068	0.0	0.0	0.0	0.0	0.003	0.003	0.006	0.006	9.868899243164062	0.36750995483398435	-0.009576806640625	5.126953125	-4.558563232421875	-0.67901611328125	9.718663088989258	0.0053869537353515625	0.29388825378417965	-0.03814697265625	-5.096435546875	-2.84576416015625	9.881468801879882	0.3711012573242187	-0.11552023010253906	2.376556396484375	-4.7607421875	-1.7242431640625	
268	1.072	0.0	0.0	0.0	0.0	0.006	0.003	0.006	0.003	9.980828170776366	0.24480711975097655	0.007781155395507812	3.01361083984375	-4.00543212890625	-0.8392333984375	9.771335525512695	0.16160861206054686	0.08499415893554688	0.18310546875	-4.73785400390625	-3.41033935546875	10.10712230834961	0.4734533782958984	-0.35613749694824215	2.685546875	-4.60052490234375	-1.605987548828125	
269	1.076	0.0	0.0	0.0	0.0	0.003	0.003	0.006	0.006	9.82580361328125	-0.3525461944580078	0.0017956512451171875	2.78472900390625	-4.28009033203125	-0.8392333984375	9.745597857666015	0.1640028137207031	0.08319850769042968	0.61798095703125	-4.974365234375	-2.99072265625	9.756371765136718	0.3507505432128906	-0.011971008300781249	2.353668212890625	-4.917144775390625	-1.964569091796875	
270	1.08	0.0	0.0	0.0	0.0	0.003	0.003	0.006	0.003	9.967660061645507	0.2555810272216797	0.028131869506835935	3.08990478515625	-4.15802001953125	-0.4730224609375	9.783905084228515	0.16280571289062498	-0.002992752075195312	0.316619873046875	-4.6539306640625	-3.27301025390625	10.070012182617187	0.5530605834960938	-0.36930560607910157	2.826690673828125	-4.398345947265625	-1.499176025390625	
271	1.084	0.0	0.0	0.0	0.0	0.0	0.003	0.003	0.003	9.929951385498047	-0.3010708587646484	-0.08439560852050781	2.689361572265625	-4.055023193359375	-0.637054443359375	9.811438403320311	0.15981296081542967	0.076614453125	0.293731689453125	-4.99725341796875	-2.841949462890625	9.899425314331054	0.277727392578125	-0.13168109130859373	2.887725830078125	-4.85992431640625	-1.560211181640625	
272	1.088	0.0	0.0	0.0	0.0	0.003	0.006	0.003	0.006	9.95389340209961	0.1274912384033203	0.027533319091796873	3.56292724609375	-4.23431396484375	-0.457763671875	9.9215716796875	-0.010175357055664061	0.030526071166992186	1.0528564453125	-5.245208740234375	-3.2806396484375	10.015544094848632	0.45549686584472654	-0.2567781280517578	2.685546875	-4.547119140625	-1.89971923828125	
273	1.092	0.0	0.0	0.0	0.0	0.006	0.006	0.003	0.003	9.861118087768554	-0.4656722229003906	-0.023942016601562498	0.69427490234375	-3.3111572265625	-0.621795654296875	9.733626849365233	0.1753752716064453	0.03411737365722656	0.469207763671875	-5.218505859375	-2.83050537109375	9.94671079711914	0.39923312683105466	-0.14903905334472656	2.81524658203125	-4.852294921875	-1.514434814453125	
274	1.096	0.0	0.0	0.0	0.0	0.003	0.003	0.006	0.006	10.000580334472655	0.011372457885742187	-0.0939724151611328	1.28173828125	-3.261566162109375	-0.797271728515625	9.97184991455078	0.08499415893554688	-0.055066638183593745	1.2664794921875	-5.21087646484375	-3.2501220703125	10.126874472045898	0.4572925170898437	-0.32441432495117184	2.597808837890625	-4.489898681640625	-1.8157958984375	
275	1.1	0.0	0.0	0.0	0.0	0.003	0.006	0.006	0.003	9.79946739501953	-0.45968671875	0.09816226806640624	0.637054443359375	-3.3111572265625	-0.888824462890625	9.739612353515625	0.011971008300781249	0.03950432739257812	1.251220703125	-4.608154296875	-2.925872802734375	10.053252770996092	0.3220201232910156	-0.1292868896484375	2.948760986328125	-4.680633544921875	-1.495361328125	
276	1.104	0.0	0.0	0.0	0.0	0.006	0.006	0.003	0.006	9.853935482788085	0.24480711975097655	0.25917232971191406	1.04522705078125	-3.204345703125	-1.094818115234375	9.81263550415039	0.25438392639160157	0.13946224670410157	1.190185546875	-5.401611328125	-3.50189208984375	10.241197601318358	0.4842272857666015	-0.4477157104492187	2.960205078125	-4.932403564453125	-1.934051513671875	
277	1.108	0.0	0.0	0.0	0.0	0.003	0.003	0.006	0.003	9.919177478027343	0.7170633972167968	0.5165490081787109	2.34222412109375	-3.5552978515625	-0.751495361328125	9.722254391479492	0.3603273498535156	0.5159504577636719	1.453399658203125	-4.96673583984375	-2.811431884765625	10.114304913330077	0.4435258575439453	-0.18734627990722655	2.773284912109375	-4.917144775390625	-1.54876708984375	
278	1.112	0.0	0.0	0.0	0.0	0.009000000000000001	0.003	0.006	0.003	9.93952819213867	0.23642741394042968	0.18375497741699218	2.086639404296875	-3.509521484375	-0.804901123046875	9.916783276367187	0.29927520751953124	0.14125789794921875	1.678466796875	-4.95147705078125	-3.4332275390625	10.43153663330078	0.354341845703125	-0.6440402465820312	3.047943115234375	-4.40216064453125	-1.445770263671875	
279	1.116	0.0	0.0	0.0	0.0	0.003	0.003	0.003	0.003	9.576806640625	0.6649895111083984	0.6177040283203125	2.8076171875	-3.536224365234375	-0.881195068359375	9.59536170349121	0.1005564697265625	0.7493851196289062	1.132965087890625	-5.138397216796875	-3.265380859375	9.871293444824218	0.3950432739257812	0.04548983154296875	2.7313232421875	-4.53948974609375	-1.750946044921875	
280	1.12	0.0	0.0	0.0	0.0	0.006	0.003	0.003	0.003	9.97184991455078	0.5309142181396485	0.11851298217773437	2.101898193359375	-3.50189208984375	-1.01470947265625	9.945513696289062	0.40581718139648437	0.12210428466796874	0.46539306640625	-5.191802978515625	-3.429412841796875	10.357316381835936	0.5728127471923827	-0.7589619262695312	2.979278564453125	-4.932403564453125	-1.491546630859375	
281	1.124	0.0	0.0	0.0	0.0	0.006	0.006	0.006	0.006	9.715071786499022	0.5380968231201172	0.12689268798828124	4.077911376953125	-4.062652587890625	-0.6561279296875	9.795876092529296	0.0652419952392578	0.5967547637939453	0.789642333984375	-4.73785400390625	-3.0670166015625	10.01075569152832	0.40462008056640625	-0.08858546142578125	2.735137939453125	-4.7760009765625	-1.6632080078125	
282	1.1280000000000001	0.0	0.0	0.0	0.0	0.003	0.006	0.003	0.006	9.900622415161132	0.14185644836425781	-0.16819266662597654	3.574371337890625	-4.337310791015625	-0.7476806640625	9.964667309570311	0.1580173095703125	0.1352723937988281	0.48065185546875	-4.978179931640625	-2.99072265625	10.248380206298828	0.33578678283691404	-0.5255272644042969	2.407073974609375	-4.7760009765625	-1.987457275390625	
283	1.1320000000000001	0.0	0.0	0.0	0.0	0.003	0.006	0.006	0.003	9.718663088989258	0.37888241271972656	0.10654197387695312	3.7994384765625	-4.390716552734375	-0.67901611328125	9.600748657226562	0.2932897033691406	0.3298012786865234	0.42724609375	-5.016326904296875	-3.15093994140625	9.7683427734375	0.5662286926269531	0.07422025146484375	2.719879150390625	-4.703521728515625	-2.02178955078125	
284	1.1360000000000001	0.0	0.0	0.0	0.0	0.003	0.003	0.006	0.006	9.92217023010254	0.0430956298828125	-0.15562310791015624	2.307891845703125	-3.88336181640625	-0.83160400390625	10.086173043823242	0.14125789794921875	-0.16759411621093748	0.457763671875	-4.817962646484375	-2.887725830078125	9.941323843383788	0.5303156677246094	-0.18375497741699218	2.185821533203125	-4.802703857421875	-1.89971923828125	
285	1.1400000000000001	0.0	0.0	0.0	0.0	0.003	0.006	0.006	0.006	9.6779616607666	0.19153613281249998	0.07601590270996093	1.434326171875	-3.093719482421875	-0.946044921875	9.720458740234374	0.17956512451171874	0.19991583862304688	0.324249267578125	-4.856109619140625	-3.047943115234375	10.013149893188476	0.2902969512939453	-0.09516951599121093	2.67791748046875	-4.3792724609375	-1.99127197265625	
286	1.1440000000000001	0.0	0.0	0.0	0.0	0.006	0.006	0.006	0.003	9.742605105590819	0.5207388610839844	0.2693476867675781	2.9754638671875	-4.11224365234375	-0.705718994140625	9.597755905151367	0.25797522888183594	0.26216508178710934	0.34332275390625	-4.85992431640625	-3.1280517578125	9.828796365356444	0.6542156036376953	-0.16759411621093748	2.285003662109375	-4.894256591796875	-2.03704833984375	
287	1.1480000000000001	0.0	0.0	0.0	0.0	0.003	0.006	0.003	0.006	9.815628256225585	0.3286041778564453	0.031124621582031248	1.590728759765625	-3.437042236328125	-1.2054443359375	9.623493572998047	0.38845921936035155	0.3956418243408203	0.67138671875	-5.214691162109375	-3.276824951171875	9.619902270507811	0.3633201019287109	0.15083470458984374	2.166748046875	-4.669189453125	-1.995086669921875	
288	1.1520000000000001	0.0	0.0	0.0	0.0	0.006	0.006	0.006	0.003	9.948506448364258	0.4052186309814453	-0.009576806640625	1.6937255859375	-3.15093994140625	-1.2969970703125	9.894038360595703	0.037110125732421874	0.013168109130859374	0.46539306640625	-5.168914794921875	-3.16619873046875	10.141239682006836	0.43933600463867184	-0.35134909362792965	2.643585205078125	-5.0201416015625	-1.987457275390625	
289	1.156	0.0	0.0	0.0	0.0	0.003	0.003	0.003	0.003	9.809044201660155	0.10773907470703124	0.022744915771484374	3.84521484375	-4.180908203125	-0.95367431640625	9.588777648925781	0.1801636749267578	0.23882161560058593	0.057220458984375	-4.76837158203125	-3.25775146484375	9.609128363037108	0.18255787658691405	0.16041151123046873	2.407073974609375	-4.413604736328125	-2.14385986328125	
290	1.16	0.0	0.0	0.0	0.0	0.0	0.003	0.003	0.006	9.917980377197265	0.7134720947265625	0.002992752075195312	4.02069091796875	-4.852294921875	-0.392913818359375	9.701903677368163	0.2519897247314453	0.19572598571777342	0.247955322265625	-5.0811767578125	-3.0364990234375	9.625887774658203	0.7643488800048828	0.12030863342285156	2.368927001953125	-5.01251220703125	-1.880645751953125	
291	1.164	0.0	0.0	0.0	0.0	0.003	0.006	0.003	0.006	9.950302099609374	-0.17896657409667968	-0.15861585998535155	3.83758544921875	-4.150390625	-0.74005126953125	9.80665	0.11552023010253906	0.09935936889648436	0.03814697265625	-4.61578369140625	-2.994537353515625	9.91438907470703	0.09217676391601562	-0.02633621826171875	2.254486083984375	-4.505157470703125	-1.80816650390625	
292	1.168	0.0	0.0	0.0	0.0	0.012	0.006	0.003	0.003	9.947907897949218	-0.086191259765625	-0.18375497741699218	3.627777099609375	-4.375457763671875	-0.4119873046875	9.827599264526366	0.06404489440917968	0.0017956512451171875	0.58746337890625	-5.443572998046875	-3.337860107421875	9.874884747314452	0.4991910461425781	0.010175357055664061	2.628326416015625	-4.726409912109375	-2.08282470703125	
293	1.172	0.0	0.0	0.0	0.0	0.003	0.006	0.006	0.006	9.661202249145507	0.16639701538085935	0.19033903198242186	3.520965576171875	-4.451751708984375	-0.743865966796875	9.422380633544922	0.2549824768066406	0.5057751007080078	0.156402587890625	-4.6234130859375	-3.19671630859375	9.508571893310547	0.3555389465332031	0.21188684692382811	2.780914306640625	-4.474639892578125	-1.40380859375	
294	1.176	0.0	0.0	0.0	0.0	0.003	0.003	0.006	0.003	10.020931048583984	0.16819266662597654	-0.18375497741699218	3.566741943359375	-4.421234130859375	-0.579833984375	9.911994873046874	0.22864625854492185	-0.07422025146484375	0.537872314453125	-5.1116943359375	-2.964019775390625	9.97184991455078	0.5877765075683593	-0.08559270935058594	2.54058837890625	-4.7149658203125	-1.811981201171875	
295	1.18	0.0	0.0	0.0	0.0	0.006	0.006	0.006	0.006	9.96586441040039	-0.28431144714355466	-0.18854338073730467	0.400543212890625	-2.544403076171875	-0.759124755859375	9.711480484008788	0.05626373901367187	0.17178396911621094	0.957489013671875	-4.863739013671875	-3.05938720703125	10.388441003417968	0.2549824768066406	-0.6099228729248046	3.131866455078125	-4.474639892578125	-1.312255859375	
296	1.184	0.0	0.0	0.0	0.0	0.006	0.006	0.003	0.003	9.888651406860351	0.27353753967285155	-0.05027823486328125	4.0283203125	-4.7454833984375	-0.736236572265625	9.627084875488281	0.3130418670654297	0.19033903198242186	0.31280517578125	-5.069732666015625	-3.12042236328125	9.639055883789062	0.7122749938964843	0.16340426330566404	2.368927001953125	-4.6234130859375	-1.96075439453125	
297	1.188	0.0	0.0	0.0	0.0	0.006	1.557	4.65	4.617	9.873687646484374	-0.16220716247558592	-0.016160861206054686	0.797271728515625	-3.376007080078125	-0.652313232421875	9.900023864746093	0.17956512451171874	-0.05686228942871093	1.163482666015625	-4.856109619140625	-2.864837646484375	10.120290417480469	0.4908113403320312	-0.4423287567138672	2.99072265625	-4.547119140625	-1.148223876953125	
298	1.192	0.0	0.0	0.0	0.0	4.623	4.656	4.656	4.623	10.095749850463866	-0.2262520568847656	-0.3699041564941406	3.353118896484375	-4.20379638671875	-0.701904296875	9.986215124511718	0.11851298217773437	-0.1975216369628906	0.591278076171875	-5.21087646484375	-2.9296875	10.266935269165039	0.2711433380126953	-0.32920272827148434	3.10516357421875	-4.76837158203125	-1.5716552734375	
299	1.196	0.0	0.0	0.0	0.0	4.62	4.656	4.656	4.6290000000000004	9.884461553955077	-0.1693897674560547	0.017956512451171875	-0.22125244140625	-2.346038818359375	-0.980377197265625	9.841365924072266	0.10594342346191406	0.1149216796875	1.056671142578125	-4.90570068359375	-3.33404541015625	10.060435375976562	0.38786066894531246	-0.2825157958984375	2.941131591796875	-4.489898681640625	-1.384735107421875	
300	1.2	0.0	0.0	0.0	0.0	4.6290000000000004	4.656	4.659	4.62	9.585784896850585	0.3286041778564453	0.46148236999511716	4.497528076171875	-4.695892333984375	-0.560760498046875	9.649829791259766	0.40880993347167965	0.5213374114990235	0.5645751953125	-5.45501708984375	-2.735137939453125	9.860519537353515	0.5015852478027344	-0.11611878051757812	3.116607666015625	-5.008697509765625	-1.689910888671875	
301	1.204	0.0	0.0	0.0	0.0	4.626	4.659	4.662	4.614	10.024522351074218	-0.2914940521240234	-0.1322796417236328	-0.0457763671875	-2.55584716796875	-0.51116943359375	10.046070166015625	-0.018555062866210937	-0.10474632263183593	0.644683837890625	-4.70733642578125	-2.78472900390625	10.442310540771484	0.5440823272705078	-0.6344634399414062	2.63214111328125	-4.650115966796875	-1.36566162109375	
302	1.208	0.0	0.0	0.0	0.0	4.632	4.659	4.659	4.6080000000000005	9.689932669067382	0.18734627990722655	0.21428104858398436	4.96673583984375	-4.78363037109375	-0.621795654296875	9.881468801879882	0.2741360900878906	0.23104046020507812	0.6256103515625	-5.30242919921875	-2.93731689453125	10.181941110229491	0.2615665313720703	-0.3142389678955078	3.13568115234375	-4.43267822265625	-1.922607421875	
303	1.212	0.0	0.0	0.0	0.0	4.6290000000000004	4.656	4.659	4.623	9.737218151855469	0.10773907470703124	0.20051438903808594	-2.277374267578125	-1.678466796875	-1.544952392578125	9.943119494628906	0.08020575561523437	0.061650692749023434	0.934600830078125	-5.084991455078125	-3.078460693359375	10.070012182617187	0.6697779144287109	-0.3507505432128906	2.87628173828125	-4.7454833984375	-1.506805419921875	
