	time	dac1	dac2	dac3	dac4	adc1.3	adc2.3	adc3.3	adc4.3	imu1accx	imu1accy	imu1accz	imu1gyrox	imu1gyroy	imu1gyroz	imu2accx	imu2accy	imu2accz	imu2gyrox	imu2gyroy	imu2gyroz	imu3accx	imu3accy	imu3accz	imu3gyrox	imu3gyroy	imu3gyroz	log
0	0.0	0.0	0.0	0.0	0.0	4.494	4.563	4.557	4.506	9.858125335693359	0.14604630126953125	0.04848258361816406	2.35748291015625	-3.688812255859375	-0.762939453125	9.788094937133788	0.18734627990722655	0.17118541870117188	0.339508056640625	-4.901885986328125	-3.078460693359375	9.983820922851562	0.4207809417724609	-0.18375497741699218	2.58636474609375	-4.72259521484375	-1.76239013671875	Estabizou em 8s, 1729 rpm
1	0.004	0.0	0.0	0.0	0.0	4.506	4.566	4.566	4.47	9.86411083984375	0.14006079711914063	0.047884033203124995	2.285003662109375	-3.570556640625	-0.728607177734375	9.781510882568359	0.1879448303222656	0.17956512451171874	0.762939453125	-4.932403564453125	-3.208160400390625	9.97903251953125	0.42497079467773435	-0.18555062866210936	2.471923828125	-4.512786865234375	-1.781463623046875	Started
2	0.008	0.0	0.0	0.0	0.0	4.509	4.566	4.566	4.455	9.855132583618163	0.1370680450439453	0.047285482788085934	2.353668212890625	-3.692626953125	-0.637054443359375	9.773131176757811	0.18375497741699218	0.17417817077636719	0.732421875	-4.89044189453125	-2.941131591796875	9.983820922851562	0.41838674011230464	-0.18076222534179687	2.742767333984375	-4.7607421875	-1.86920166015625	IMU1|LSM6DS3|0x6A|I2C-1|±2g (±19,6m/s²)|±125º/s|400Hz
3	0.012	0.0	0.0	0.0	0.0	4.5120000000000005	4.563	4.566	4.476	9.86411083984375	0.1406593475341797	0.04848258361816406	2.4871826171875	-3.60107421875	-0.5645751953125	9.784503634643555	0.1927332336425781	0.1771709228515625	0.54931640625	-5.126953125	-3.11279296875	9.986215124511718	0.41898529052734373	-0.1879448303222656	2.635955810546875	-4.82177734375	-1.804351806640625	IMU2|LSM6DS3|0x6B|I2C-1|±2g (±19,6m/s²)|±125º/s|400Hz
4	0.016	0.0	0.0	0.0	0.0	4.503	4.566	4.569	4.488	9.858125335693359	0.14305354919433594	0.04848258361816406	2.47955322265625	-3.68499755859375	-0.79345703125	9.784503634643555	0.17776947326660156	0.17776947326660156	0.4119873046875	-4.886627197265625	-3.204345703125	9.982623822021484	0.4100070343017578	-0.18136077575683593	2.674102783203125	-4.642486572265625	-1.5716552734375	IMU3|LSM6DS3|0x6B|I2C-2|±2g (±19,6m/s²)|±125º/s|400Hz
5	0.02	0.0	0.0	0.0	0.0	4.503	4.569	4.569	4.494	9.852139831542969	0.13587094421386717	0.06284779357910156	2.5787353515625	-3.7841796875	-0.598907470703125	9.780912332153319	0.1771709228515625	0.1801636749267578	0.34332275390625	-4.802703857421875	-3.19671630859375	9.986215124511718	0.40282442932128903	-0.18136077575683593	2.66265869140625	-4.711151123046875	-1.674652099609375	ADC|ADS1015|0|0|1|0|±6,144 V|2400 SPS
6	0.024	0.0	0.0	0.0	0.0	4.488	4.566	4.563	4.506	9.859322436523437	0.14245499877929688	0.062249243164062495	2.5634765625	-3.84521484375	-0.81634521484375	9.785102185058593	0.17118541870117188	0.18076222534179687	0.835418701171875	-5.07354736328125	-3.22723388671875	9.98501802368164	0.4034229797363281	-0.1693897674560547	2.689361572265625	-4.70733642578125	-1.7242431640625	Gen1|Disabled
7	0.028	0.0	0.0	0.0	0.0	4.506	4.563	4.569	4.482	9.85692823486328	0.13407529296874998	0.061650692749023434	2.529144287109375	-3.662109375	-0.736236572265625	9.787496386718749	0.16879121704101563	0.1867477294921875	0.667572021484375	-5.2032470703125	-3.18145751953125	9.988609326171874	0.40581718139648437	-0.1657984649658203	2.635955810546875	-4.63104248046875	-1.865386962890625	Gen2|Enabled|Noise|0.0|10.0|1668
8	0.032	0.0	0.0	0.0	0.0	4.503	4.566	4.569	4.458	9.859322436523437	0.12868833923339842	0.0652419952392578	2.635955810546875	-3.936767578125	-0.762939453125	9.785102185058593	0.17597382202148437	0.1801636749267578	0.61798095703125	-4.863739013671875	-3.101348876953125	9.970652813720703	0.411802685546875	-0.17058686828613281	2.780914306640625	-4.7149658203125	-1.819610595703125	Gen3|Enabled|Noise|0.0|10.0|128
9	0.036000000000000004	0.0	0.0	0.0	0.0	4.5120000000000005	4.566	4.566	4.458	9.86291373901367	0.1370680450439453	0.0652419952392578	2.605438232421875	-3.696441650390625	-0.77056884765625	9.790489138793944	0.17956512451171874	0.18255787658691405	0.713348388671875	-4.871368408203125	-3.170013427734375	9.979631069946288	0.41958384094238277	-0.16639701538085935	2.66265869140625	-4.688262939453125	-1.8157958984375	Gen4|Enabled|Noise|0.0|10.0|128
10	0.04	0.0	0.0	0.0	0.0	4.506	4.557	4.563	4.488	9.865307940673828	0.15322890625	0.05746083984375	2.338409423828125	-3.84521484375	-0.64849853515625	9.78629928588867	0.18614917907714842	0.181959326171875	0.339508056640625	-4.825592041015625	-3.11279296875	9.97783541870117	0.4327519500732422	-0.18435352783203124	2.651214599609375	-4.489898681640625	-1.689910888671875	Ctrl|Disabled
11	0.044	0.0	0.0	0.0	0.0	4.497	4.566	4.569	4.497	9.86291373901367	0.15382745666503905	0.047884033203124995	2.6397705078125	-3.772735595703125	-0.820159912109375	9.785700735473633	0.19632453613281248	0.17896657409667968	0.75531005859375	-5.016326904296875	-3.299713134765625	9.976039767456054	0.4381389038085937	-0.1753752716064453	2.719879150390625	-4.63104248046875	-1.85394287109375	
12	0.048	0.0	0.0	0.0	0.0	4.497	4.566	4.566	4.497	9.861716638183593	0.15741875915527342	0.0526724365234375	2.47955322265625	-3.8604736328125	-0.79345703125	9.785102185058593	0.19333178405761717	0.17118541870117188	0.5340576171875	-4.85992431640625	-3.204345703125	9.981426721191406	0.430956298828125	-0.18315642700195311	2.716064453125	-4.734039306640625	-1.773834228515625	
13	0.052000000000000005	0.0	0.0	0.0	0.0	4.485	4.566	4.557	4.503	9.85094273071289	0.16160861206054686	0.06045359191894531	2.40325927734375	-3.650665283203125	-0.80108642578125	9.785102185058593	0.2059013427734375	0.18734627990722655	0.6103515625	-4.711151123046875	-3.27301025390625	9.974244116210937	0.43574470214843747	-0.19333178405761717	2.64739990234375	-4.718780517578125	-1.758575439453125	
14	0.056	0.0	0.0	0.0	0.0	4.503	4.566	4.569	4.473	9.853336932373047	0.16220716247558592	0.06584054565429687	2.552032470703125	-3.753662109375	-0.728607177734375	9.785102185058593	0.2059013427734375	0.1927332336425781	0.7781982421875	-5.008697509765625	-3.314971923828125	9.974842666625976	0.43514615173339843	-0.1927332336425781	2.64739990234375	-4.75311279296875	-1.758575439453125	
15	0.06	0.0	0.0	0.0	0.0	4.5120000000000005	4.566	4.566	4.452	9.853935482788085	0.15981296081542967	0.07422025146484375	2.544403076171875	-3.387451171875	-0.957489013671875	9.783905084228515	0.1945288848876953	0.1693897674560547	0.591278076171875	-4.84466552734375	-3.15093994140625	9.986215124511718	0.43155484924316406	-0.19393033447265623	2.368927001953125	-4.756927490234375	-1.68609619140625	
16	0.064	0.0	0.0	0.0	0.0	4.509	4.563	4.566	4.482	9.860519537353515	0.15861585998535155	0.06883329772949218	2.44903564453125	-3.765106201171875	-0.84686279296875	9.787496386718749	0.20290859069824219	0.181959326171875	0.6103515625	-4.9285888671875	-3.261566162109375	9.975441217041014	0.43933600463867184	-0.19512743530273435	2.597808837890625	-4.53948974609375	-1.8768310546875	
17	0.068	0.0	0.0	0.0	0.0	4.503	4.569	4.566	4.491	9.858723886108399	0.16160861206054686	0.07122749938964844	2.315521240234375	-3.910064697265625	-0.70953369140625	9.783905084228515	0.20769699401855468	0.19153613281249998	0.621795654296875	-4.817962646484375	-3.19671630859375	9.975441217041014	0.4429273071289062	-0.18136077575683593	2.51007080078125	-4.638671875	-1.68609619140625	
18	0.07200000000000001	0.0	0.0	0.0	0.0	4.503	4.566	4.566	4.497	9.860519537353515	0.14245499877929688	0.06643909606933593	2.227783203125	-3.925323486328125	-0.96893310546875	9.783905084228515	0.19512743530273435	0.1771709228515625	0.54168701171875	-4.863739013671875	-3.36456298828125	9.97783541870117	0.42796354675292964	-0.1657984649658203	2.79998779296875	-4.734039306640625	-1.689910888671875	
19	0.076	0.0	0.0	0.0	0.0	4.488	4.566	4.563	4.506	9.860519537353515	0.14245499877929688	0.076614453125	2.47955322265625	-3.902435302734375	-0.75531005859375	9.782109432983399	0.18555062866210936	0.19512743530273435	0.518798828125	-5.06591796875	-3.11279296875	9.974244116210937	0.43035774841308594	-0.14724340209960937	2.498626708984375	-4.66156005859375	-1.7547607421875	
20	0.08	0.0	0.0	0.0	0.0	4.506	4.563	4.569	4.482	9.853935482788085	0.14604630126953125	0.07003039855957031	2.47955322265625	-3.711700439453125	-0.7171630859375	9.785102185058593	0.1897404815673828	0.19931728820800781	0.63323974609375	-4.932403564453125	-3.31878662109375	9.980229620361328	0.4273649963378906	-0.14425065002441406	2.57110595703125	-4.604339599609375	-1.697540283203125	
21	0.084	0.0	0.0	0.0	0.0	4.503	4.569	4.569	4.461	9.853336932373047	0.16160861206054686	0.05566518859863281	2.35748291015625	-3.726959228515625	-0.885009765625	9.781510882568359	0.18854338073730467	0.20171148986816406	0.72479248046875	-4.962921142578125	-3.147125244140625	9.97783541870117	0.42317514343261714	-0.14006079711914063	2.704620361328125	-4.589080810546875	-1.750946044921875	
22	0.088	0.0	0.0	0.0	0.0	4.509	4.566	4.566	4.461	9.860519537353515	0.15263035583496093	0.06464344482421874	2.605438232421875	-3.849029541015625	-0.732421875	9.783905084228515	0.1879448303222656	0.20231004028320312	0.48828125	-4.917144775390625	-3.276824951171875	9.973047015380859	0.42497079467773435	-0.14006079711914063	2.63214111328125	-4.795074462890625	-1.74713134765625	
23	0.092	0.0	0.0	0.0	0.0	4.509	4.557	4.566	4.488	9.858125335693359	0.14604630126953125	0.0652419952392578	2.5177001953125	-3.509521484375	-0.9613037109375	9.778518130493163	0.18854338073730467	0.1945288848876953	0.827789306640625	-5.2032470703125	-3.269195556640625	9.975441217041014	0.42317514343261714	-0.14425065002441406	2.8533935546875	-4.63104248046875	-1.96075439453125	
24	0.096	0.0	0.0	0.0	0.0	4.503	4.569	4.569	4.494	9.855731134033203	0.14963760375976562	0.06404489440917968	2.3956298828125	-3.719329833984375	-0.759124755859375	9.781510882568359	0.20470424194335937	0.19632453613281248	0.461578369140625	-4.852294921875	-3.116607666015625	9.980229620361328	0.421978042602539	-0.1484405029296875	2.620697021484375	-5.0201416015625	-1.873016357421875	
25	0.1	0.0	0.0	0.0	0.0	4.5	4.566	4.566	4.497	9.85692823486328	0.15083470458984374	0.07062894897460938	2.46429443359375	-3.60870361328125	-0.614166259765625	9.785102185058593	0.18614917907714842	0.18435352783203124	1.0223388671875	-5.0048828125	-3.41033935546875	9.986215124511718	0.41898529052734373	-0.15203180541992187	2.674102783203125	-4.558563232421875	-1.758575439453125	
26	0.10400000000000001	0.0	0.0	0.0	0.0	4.488	4.566	4.557	4.506	9.853935482788085	0.15083470458984374	0.05985504150390625	2.353668212890625	-3.72314453125	-0.823974609375	9.785102185058593	0.1927332336425781	0.181959326171875	0.61798095703125	-4.913330078125	-3.2196044921875	9.986813674926758	0.4213794921875	-0.16340426330566404	2.582550048828125	-4.57000732421875	-1.903533935546875	
27	0.108	0.0	0.0	0.0	0.0	4.506	4.569	4.569	4.4670000000000005	9.85692823486328	0.16041151123046873	0.05386953735351562	2.368927001953125	-3.833770751953125	-0.8697509765625	9.776722479248047	0.20171148986816406	0.18076222534179687	0.90789794921875	-4.932403564453125	-3.208160400390625	9.992799179077148	0.4273649963378906	-0.17238251953125	2.72369384765625	-4.69207763671875	-1.89971923828125	
28	0.112	0.0	0.0	0.0	0.0	4.509	4.566	4.566	4.455	9.86291373901367	0.1580173095703125	0.047884033203124995	2.735137939453125	-3.696441650390625	-0.797271728515625	9.785102185058593	0.20171148986816406	0.17178396911621094	0.823974609375	-5.054473876953125	-3.154754638671875	9.989207876586914	0.43514615173339843	-0.1879448303222656	2.63214111328125	-4.79888916015625	-1.59454345703125	
29	0.116	0.0	0.0	0.0	0.0	4.509	4.563	4.566	4.485	9.861716638183593	0.15562310791015624	0.04608838195800781	2.384185791015625	-3.60870361328125	-0.57220458984375	9.787496386718749	0.19931728820800781	0.15322890625	0.7171630859375	-4.856109619140625	-3.2958984375	9.986813674926758	0.4291606475830078	-0.19871873779296872	2.750396728515625	-4.596710205078125	-1.697540283203125	
30	0.12	0.0	0.0	0.0	0.0	4.503	4.569	4.569	4.491	9.849147079467773	0.1562216583251953	0.028730419921875	2.422332763671875	-3.86810302734375	-0.74005126953125	9.78031378173828	0.21009119567871093	0.15023615417480468	0.67901611328125	-4.94384765625	-3.2806396484375	9.97903251953125	0.44053310546874996	-0.21068974609375	2.758026123046875	-4.852294921875	-1.712799072265625	
31	0.124	0.0	0.0	0.0	0.0	4.509	4.566	4.566	4.497	9.850344180297851	0.16998831787109375	0.03591302490234375	2.552032470703125	-3.910064697265625	-0.988006591796875	9.787496386718749	0.2088940948486328	0.14784195251464843	0.576019287109375	-5.035400390625	-3.21197509765625	9.975441217041014	0.4417302062988281	-0.21906945190429686	2.6702880859375	-4.5928955078125	-1.720428466796875	
32	0.128	0.0	0.0	0.0	0.0	4.491	4.566	4.563	4.506	9.859920986938477	0.1640028137207031	0.03651157531738281	2.34222412109375	-3.818511962890625	-0.78582763671875	9.782707983398437	0.20949264526367187	0.1352723937988281	0.60272216796875	-5.031585693359375	-3.16619873046875	9.974244116210937	0.4477157104492187	-0.2166752502441406	2.96783447265625	-4.79888916015625	-1.88446044921875	
33	0.132	0.0	0.0	0.0	0.0	4.506	4.566	4.569	4.482	9.854534033203125	0.15741875915527342	0.04548983154296875	2.483367919921875	-3.932952880859375	-0.789642333984375	9.78689783630371	0.20350714111328125	0.14903905334472656	0.8087158203125	-5.168914794921875	-3.421783447265625	9.976638317871092	0.45070846252441404	-0.2154781494140625	2.597808837890625	-4.627227783203125	-1.6632080078125	
34	0.136	0.0	0.0	0.0	0.0	4.506	4.569	4.569	4.461	9.86291373901367	0.16220716247558592	0.03172317199707031	2.315521240234375	-3.887176513671875	-0.81634521484375	9.78629928588867	0.19572598571777342	0.15263035583496093	0.67138671875	-4.886627197265625	-3.574371337890625	9.987412225341796	0.4321533996582031	-0.21128829650878905	2.38800048828125	-4.60052490234375	-1.861572265625	
35	0.14	0.0	0.0	0.0	0.0	4.5120000000000005	4.566	4.566	4.464	9.8449572265625	0.1484405029296875	0.0430956298828125	2.185821533203125	-3.8604736328125	-0.751495361328125	9.78031378173828	0.19512743530273435	0.15741875915527342	0.4730224609375	-5.22613525390625	-3.39508056640625	9.983820922851562	0.43035774841308594	-0.21906945190429686	2.72369384765625	-4.756927490234375	-1.819610595703125	
36	0.14400000000000002	0.0	0.0	0.0	0.0	4.506	4.557	4.566	4.491	9.85692823486328	0.14963760375976562	0.0383072265625	2.54058837890625	-3.787994384765625	-0.675201416015625	9.78031378173828	0.19512743530273435	0.16160861206054686	0.637054443359375	-4.810333251953125	-3.131866455078125	9.983222372436522	0.4213794921875	-0.19512743530273435	2.52532958984375	-4.63104248046875	-1.77001953125	
37	0.148	0.0	0.0	0.0	0.0	4.503	4.569	4.569	4.497	9.854534033203125	0.14185644836425781	0.05386953735351562	2.429962158203125	-3.86810302734375	-0.72479248046875	9.78629928588867	0.18136077575683593	0.1657984649658203	0.782012939453125	-5.096435546875	-3.1585693359375	9.97783541870117	0.4225765930175781	-0.18435352783203124	2.66265869140625	-4.7607421875	-1.99127197265625	
38	0.152	0.0	0.0	0.0	0.0	4.497	4.566	4.569	4.5	9.861716638183593	0.13467384338378904	0.04129997863769531	2.41851806640625	-3.826141357421875	-0.72479248046875	9.784503634643555	0.18255787658691405	0.1657984649658203	0.576019287109375	-5.2032470703125	-3.002166748046875	9.986215124511718	0.411802685546875	-0.17357962036132812	2.6397705078125	-4.665374755859375	-1.674652099609375	
39	0.156	0.0	0.0	0.0	0.0	4.488	4.566	4.557	4.509	9.861716638183593	0.12808978881835936	0.047884033203124995	2.4566650390625	-3.83758544921875	-0.885009765625	9.783905084228515	0.1771709228515625	0.17298106994628906	0.843048095703125	-4.8828125	-3.18145751953125	9.987412225341796	0.40880993347167965	-0.16160861206054686	2.658843994140625	-4.726409912109375	-1.861572265625	
40	0.16	0.0	0.0	0.0	0.0	4.509	4.569	4.569	4.47	9.862315188598632	0.12808978881835936	0.05327098693847656	2.44140625	-3.665924072265625	-0.8544921875	9.78689783630371	0.17357962036132812	0.1753752716064453	0.79345703125	-4.978179931640625	-3.0670166015625	9.973645565795898	0.40581718139648437	-0.15981296081542967	2.64739990234375	-4.711151123046875	-1.651763916015625	
41	0.164	0.0	0.0	0.0	0.0	4.509	4.566	4.569	4.458	9.861716638183593	0.12569558715820311	0.0652419952392578	2.559661865234375	-4.138946533203125	-0.9613037109375	9.781510882568359	0.16998831787109375	0.17956512451171874	0.732421875	-4.8065185546875	-3.246307373046875	9.962273107910155	0.40462008056640625	-0.14784195251464843	2.811431884765625	-4.85992431640625	-1.64794921875	
42	0.168	0.0	0.0	0.0	0.0	4.506	4.563	4.566	4.485	9.854534033203125	0.12389993591308593	0.04608838195800781	2.346038818359375	-3.505706787109375	-0.713348388671875	9.783905084228515	0.16879121704101563	0.19213468322753904	0.78582763671875	-5.02777099609375	-3.13568115234375	9.979631069946288	0.3956418243408203	-0.17238251953125	2.628326416015625	-4.57763671875	-1.529693603515625	
43	0.17200000000000001	0.0	0.0	0.0	0.0	4.509	4.572	4.566	4.497	9.855132583618163	0.12988544006347655	0.05027823486328125	2.597808837890625	-3.4332275390625	-0.736236572265625	9.787496386718749	0.16759411621093748	0.1849520782470703	0.461578369140625	-4.695892333984375	-3.0059814453125	9.979631069946288	0.4064157318115234	-0.16998831787109375	2.773284912109375	-4.69207763671875	-1.834869384765625	
44	0.176	0.0	0.0	0.0	0.0	4.509	4.572	4.569	4.497	9.85094273071289	0.13646949462890623	0.03591302490234375	2.628326416015625	-3.787994384765625	-0.797271728515625	9.777919580078125	0.1801636749267578	0.16879121704101563	0.5645751953125	-4.993438720703125	-3.082275390625	9.969455712890625	0.41419688720703124	-0.17238251953125	2.89154052734375	-4.669189453125	-1.89208984375	
45	0.18	0.0	0.0	0.0	0.0	4.491	4.566	4.566	4.509	9.854534033203125	0.15203180541992187	0.037708676147460936	2.483367919921875	-3.80706787109375	-0.965118408203125	9.782707983398437	0.19871873779296872	0.15502455749511718	0.5645751953125	-5.035400390625	-3.24249267578125	9.974842666625976	0.4261678955078125	-0.1927332336425781	2.5482177734375	-4.669189453125	-1.964569091796875	
46	0.184	0.0	0.0	0.0	0.0	4.509	4.566	4.569	4.479	9.86411083984375	0.1610100616455078	0.05087678527832031	2.704620361328125	-3.6163330078125	-0.80108642578125	9.782707983398437	0.20769699401855468	0.16340426330566404	0.90789794921875	-5.016326904296875	-3.45611572265625	9.974244116210937	0.44592005920410155	-0.1975216369628906	2.75421142578125	-4.573822021484375	-1.819610595703125	
47	0.188	0.0	0.0	0.0	0.0	4.509	4.569	4.572	4.461	9.888052856445311	0.16639701538085935	0.061650692749023434	2.689361572265625	-3.871917724609375	-0.75531005859375	9.801861596679688	0.19393033447265623	0.16998831787109375	0.7171630859375	-5.062103271484375	-3.139495849609375	9.988609326171874	0.44412440795898434	-0.22385785522460935	2.61688232421875	-4.52423095703125	-1.621246337890625	
48	0.192	0.0	0.0	0.0	0.0	4.515	4.566	4.566	4.4670000000000005	9.872490545654296	0.15502455749511718	0.07003039855957031	2.38800048828125	-3.421783447265625	-0.644683837890625	9.79348189086914	0.19871873779296872	0.17477672119140625	0.57220458984375	-4.974365234375	-3.170013427734375	9.9981861328125	0.42796354675292964	-0.1657984649658203	2.666473388671875	-4.779815673828125	-1.758575439453125	
49	0.196	0.0	0.0	0.0	0.0	4.506	4.557	4.566	4.491	9.862315188598632	0.11013327636718749	0.061650692749023434	2.40325927734375	-3.88336181640625	-0.84686279296875	9.801263046264648	0.15502455749511718	0.15203180541992187	0.537872314453125	-4.955291748046875	-3.21197509765625	10.012551342773437	0.3920505218505859	-0.1927332336425781	2.452850341796875	-4.627227783203125	-1.705169677734375	
50	0.2	0.0	0.0	0.0	0.0	4.503	4.569	4.572	4.497	9.851541281127929	0.09935936889648436	0.055066638183593745	2.353668212890625	-3.60107421875	-0.885009765625	9.779715231323241	0.16041151123046873	0.17956512451171874	0.51116943359375	-4.89044189453125	-3.208160400390625	9.97903251953125	0.3687070556640625	-0.18555062866210936	2.521514892578125	-4.70733642578125	-1.743316650390625	
51	0.20400000000000001	0.0	0.0	0.0	0.0	4.497	4.566	4.569	4.503	9.81862100830078	0.13646949462890623	0.05746083984375	2.38800048828125	-3.749847412109375	-0.8544921875	9.744999307250977	0.20051438903808594	0.19512743530273435	0.58746337890625	-4.98199462890625	-3.387451171875	9.937732540893554	0.4339490509033203	-0.16879121704101563	2.544403076171875	-4.8370361328125	-1.73187255859375	
52	0.20800000000000002	0.0	0.0	0.0	0.0	4.503	4.566	4.557	4.509	9.84555577697754	0.11671733093261719	0.033518823242187495	2.37274169921875	-3.734588623046875	-0.7476806640625	9.765948571777344	0.17477672119140625	0.16759411621093748	0.545501708984375	-4.955291748046875	-3.093719482421875	9.955689053344726	0.4034229797363281	-0.18076222534179687	2.60162353515625	-4.657745361328125	-1.728057861328125	
53	0.212	0.0	0.0	0.0	0.0	4.509	4.569	4.569	4.47	9.86291373901367	0.10295067138671875	0.03232172241210937	2.349853515625	-3.66973876953125	-0.79345703125	9.78629928588867	0.13946224670410157	0.1610100616455078	0.392913818359375	-4.848480224609375	-3.177642822265625	9.995791931152343	0.3651157531738281	-0.18315642700195311	2.719879150390625	-4.5623779296875	-1.73187255859375	
54	0.216	0.0	0.0	0.0	0.0	4.5120000000000005	4.569	4.569	4.458	9.853935482788085	0.13766659545898435	0.06045359191894531	2.78472900390625	-3.932952880859375	-0.75531005859375	9.775525378417969	0.19812018737792966	0.18734627990722655	0.453948974609375	-5.008697509765625	-3.10516357421875	9.982623822021484	0.42497079467773435	-0.1484405029296875	2.681732177734375	-4.673004150390625	-1.773834228515625	
55	0.22	0.0	0.0	0.0	0.0	4.509	4.563	4.569	4.488	9.862315188598632	0.14724340209960937	0.06943184814453125	2.38037109375	-3.688812255859375	-0.732421875	9.783905084228515	0.1927332336425781	0.18435352783203124	0.70953369140625	-4.993438720703125	-3.19671630859375	9.979631069946288	0.4381389038085937	-0.16519991455078123	2.643585205078125	-4.528045654296875	-1.857757568359375	
56	0.224	0.0	0.0	0.0	0.0	4.503	4.572	4.572	4.494	9.87727894897461	0.1592144104003906	0.029927520751953124	2.742767333984375	-3.871917724609375	-0.83160400390625	9.79946739501953	0.18255787658691405	0.14963760375976562	0.789642333984375	-5.023956298828125	-3.208160400390625	9.993996279907225	0.412401235961914	-0.2154781494140625	2.716064453125	-4.66156005859375	-1.796722412109375	
57	0.228	0.0	0.0	0.0	0.0	4.506	4.569	4.566	4.497	9.85094273071289	0.20290859069824219	0.054468087768554684	2.5787353515625	-3.77655029296875	-0.74005126953125	9.781510882568359	0.24121581726074218	0.16699556579589842	0.80108642578125	-5.466461181640625	-3.34930419921875	9.964667309570311	0.47285482788085936	-0.19033903198242186	2.716064453125	-4.840850830078125	-1.590728759765625	
58	0.232	0.0	0.0	0.0	0.0	4.485	4.566	4.563	4.509	9.85752678527832	0.20530279235839843	0.044891281127929686	2.49481201171875	-3.726959228515625	-0.698089599609375	9.779715231323241	0.25258827514648435	0.1640028137207031	0.659942626953125	-5.126953125	-3.238677978515625	9.955689053344726	0.5009866973876953	-0.18255787658691405	2.750396728515625	-4.825592041015625	-1.6937255859375	
59	0.23600000000000002	0.0	0.0	0.0	0.0	4.509	4.566	4.572	4.479	9.874884747314452	0.16759411621093748	0.02154781494140625	2.635955810546875	-3.6163330078125	-0.9613037109375	9.792284790039062	0.20649989318847656	0.15442600708007811	0.93841552734375	-4.871368408203125	-3.31878662109375	10.000580334472655	0.4369418029785156	-0.19093758239746092	2.635955810546875	-4.802703857421875	-1.70135498046875	
60	0.24	0.0	0.0	0.0	0.0	4.506	4.569	4.569	4.461	9.853935482788085	0.17238251953125	0.022744915771484374	2.513885498046875	-3.696441650390625	-0.804901123046875	9.792284790039062	0.21787235107421873	0.16879121704101563	0.69427490234375	-4.924774169921875	-3.330230712890625	9.993397729492187	0.44592005920410155	-0.17956512451171874	2.62451171875	-4.726409912109375	-1.682281494140625	
61	0.244	0.0	0.0	0.0	0.0	4.5120000000000005	4.569	4.569	4.4670000000000005	9.85692823486328	0.1975216369628906	0.04668693237304687	2.64739990234375	-3.76129150390625	-0.81634521484375	9.785102185058593	0.2472013214111328	0.17178396911621094	0.698089599609375	-5.10406494140625	-3.292083740234375	9.95987890625	0.48243163452148435	-0.17836802368164062	2.696990966796875	-4.680633544921875	-2.017974853515625	
62	0.248	0.0	0.0	0.0	0.0	4.509	4.554	4.566	4.494	9.840767373657226	0.1927332336425781	0.037110125732421874	2.410888671875	-3.5247802734375	-0.732421875	9.78031378173828	0.2501940734863281	0.1580173095703125	0.80108642578125	-4.98199462890625	-3.002166748046875	9.968857162475585	0.47764323120117186	-0.20530279235839843	2.74658203125	-4.749298095703125	-1.76239013671875	
63	0.252	0.0	0.0	0.0	0.0	4.503	4.569	4.572	4.5	9.837176071166992	0.1849520782470703	0.022744915771484374	2.57110595703125	-3.688812255859375	-0.9613037109375	9.779715231323241	0.23582886352539062	0.1352723937988281	0.640869140625	-4.993438720703125	-3.269195556640625	9.964667309570311	0.4644751220703125	-0.20769699401855468	2.777099609375	-4.69970703125	-1.96075439453125	
64	0.256	0.0	0.0	0.0	0.0	4.494	4.566	4.569	4.503	9.853336932373047	0.21966800231933592	0.025737667846679687	2.689361572265625	-3.875732421875	-0.789642333984375	9.787496386718749	0.25258827514648435	0.13946224670410157	0.63323974609375	-4.985809326171875	-3.200531005859375	9.984419473266602	0.489015689086914	-0.23104046020507812	2.5787353515625	-4.364013671875	-1.811981201171875	
65	0.26	0.0	0.0	0.0	0.0	4.503	4.566	4.557	4.5	9.853336932373047	0.23523031311035156	0.062249243164062495	2.685546875	-3.8909912109375	-0.87738037109375	9.785102185058593	0.27353753967285155	0.16160861206054686	0.48828125	-5.06591796875	-2.99835205078125	9.974244116210937	0.5153519073486328	-0.2328361114501953	2.689361572265625	-4.7760009765625	-1.483917236328125	
66	0.264	0.0	0.0	0.0	0.0	4.509	4.572	4.572	4.473	9.859322436523437	0.20829554443359374	0.04668693237304687	2.567291259765625	-3.936767578125	-0.873565673828125	9.78629928588867	0.24959552307128904	0.15023615417480468	0.2899169921875	-4.947662353515625	-2.925872802734375	9.979631069946288	0.4950011932373047	-0.21428104858398436	2.66265869140625	-4.711151123046875	-1.64031982421875	
67	0.268	0.0	0.0	0.0	0.0	4.5120000000000005	4.566	4.569	4.458	9.879074600219726	0.19931728820800781	0.061650692749023434	2.3345947265625	-3.66973876953125	-0.67138671875	9.803058697509766	0.229843359375	0.15502455749511718	0.37384033203125	-5.123138427734375	-3.292083740234375	10.00417163696289	0.4483142608642578	-0.2280477081298828	2.7618408203125	-4.810333251953125	-1.89971923828125	
68	0.272	0.0	0.0	0.0	0.0	4.515	4.563	4.569	4.491	9.86291373901367	0.20470424194335937	0.07601590270996093	2.574920654296875	-3.772735595703125	-0.698089599609375	9.77432827758789	0.2561795776367187	0.17836802368164062	0.14495849609375	-5.0048828125	-3.13568115234375	9.97184991455078	0.4848258361816406	-0.18375497741699218	2.74658203125	-4.44793701171875	-1.674652099609375	
69	0.276	0.0	0.0	0.0	0.0	4.503	4.569	4.569	4.497	9.8449572265625	0.17477672119140625	0.08259995727539061	2.44140625	-3.665924072265625	-0.69427490234375	9.775525378417969	0.2292448089599609	0.19692308654785154	0.469207763671875	-4.909515380859375	-3.22723388671875	9.961076007080077	0.47285482788085936	-0.17238251953125	2.6702880859375	-4.558563232421875	-1.735687255859375	
70	0.28	0.0	0.0	0.0	0.0	4.503	4.569	4.569	4.494	9.871891995239258	0.11911153259277343	0.07062894897460938	2.29644775390625	-3.59344482421875	-0.621795654296875	9.794678991699218	0.17058686828613281	0.20171148986816406	0.408172607421875	-5.313873291015625	-3.1280517578125	9.993996279907225	0.3968389251708984	-0.1580173095703125	2.666473388671875	-4.70733642578125	-1.99127197265625	
71	0.28400000000000003	0.0	0.0	0.0	0.0	4.491	4.566	4.563	4.509	9.85094273071289	0.10714052429199218	0.08259995727539061	2.475738525390625	-3.72314453125	-0.629425048828125	9.771934075927733	0.16041151123046873	0.2214636535644531	0.606536865234375	-4.848480224609375	-3.360748291015625	9.97783541870117	0.39863457641601563	-0.12509703674316405	2.475738525390625	-4.528045654296875	-1.4801025390625	
72	0.28800000000000003	0.0	0.0	0.0	0.0	4.509	4.566	4.572	4.479	9.847949978637695	0.10893617553710937	0.11192892761230468	2.712249755859375	-3.84521484375	-0.90789794921875	9.764152920532226	0.14903905334472656	0.24660277099609373	0.57220458984375	-5.008697509765625	-3.24249267578125	9.974244116210937	0.39863457641601563	-0.09636661682128905	2.60162353515625	-4.688262939453125	-1.873016357421875	
73	0.292	0.0	0.0	0.0	0.0	4.506	4.569	4.569	4.458	9.86411083984375	0.06584054565429687	0.08499415893554688	2.69317626953125	-4.0283203125	-0.8392333984375	9.788693487548828	0.11013327636718749	0.21428104858398436	0.438690185546875	-4.917144775390625	-3.078460693359375	9.98561657409668	0.3429693878173828	-0.11552023010253906	2.73895263671875	-4.5623779296875	-1.6937255859375	
74	0.296	0.0	0.0	0.0	0.0	4.515	4.569	4.569	4.473	9.871293444824218	0.07422025146484375	0.076614453125	2.498626708984375	-3.91387939453125	-0.858306884765625	9.785102185058593	0.10594342346191406	0.23523031311035156	0.63323974609375	-4.878997802734375	-3.162384033203125	9.98501802368164	0.3381809844970703	-0.10773907470703124	2.79998779296875	-4.5318603515625	-1.71661376953125	
75	0.3	0.0	0.0	0.0	0.0	4.5120000000000005	4.557	4.569	4.488	9.849745629882811	0.08978256225585937	0.10115502014160156	2.70843505859375	-3.753662109375	-0.89263916015625	9.770736975097655	0.11731588134765625	0.22565350646972654	0.553131103515625	-5.077362060546875	-3.1280517578125	9.967061511230469	0.36092590026855464	-0.09995791931152344	2.61688232421875	-4.50897216796875	-1.560211181640625	
76	0.304	0.0	0.0	0.0	0.0	4.509	4.566	4.569	4.503	9.859322436523437	0.07242460021972656	0.09217676391601562	2.4261474609375	-3.47137451171875	-0.60272216796875	9.791087689208984	0.11013327636718749	0.21128829650878905	0.67138671875	-4.92095947265625	-3.25775146484375	9.981426721191406	0.3525461944580078	-0.12569558715820311	2.8228759765625	-4.817962646484375	-1.651763916015625	
77	0.308	0.0	0.0	0.0	0.0	4.497	4.566	4.569	4.503	9.868899243164062	0.062249243164062495	0.08798691101074219	2.73895263671875	-3.8909912109375	-0.835418701171875	9.794678991699218	0.11372457885742186	0.20350714111328125	0.6103515625	-5.489349365234375	-3.299713134765625	9.989207876586914	0.33099837951660155	-0.13826514587402344	2.6397705078125	-4.665374755859375	-1.789093017578125	
78	0.312	0.0	0.0	0.0	0.0	4.503	4.566	4.557	4.494	9.865307940673828	0.07721300354003906	0.08200140686035155	2.47955322265625	-3.780364990234375	-0.885009765625	9.788693487548828	0.12868833923339842	0.20649989318847656	0.782012939453125	-5.130767822265625	-3.13568115234375	9.97903251953125	0.364517202758789	-0.17178396911621094	2.895355224609375	-4.558563232421875	-1.8157958984375	
79	0.316	0.0	0.0	0.0	0.0	4.506	4.569	4.572	4.4670000000000005	9.872490545654296	0.0987608184814453	0.0909796630859375	2.567291259765625	-3.73077392578125	-0.6866455078125	9.788094937133788	0.14425065002441406	0.19393033447265623	0.835418701171875	-5.22613525390625	-3.204345703125	9.977236868286132	0.38845921936035155	-0.17238251953125	2.582550048828125	-4.57000732421875	-1.735687255859375	
80	0.32	0.0	0.0	0.0	0.0	4.5120000000000005	4.569	4.569	4.458	9.854534033203125	0.08678981018066406	0.08020575561523437	2.437591552734375	-3.7841796875	-0.698089599609375	9.791087689208984	0.1304839904785156	0.1801636749267578	0.86212158203125	-5.0506591796875	-3.086090087890625	9.987412225341796	0.3651157531738281	-0.18136077575683593	2.613067626953125	-4.665374755859375	-1.743316650390625	
81	0.324	0.0	0.0	0.0	0.0	4.509	4.563	4.566	4.488	9.85692823486328	0.08319850769042968	0.07122749938964844	2.35748291015625	-3.673553466796875	-0.86212158203125	9.789890588378906	0.12569558715820311	0.181959326171875	0.576019287109375	-5.367279052734375	-3.337860107421875	9.984419473266602	0.3585316986083984	-0.19991583862304688	2.5634765625	-4.581451416015625	-1.79290771484375	
82	0.328	0.0	0.0	0.0	0.0	4.506	4.569	4.572	4.497	9.847949978637695	0.10474632263183593	0.086191259765625	2.605438232421875	-3.68499755859375	-0.812530517578125	9.783905084228515	0.15562310791015624	0.18136077575683593	0.5035400390625	-5.096435546875	-2.9296875	9.968258612060547	0.3908534210205078	-0.19213468322753904	2.60162353515625	-4.791259765625	-1.720428466796875	
83	0.332	0.0	0.0	0.0	0.0	4.506	4.569	4.569	4.497	9.846752877807617	0.10175357055664062	0.0652419952392578	2.34222412109375	-3.589630126953125	-0.713348388671875	9.788094937133788	0.14784195251464843	0.16460136413574217	0.530242919921875	-4.99725341796875	-3.414154052734375	9.97843396911621	0.3812766143798828	-0.19991583862304688	2.532958984375	-4.66156005859375	-1.888275146484375	
84	0.336	0.0	0.0	0.0	0.0	4.491	4.569	4.563	4.509	9.854534033203125	0.09038111267089843	0.04668693237304687	2.1820068359375	-3.704071044921875	-0.759124755859375	9.7928833404541	0.13168109130859373	0.1562216583251953	0.48828125	-4.947662353515625	-3.23486328125	9.987412225341796	0.3746925598144531	-0.21248539733886718	2.666473388671875	-4.8370361328125	-1.617431640625	
85	0.34	0.0	0.0	0.0	0.0	4.509	4.566	4.572	4.479	9.852139831542969	0.11073182678222655	0.05686228942871093	2.37274169921875	-3.8909912109375	-0.919342041015625	9.785700735473633	0.15861585998535155	0.1640028137207031	0.701904296875	-5.077362060546875	-3.238677978515625	9.973047015380859	0.3890577697753906	-0.1945288848876953	2.66265869140625	-4.8675537109375	-1.926422119140625	
86	0.34400000000000003	0.0	0.0	0.0	0.0	4.509	4.572	4.569	4.458	9.849745629882811	0.12330138549804687	0.05686228942871093	2.4871826171875	-3.864288330078125	-0.80108642578125	9.785102185058593	0.16280571289062498	0.17417817077636719	0.6256103515625	-5.0201416015625	-3.330230712890625	9.97843396911621	0.4052186309814453	-0.16819266662597654	2.437591552734375	-4.695892333984375	-1.89208984375	
87	0.34800000000000003	0.0	0.0	0.0	0.0	4.515	4.569	4.569	4.473	9.861118087768554	0.11851298217773437	0.040701428222656245	2.410888671875	-3.54766845703125	-0.705718994140625	9.78629928588867	0.15682020874023436	0.15981296081542967	0.40435791015625	-4.795074462890625	-3.246307373046875	9.984419473266602	0.3962403747558593	-0.17417817077636719	2.704620361328125	-4.863739013671875	-1.88446044921875	
88	0.352	0.0	0.0	0.0	0.0	4.509	4.557	4.569	4.491	9.855731134033203	0.14903905334472656	0.037110125732421874	2.399444580078125	-3.765106201171875	-0.766754150390625	9.779116680908203	0.18375497741699218	0.1801636749267578	0.46539306640625	-5.05828857421875	-3.162384033203125	9.977236868286132	0.4129997863769531	-0.1693897674560547	2.655029296875	-4.73785400390625	-1.8310546875	
89	0.356	0.0	0.0	0.0	0.0	4.506	4.569	4.572	4.497	9.859322436523437	0.17238251953125	0.044292730712890624	2.40325927734375	-3.849029541015625	-0.766754150390625	9.781510882568359	0.21009119567871093	0.16819266662597654	0.537872314453125	-4.8980712890625	-3.10516357421875	9.963470208740233	0.4483142608642578	-0.1580173095703125	2.674102783203125	-4.840850830078125	-1.93023681640625	
90	0.36	0.0	0.0	0.0	0.0	4.494	4.563	4.569	4.503	9.86291373901367	0.17118541870117188	0.03411737365722656	2.34222412109375	-3.993988037109375	-0.843048095703125	9.78629928588867	0.21487959899902342	0.15981296081542967	0.5645751953125	-5.1116943359375	-3.23486328125	9.97783541870117	0.4483142608642578	-0.16759411621093748	2.651214599609375	-4.619598388671875	-1.804351806640625	
91	0.364	0.0	0.0	0.0	0.0	4.503	4.566	4.557	4.494	9.871293444824218	0.17178396911621094	0.02693476867675781	2.44140625	-3.79180908203125	-0.9307861328125	9.787496386718749	0.22086510314941404	0.15442600708007811	0.518798828125	-4.772186279296875	-3.19671630859375	9.980828170776366	0.45669396667480466	-0.17956512451171874	2.735137939453125	-4.589080810546875	-1.811981201171875	
92	0.368	0.0	0.0	0.0	0.0	4.506	4.569	4.572	4.4670000000000005	9.859322436523437	0.19572598571777342	0.027533319091796873	2.590179443359375	-3.490447998046875	-0.7781982421875	9.785102185058593	0.23882161560058593	0.1592144104003906	0.499725341796875	-4.985809326171875	-3.13568115234375	9.969455712890625	0.49739539489746093	-0.17477672119140625	2.376556396484375	-4.619598388671875	-1.708984375	
93	0.372	0.0	0.0	0.0	0.0	4.5120000000000005	4.569	4.569	4.458	9.850344180297851	0.2136824981689453	0.029328970336914062	2.407073974609375	-3.780364990234375	-0.896453857421875	9.77432827758789	0.2615665313720703	0.1610100616455078	0.701904296875	-5.138397216796875	-3.322601318359375	9.974244116210937	0.5069722015380859	-0.17896657409667968	2.635955810546875	-4.53948974609375	-1.796722412109375	
94	0.376	0.0	0.0	0.0	0.0	4.509	4.563	4.569	4.488	9.850344180297851	0.21308394775390624	0.017956512451171875	2.75421142578125	-3.612518310546875	-0.81634521484375	9.776722479248047	0.2699462371826172	0.13168109130859373	0.67901611328125	-4.8065185546875	-3.23486328125	9.976039767456054	0.49859249572753905	-0.19393033447265623	2.84576416015625	-4.6539306640625	-1.720428466796875	
95	0.38	0.0	0.0	0.0	0.0	4.506	4.572	4.572	4.497	9.858125335693359	0.22445640563964842	0.009576806640625	2.72369384765625	-3.82232666015625	-0.782012939453125	9.77432827758789	0.28311434631347654	0.12808978881835936	0.43487548828125	-4.98199462890625	-3.322601318359375	9.962871658325195	0.5111620544433594	-0.21787235107421873	2.780914306640625	-4.650115966796875	-1.6937255859375	
96	0.384	0.0	0.0	0.0	0.0	4.509	4.569	4.569	4.497	9.84555577697754	0.2651578338623047	0.022744915771484374	2.49481201171875	-3.620147705078125	-0.72479248046875	9.770736975097655	0.32082302246093747	0.13407529296874998	0.54931640625	-4.917144775390625	-3.192901611328125	9.955090502929687	0.5470750793457031	-0.23044190979003906	2.69317626953125	-4.5166015625	-1.9073486328125	
97	0.388	0.0	0.0	0.0	0.0	4.491	4.566	4.563	4.509	9.8449572265625	0.26874913635253905	0.023942016601562498	2.475738525390625	-3.925323486328125	-0.92315673828125	9.770138424682617	0.30885201416015623	0.13108254089355467	0.69427490234375	-4.7760009765625	-3.1280517578125	9.976638317871092	0.5518634826660156	-0.24061726684570311	2.74658203125	-4.673004150390625	-1.8310546875	
98	0.392	0.0	0.0	0.0	0.0	4.509	4.566	4.566	4.482	9.867702142333984	0.2555810272216797	0.016759411621093748	2.513885498046875	-3.57818603515625	-0.850677490234375	9.784503634643555	0.3010708587646484	0.12210428466796874	0.518798828125	-4.985809326171875	-3.269195556640625	9.999383233642577	0.5315127685546874	-0.2519897247314453	2.4871826171875	-4.425048828125	-1.743316650390625	
99	0.396	0.0	0.0	0.0	0.0	4.509	4.572	4.572	4.461	9.867103591918944	0.28431144714355466	0.04189852905273437	2.62451171875	-3.894805908203125	-0.919342041015625	9.787496386718749	0.3268085266113281	0.1197100830078125	0.522613525390625	-5.11932373046875	-3.16619873046875	9.983820922851562	0.5644330413818359	-0.2507926239013672	2.34222412109375	-4.550933837890625	-1.865386962890625	
100	0.4	0.0	0.0	0.0	0.0	4.5120000000000005	4.566	4.569	4.476	9.868300692749022	0.27832594299316404	0.037110125732421874	2.513885498046875	-3.841400146484375	-0.6103515625	9.78629928588867	0.3184288208007812	0.1292868896484375	0.43487548828125	-4.974365234375	-2.960205078125	9.975441217041014	0.5512649322509765	-0.23044190979003906	2.681732177734375	-4.70733642578125	-1.743316650390625	
101	0.404	0.0	0.0	0.0	0.0	4.509	4.554	4.569	4.488	9.862315188598632	0.24660277099609373	0.020949264526367185	2.475738525390625	-3.68499755859375	-0.659942626953125	9.790489138793944	0.2807201446533203	0.13347674255371092	0.5035400390625	-4.974365234375	-3.192901611328125	9.983820922851562	0.5159504577636719	-0.2316390106201172	2.620697021484375	-4.61578369140625	-1.678466796875	
102	0.40800000000000003	0.0	0.0	0.0	0.0	4.503	4.572	4.572	4.5	9.85692823486328	0.23403321228027343	0.023343466186523436	2.3345947265625	-3.818511962890625	-0.9002685546875	9.777919580078125	0.2771288421630859	0.15023615417480468	0.518798828125	-5.04302978515625	-3.070831298828125	9.964667309570311	0.5111620544433594	-0.23044190979003906	2.475738525390625	-4.589080810546875	-1.68609619140625	
103	0.41200000000000003	0.0	0.0	0.0	0.0	4.494	4.566	4.569	4.506	9.83178911743164	0.22445640563964842	0.03950432739257812	2.46429443359375	-3.917694091796875	-0.8392333984375	9.760561618041992	0.2693476867675781	0.18315642700195311	0.499725341796875	-4.955291748046875	-3.01361083984375	9.952097750854492	0.4991910461425781	-0.17357962036132812	2.658843994140625	-4.398345947265625	-1.73187255859375	
104	0.41600000000000004	0.0	0.0	0.0	0.0	4.506	4.566	4.557	4.494	9.842563024902343	0.17956512451171874	0.03651157531738281	2.35748291015625	-3.79180908203125	-0.732421875	9.778518130493163	0.23822306518554687	0.18136077575683593	0.698089599609375	-4.7760009765625	-3.192901611328125	9.962871658325195	0.4626794708251953	-0.17357962036132812	2.7313232421875	-4.528045654296875	-1.91497802734375	
105	0.42	0.0	0.0	0.0	0.0	4.506	4.566	4.572	4.4670000000000005	9.852139831542969	0.16041151123046873	0.03950432739257812	2.361297607421875	-3.902435302734375	-0.972747802734375	9.783306533813477	0.2041056915283203	0.17597382202148437	0.6103515625	-5.176544189453125	-3.23486328125	9.99160207824707	0.4435258575439453	-0.17298106994628906	2.60162353515625	-4.711151123046875	-1.8157958984375	
106	0.424	0.0	0.0	0.0	0.0	4.515	4.569	4.569	4.458	9.853935482788085	0.14963760375976562	0.055066638183593745	2.4871826171875	-3.742218017578125	-0.81634521484375	9.783905084228515	0.19632453613281248	0.18734627990722655	0.469207763671875	-5.062103271484375	-3.047943115234375	9.97125136413574	0.43993455505371093	-0.14245499877929688	2.66265869140625	-4.57000732421875	-1.97601318359375	
107	0.428	0.0	0.0	0.0	0.0	4.506	4.563	4.569	4.488	9.854534033203125	0.13407529296874998	0.061650692749023434	2.628326416015625	-3.73077392578125	-0.9765625	9.784503634643555	0.1753752716064453	0.201112939453125	0.4730224609375	-4.718780517578125	-3.200531005859375	9.97783541870117	0.41898529052734373	-0.13646949462890623	2.73895263671875	-4.60052490234375	-1.85394287109375	
108	0.432	0.0	0.0	0.0	0.0	4.509	4.572	4.572	4.497	9.867103591918944	0.10594342346191406	0.06464344482421874	2.452850341796875	-3.864288330078125	-0.8544921875	9.790489138793944	0.14484920043945312	0.19333178405761717	0.545501708984375	-4.98199462890625	-3.265380859375	9.99220062866211	0.38247371520996093	-0.14784195251464843	2.73895263671875	-4.756927490234375	-1.682281494140625	
109	0.436	0.0	0.0	0.0	0.0	4.506	4.569	4.569	4.5	9.862315188598632	0.09756371765136718	0.07362170104980469	2.47955322265625	-3.33404541015625	-0.91552734375	9.783306533813477	0.13646949462890623	0.19153613281249998	0.61798095703125	-4.817962646484375	-3.204345703125	9.97783541870117	0.3699041564941406	-0.1406593475341797	2.750396728515625	-4.756927490234375	-1.728057861328125	
110	0.44	0.0	0.0	0.0	0.0	4.488	4.569	4.563	4.506	9.85692823486328	0.0909796630859375	0.06763619689941405	2.674102783203125	-3.92913818359375	-0.881195068359375	9.771934075927733	0.13467384338378904	0.19333178405761717	0.8087158203125	-4.70733642578125	-3.02886962890625	9.980828170776366	0.36631285400390623	-0.13946224670410157	2.4871826171875	-4.543304443359375	-1.583099365234375	
111	0.444	0.0	0.0	0.0	0.0	4.506	4.569	4.572	4.479	9.853935482788085	0.07422025146484375	0.06823474731445311	2.414703369140625	-3.772735595703125	-0.78582763671875	9.782707983398437	0.11552023010253906	0.19093758239746092	0.60272216796875	-4.840850830078125	-3.18145751953125	9.983820922851562	0.3429693878173828	-0.16879121704101563	2.849578857421875	-4.505157470703125	-1.59454345703125	
112	0.448	0.0	0.0	0.0	0.0	4.509	4.569	4.572	4.458	9.862315188598632	0.04189852905273437	0.062249243164062495	2.567291259765625	-3.856658935546875	-0.6561279296875	9.783905084228515	0.08319850769042968	0.18136077575683593	0.820159912109375	-4.7760009765625	-3.170013427734375	9.988609326171874	0.32441432495117184	-0.17956512451171874	2.941131591796875	-4.67681884765625	-1.712799072265625	
113	0.452	0.0	0.0	0.0	0.0	4.5120000000000005	4.569	4.569	4.476	9.848548529052733	0.040701428222656245	0.07900865478515624	2.7923583984375	-3.780364990234375	-0.850677490234375	9.779715231323241	0.09217676391601562	0.18315642700195311	0.70953369140625	-5.146026611328125	-3.200531005859375	9.991003527832031	0.30346506042480464	-0.17357962036132812	2.70843505859375	-4.84466552734375	-1.804351806640625	
114	0.456	0.0	0.0	0.0	0.0	4.509	4.554	4.569	4.494	9.841365924072266	0.033518823242187495	0.06105214233398437	2.35748291015625	-3.88336181640625	-0.827789306640625	9.782109432983399	0.08319850769042968	0.16160861206054686	0.682830810546875	-5.084991455078125	-3.2958984375	9.98561657409668	0.31543606872558594	-0.18555062866210936	2.685546875	-4.627227783203125	-1.728057861328125	
115	0.46	0.0	0.0	0.0	0.0	4.506	4.572	4.572	4.497	9.85632968444824	0.022744915771484374	0.05087678527832031	2.620697021484375	-3.74603271484375	-0.823974609375	9.785700735473633	0.06584054565429687	0.14484920043945312	0.8544921875	-4.9285888671875	-3.093719482421875	9.99220062866211	0.3022679595947265	-0.20231004028320312	2.52532958984375	-4.5623779296875	-1.796722412109375	
116	0.464	0.0	0.0	0.0	0.0	4.491	4.566	4.569	4.506	9.852738381958007	0.028730419921875	0.061650692749023434	2.532958984375	-3.753662109375	-0.7781982421875	9.789890588378906	0.08259995727539061	0.1640028137207031	0.690460205078125	-5.04302978515625	-3.330230712890625	9.984419473266602	0.3064578125	-0.2059013427734375	2.727508544921875	-4.642486572265625	-1.682281494140625	
117	0.468	0.0	0.0	0.0	0.0	4.506	4.569	4.557	4.488	9.846154327392577	0.03651157531738281	0.06284779357910156	2.391815185546875	-3.757476806640625	-0.7171630859375	9.790489138793944	0.08439560852050781	0.1693897674560547	0.667572021484375	-4.96673583984375	-3.154754638671875	9.97903251953125	0.3232172241210937	-0.18914193115234373	2.6397705078125	-4.53948974609375	-1.689910888671875	
118	0.47200000000000003	0.0	0.0	0.0	0.0	4.509	4.572	4.572	4.4670000000000005	9.858723886108399	0.02454056701660156	0.05686228942871093	2.758026123046875	-3.826141357421875	-0.606536865234375	9.78689783630371	0.07122749938964844	0.17058686828613281	0.9307861328125	-4.917144775390625	-3.093719482421875	9.983222372436522	0.3028665100097656	-0.19333178405761717	2.643585205078125	-4.60052490234375	-1.52587890625	
119	0.47600000000000003	0.0	0.0	0.0	0.0	4.518	4.569	4.569	4.461	9.86291373901367	0.03172317199707031	0.06464344482421874	2.43377685546875	-3.8604736328125	-1.003265380859375	9.788693487548828	0.086191259765625	0.16639701538085935	0.499725341796875	-4.82940673828125	-3.10516357421875	9.986215124511718	0.3028665100097656	-0.1879448303222656	2.597808837890625	-4.497528076171875	-1.76239013671875	
120	0.48	0.0	0.0	0.0	0.0	4.5120000000000005	4.563	4.569	4.494	9.848548529052733	0.05566518859863281	0.0652419952392578	2.54058837890625	-3.997802734375	-0.713348388671875	9.788693487548828	0.09935936889648436	0.17776947326660156	0.339508056640625	-4.99725341796875	-3.223419189453125	9.97783541870117	0.3315969299316406	-0.17118541870117188	2.773284912109375	-4.787445068359375	-1.94549560546875	
121	0.484	0.0	0.0	0.0	0.0	4.506	4.569	4.575	4.5	9.853336932373047	0.05746083984375	0.06344634399414062	2.34222412109375	-3.902435302734375	-0.751495361328125	9.785102185058593	0.09277531433105468	0.17956512451171874	0.701904296875	-5.18798828125	-3.265380859375	9.97903251953125	0.34117373657226563	-0.16639701538085935	2.765655517578125	-4.863739013671875	-1.735687255859375	
122	0.488	0.0	0.0	0.0	0.0	4.503	4.572	4.569	4.5	9.853336932373047	0.06823474731445311	0.061650692749023434	2.50244140625	-3.7994384765625	-0.7781982421875	9.789890588378906	0.10115502014160156	0.17477672119140625	0.408172607421875	-4.787445068359375	-3.30352783203125	9.982623822021484	0.32441432495117184	-0.16340426330566404	2.460479736328125	-4.474639892578125	-1.674652099609375	
123	0.492	0.0	0.0	0.0	0.0	4.488	4.569	4.563	4.509	9.85094273071289	0.08020575561523437	0.05626373901367187	2.5634765625	-3.688812255859375	-0.823974609375	9.783905084228515	0.12030863342285156	0.1897404815673828	0.514984130859375	-4.825592041015625	-3.143310546875	9.976638317871092	0.34715924072265625	-0.14544775085449219	2.86865234375	-4.60052490234375	-1.80816650390625	
124	0.496	0.0	0.0	0.0	0.0	4.509	4.569	4.572	4.482	9.855132583618163	0.10235212097167969	0.05386953735351562	2.597808837890625	-3.89862060546875	-1.04522705078125	9.785102185058593	0.14425065002441406	0.20649989318847656	0.67138671875	-5.0506591796875	-3.269195556640625	9.964068759155273	0.37708676147460934	-0.1388636962890625	2.60162353515625	-4.63104248046875	-1.8310546875	
125	0.5	0.0	0.0	0.0	0.0	4.509	4.572	4.572	4.461	9.861716638183593	0.11671733093261719	0.054468087768554684	2.689361572265625	-3.681182861328125	-0.797271728515625	9.790489138793944	0.15861585998535155	0.18734627990722655	0.72479248046875	-5.08880615234375	-3.07464599609375	9.982025271606444	0.39324762268066404	-0.14305354919433594	2.54058837890625	-4.566192626953125	-1.6632080078125	
126	0.504	0.0	0.0	0.0	0.0	4.509	4.569	4.569	4.473	9.867702142333984	0.14006079711914063	0.04848258361816406	2.246856689453125	-3.719329833984375	-0.789642333984375	9.789890588378906	0.18076222534179687	0.18375497741699218	0.652313232421875	-4.8980712890625	-3.0975341796875	9.980828170776366	0.42796354675292964	-0.16220716247558592	3.040313720703125	-4.573822021484375	-1.705169677734375	
127	0.508	0.0	0.0	0.0	0.0	4.509	4.572	4.569	4.497	9.853336932373047	0.16759411621093748	0.051475335693359374	2.490997314453125	-3.54766845703125	-0.7781982421875	9.781510882568359	0.2154781494140625	0.1867477294921875	0.820159912109375	-5.2032470703125	-3.326416015625	9.970652813720703	0.4423287567138672	-0.16460136413574217	2.704620361328125	-4.619598388671875	-1.7242431640625	
128	0.512	0.0	0.0	0.0	0.0	4.506	4.569	4.572	4.5	9.853935482788085	0.18914193115234373	0.05087678527832031	2.529144287109375	-3.780364990234375	-0.60272216796875	9.777919580078125	0.25139117431640623	0.1610100616455078	0.560760498046875	-5.252838134765625	-3.3111572265625	9.97783541870117	0.4722562774658203	-0.17238251953125	2.76947021484375	-4.772186279296875	-1.79290771484375	
129	0.516	0.0	0.0	0.0	0.0	4.497	4.569	4.569	4.509	9.86291373901367	0.21068974609375	0.04908113403320312	2.483367919921875	-3.757476806640625	-0.8697509765625	9.789890588378906	0.2645592834472656	0.16220716247558592	0.57220458984375	-5.008697509765625	-3.154754638671875	9.97125136413574	0.49679684448242184	-0.1801636749267578	2.803802490234375	-4.608154296875	-1.8463134765625	
130	0.52	0.0	0.0	0.0	0.0	4.509	4.569	4.572	4.494	9.859322436523437	0.2424129180908203	0.05626373901367187	2.55584716796875	-3.864288330078125	-0.7781982421875	9.782109432983399	0.2962824554443359	0.1562216583251953	0.530242919921875	-4.825592041015625	-3.276824951171875	9.974842666625976	0.5333084197998047	-0.1927332336425781	2.735137939453125	-4.5013427734375	-1.67083740234375	
131	0.524	0.0	0.0	0.0	0.0	4.506	4.572	4.572	4.4670000000000005	9.85632968444824	0.2705447875976562	0.05087678527832031	2.58636474609375	-3.894805908203125	-0.60272216796875	9.785102185058593	0.31962592163085934	0.1640028137207031	0.431060791015625	-4.901885986328125	-3.13568115234375	9.974244116210937	0.5482721801757812	-0.19333178405761717	2.735137939453125	-4.7760009765625	-1.85394287109375	
132	0.528	0.0	0.0	0.0	0.0	4.515	4.569	4.569	4.464	9.859322436523437	0.2825157958984375	0.04967968444824218	2.50244140625	-3.82232666015625	-0.682830810546875	9.781510882568359	0.3178302703857422	0.16160861206054686	0.87738037109375	-5.054473876953125	-3.27301025390625	9.97184991455078	0.5530605834960938	-0.2059013427734375	2.490997314453125	-4.67681884765625	-1.857757568359375	
133	0.532	0.0	0.0	0.0	0.0	4.5120000000000005	4.563	4.569	4.491	9.852738381958007	0.29089550170898437	0.040102877807617184	2.544403076171875	-3.711700439453125	-0.896453857421875	9.789890588378906	0.32082302246093747	0.17118541870117188	0.66375732421875	-5.237579345703125	-3.047943115234375	9.968258612060547	0.5620388397216797	-0.20530279235839843	2.60162353515625	-4.550933837890625	-1.617431640625	
134	0.536	0.0	0.0	0.0	0.0	4.503	4.572	4.572	4.494	9.854534033203125	0.29867665710449215	0.052073886108398436	2.54058837890625	-4.039764404296875	-0.812530517578125	9.777919580078125	0.33518823242187495	0.17058686828613281	0.5645751953125	-4.90570068359375	-3.31878662109375	9.954491952514648	0.5835866546630859	-0.19093758239746092	2.52532958984375	-4.55474853515625	-1.77764892578125	
135	0.54	0.0	0.0	0.0	0.0	4.506	4.569	4.569	4.497	9.858125335693359	0.29568390502929687	0.058657940673828124	2.3956298828125	-3.932952880859375	-0.75531005859375	9.783905084228515	0.33758243408203126	0.16998831787109375	0.46539306640625	-4.852294921875	-3.11279296875	9.96047745666504	0.5781997009277343	-0.18435352783203124	2.605438232421875	-4.5623779296875	-1.80816650390625	
136	0.544	0.0	0.0	0.0	0.0	4.491	4.569	4.563	4.5120000000000005	9.860519537353515	0.29269115295410153	0.044891281127929686	2.5482177734375	-3.681182861328125	-0.80108642578125	9.783905084228515	0.3298012786865234	0.1771709228515625	0.568389892578125	-5.2337646484375	-3.383636474609375	9.973645565795898	0.565031591796875	-0.18555062866210936	2.5177001953125	-4.7760009765625	-1.857757568359375	
137	0.548	0.0	0.0	0.0	0.0	4.5120000000000005	4.569	4.572	4.479	9.86351228942871	0.27832594299316404	0.06763619689941405	2.559661865234375	-3.726959228515625	-0.7476806640625	9.782707983398437	0.32022447204589843	0.19512743530273435	0.476837158203125	-4.95147705078125	-3.383636474609375	9.97244846496582	0.5602431884765625	-0.18255787658691405	2.58636474609375	-4.66156005859375	-1.80816650390625	
138	0.552	0.0	0.0	0.0	0.0	4.509	4.572	4.572	4.461	9.850344180297851	0.27293898925781246	0.06284779357910156	2.35748291015625	-3.6163330078125	-0.74005126953125	9.773131176757811	0.32082302246093747	0.1897404815673828	0.54931640625	-4.955291748046875	-3.19671630859375	9.973047015380859	0.5608417388916015	-0.16879121704101563	2.742767333984375	-4.657745361328125	-1.682281494140625	
139	0.556	0.0	0.0	0.0	0.0	4.5120000000000005	4.566	4.569	4.479	9.846154327392577	0.2567781280517578	0.06284779357910156	2.582550048828125	-3.6773681640625	-0.78582763671875	9.779715231323241	0.29568390502929687	0.19393033447265623	0.514984130859375	-5.161285400390625	-3.31878662109375	9.969455712890625	0.5285200164794922	-0.14484920043945312	2.4566650390625	-4.528045654296875	-1.689910888671875	
140	0.56	0.0	0.0	0.0	0.0	4.5120000000000005	4.572	4.569	4.494	9.85094273071289	0.24301146850585936	0.06643909606933593	2.44140625	-3.734588623046875	-0.934600830078125	9.788693487548828	0.28490999755859375	0.1927332336425781	0.560760498046875	-5.06591796875	-3.19671630859375	9.968258612060547	0.5159504577636719	-0.14006079711914063	2.57110595703125	-4.94384765625	-1.834869384765625	
141	0.5640000000000001	0.0	0.0	0.0	0.0	4.506	4.572	4.572	4.5	9.852139831542969	0.2262520568847656	0.06763619689941405	2.50244140625	-3.742218017578125	-0.637054443359375	9.791686239624022	0.2711433380126953	0.21248539733886718	0.591278076171875	-4.8370361328125	-3.238677978515625	9.964068759155273	0.49679684448242184	-0.1274912384033203	2.765655517578125	-4.57000732421875	-1.67083740234375	
142	0.5680000000000001	0.0	0.0	0.0	0.0	4.494	4.569	4.569	4.506	9.853935482788085	0.21068974609375	0.06344634399414062	2.407073974609375	-3.74603271484375	-0.91552734375	9.78629928588867	0.24301146850585936	0.19572598571777342	0.827789306640625	-5.2947998046875	-3.2806396484375	9.976638317871092	0.47165772705078124	-0.1352723937988281	2.696990966796875	-4.558563232421875	-1.96075439453125	
143	0.5720000000000001	0.0	0.0	0.0	0.0	4.506	4.569	4.569	4.491	9.861716638183593	0.16699556579589842	0.0526724365234375	2.593994140625	-3.856658935546875	-0.713348388671875	9.785102185058593	0.2166752502441406	0.19572598571777342	0.6103515625	-5.062103271484375	-3.208160400390625	9.982623822021484	0.4477157104492187	-0.13467384338378904	2.8228759765625	-4.703521728515625	-1.613616943359375	
144	0.5760000000000001	0.0	0.0	0.0	0.0	4.509	4.572	4.572	4.4670000000000005	9.85632968444824	0.1484405029296875	0.05566518859863281	2.60162353515625	-3.925323486328125	-0.865936279296875	9.782707983398437	0.19871873779296872	0.18435352783203124	0.629425048828125	-5.046844482421875	-3.154754638671875	9.97125136413574	0.43514615173339843	-0.14484920043945312	2.716064453125	-4.69207763671875	-1.674652099609375	
145	0.58	0.0	0.0	0.0	0.0	4.518	4.569	4.569	4.461	9.86291373901367	0.13467384338378904	0.062249243164062495	2.506256103515625	-3.94439697265625	-0.728607177734375	9.783905084228515	0.17776947326660156	0.18315642700195311	0.61798095703125	-5.069732666015625	-3.108978271484375	9.961076007080077	0.4147954376220703	-0.1580173095703125	2.5177001953125	-4.608154296875	-1.7242431640625	
146	0.584	0.0	0.0	0.0	0.0	4.515	4.563	4.569	4.491	9.861118087768554	0.11552023010253906	0.05386953735351562	2.742767333984375	-3.620147705078125	-1.102447509765625	9.782707983398437	0.15382745666503905	0.17597382202148437	0.81634521484375	-4.79888916015625	-3.27301025390625	9.97184991455078	0.3908534210205078	-0.15682020874023436	2.6397705078125	-4.627227783203125	-1.880645751953125	
147	0.588	0.0	0.0	0.0	0.0	4.506	4.572	4.572	4.5	9.87009634399414	0.09995791931152344	0.04668693237304687	2.49481201171875	-3.79180908203125	-0.736236572265625	9.782707983398437	0.13587094421386717	0.15981296081542967	0.61798095703125	-4.924774169921875	-2.98309326171875	9.983820922851562	0.37708676147460934	-0.17657237243652343	2.719879150390625	-4.608154296875	-1.796722412109375	
148	0.592	0.0	0.0	0.0	0.0	4.506	4.569	4.569	4.497	9.865307940673828	0.07900865478515624	0.055066638183593745	2.6092529296875	-3.53240966796875	-0.782012939453125	9.781510882568359	0.1292868896484375	0.1592144104003906	0.75531005859375	-4.95147705078125	-3.223419189453125	9.99220062866211	0.36092590026855464	-0.19093758239746092	2.704620361328125	-4.581451416015625	-1.621246337890625	
149	0.596	0.0	0.0	0.0	0.0	4.488	4.569	4.563	4.515	9.85692823486328	0.06763619689941405	0.044292730712890624	2.62451171875	-3.88336181640625	-0.7476806640625	9.783905084228515	0.1083376251220703	0.16879121704101563	0.70953369140625	-4.9285888671875	-3.269195556640625	9.982623822021484	0.3429693878173828	-0.1975216369628906	2.5482177734375	-4.596710205078125	-1.834869384765625	
150	0.6	0.0	0.0	0.0	0.0	4.515	4.566	4.572	4.476	9.86351228942871	0.059256491088867186	0.040701428222656245	2.468109130859375	-3.8299560546875	-0.629425048828125	9.790489138793944	0.08978256225585937	0.1484405029296875	0.598907470703125	-5.016326904296875	-3.0975341796875	9.983820922851562	0.32920272827148434	-0.2136824981689453	2.506256103515625	-4.657745361328125	-1.811981201171875	
151	0.604	0.0	0.0	0.0	0.0	4.509	4.572	4.572	4.461	9.861716638183593	0.040701428222656245	0.04189852905273437	2.521514892578125	-3.8299560546875	-0.823974609375	9.7928833404541	0.086191259765625	0.15382745666503905	0.5035400390625	-5.092620849609375	-3.021240234375	9.983820922851562	0.31962592163085934	-0.2059013427734375	2.674102783203125	-4.665374755859375	-1.74713134765625	
152	0.608	0.0	0.0	0.0	0.0	4.509	4.569	4.569	4.476	9.862315188598632	0.023942016601562498	0.04189852905273437	2.50244140625	-3.90625	-0.888824462890625	9.791087689208984	0.0718260498046875	0.15861585998535155	0.537872314453125	-5.30242919921875	-3.11279296875	9.983820922851562	0.2980781066894531	-0.20470424194335937	2.6092529296875	-4.642486572265625	-1.74713134765625	
153	0.612	0.0	0.0	0.0	0.0	4.509	4.572	4.572	4.497	9.86351228942871	0.009576806640625	0.030526071166992186	2.429962158203125	-3.932952880859375	-0.522613525390625	9.796474642944336	0.047285482788085934	0.15083470458984374	0.324249267578125	-4.81414794921875	-3.05938720703125	9.996989031982421	0.28730419921875	-0.2154781494140625	2.681732177734375	-4.657745361328125	-1.911163330078125	
154	0.616	0.0	0.0	0.0	0.0	4.506	4.572	4.572	4.5	9.860519537353515	0.006584054565429687	0.029328970336914062	2.58636474609375	-3.814697265625	-0.843048095703125	9.791087689208984	0.051475335693359374	0.15502455749511718	0.69427490234375	-5.14984130859375	-3.13568115234375	9.987412225341796	0.2855085479736328	-0.201112939453125	2.643585205078125	-4.6844482421875	-1.804351806640625	
155	0.62	0.0	0.0	0.0	0.0	4.497	4.569	4.569	4.506	9.859322436523437	0.001197100830078125	0.033518823242187495	2.544403076171875	-3.84521484375	-0.896453857421875	9.782707983398437	0.04848258361816406	0.16220716247558592	0.568389892578125	-4.901885986328125	-3.2501220703125	9.983820922851562	0.2807201446533203	-0.1897404815673828	2.483367919921875	-4.69207763671875	-1.773834228515625	
156	0.624	0.0	0.0	0.0	0.0	4.506	4.569	4.572	4.494	9.864709390258788	0.007781155395507812	0.02693476867675781	2.5177001953125	-4.024505615234375	-0.7476806640625	9.783905084228515	0.05327098693847656	0.15263035583496093	0.40435791015625	-5.008697509765625	-3.215789794921875	9.989806427001952	0.2741360900878906	-0.18315642700195311	2.651214599609375	-4.886627197265625	-1.9073486328125	
157	0.628	0.0	0.0	0.0	0.0	4.509	4.566	4.572	4.4670000000000005	9.85692823486328	0.007781155395507812	0.023343466186523436	2.38800048828125	-3.635406494140625	-0.70953369140625	9.78629928588867	0.05386953735351562	0.16340426330566404	0.865936279296875	-4.974365234375	-3.170013427734375	9.991003527832031	0.27952304382324217	-0.18255787658691405	2.66265869140625	-4.7454833984375	-1.789093017578125	
158	0.632	0.0	0.0	0.0	0.0	4.515	4.569	4.569	4.464	9.855731134033203	0.030526071166992186	0.02633621826171875	2.532958984375	-4.0740966796875	-0.762939453125	9.782109432983399	0.06643909606933593	0.15203180541992187	0.576019287109375	-4.947662353515625	-3.204345703125	9.982623822021484	0.2962824554443359	-0.1801636749267578	2.49481201171875	-4.657745361328125	-1.972198486328125	
159	0.636	0.0	0.0	0.0	0.0	4.5120000000000005	4.5600000000000005	4.569	4.491	9.861716638183593	0.032920272827148434	0.034715924072265626	2.384185791015625	-3.7689208984375	-0.518798828125	9.785102185058593	0.08259995727539061	0.1562216583251953	0.690460205078125	-4.99725341796875	-3.147125244140625	9.976039767456054	0.31543606872558594	-0.18435352783203124	2.544403076171875	-4.47845458984375	-1.605987548828125	
160	0.64	0.0	0.0	0.0	0.0	4.506	4.572	4.572	4.5	9.86291373901367	0.05087678527832031	0.034715924072265626	2.666473388671875	-3.841400146484375	-0.63323974609375	9.78629928588867	0.09636661682128905	0.15263035583496093	0.576019287109375	-5.13458251953125	-3.177642822265625	9.981426721191406	0.33518823242187495	-0.18435352783203124	2.79998779296875	-4.627227783203125	-1.64794921875	
161	0.644	0.0	0.0	0.0	0.0	4.509	4.569	4.572	4.5	9.859920986938477	0.08140285644531249	0.028131869506835935	2.620697021484375	-3.814697265625	-0.858306884765625	9.785102185058593	0.11552023010253906	0.15023615417480468	0.652313232421875	-5.016326904296875	-3.2958984375	9.995791931152343	0.35015199279785153	-0.18854338073730467	2.872467041015625	-4.627227783203125	-1.827239990234375	
162	0.648	0.0	0.0	0.0	0.0	4.491	4.569	4.563	4.515	9.853336932373047	0.11252747802734374	0.01975216369628906	2.5634765625	-3.60870361328125	-0.736236572265625	9.783905084228515	0.14724340209960937	0.1484405029296875	0.789642333984375	-4.856109619140625	-3.16619873046875	9.987412225341796	0.3716998077392578	-0.19572598571777342	2.57110595703125	-4.6844482421875	-1.636505126953125	
163	0.652	0.0	0.0	0.0	0.0	4.515	4.569	4.572	4.476	9.85752678527832	0.12210428466796874	0.028730419921875	2.391815185546875	-3.79180908203125	-0.9002685546875	9.78629928588867	0.17417817077636719	0.14425065002441406	0.77056884765625	-4.92095947265625	-3.27301025390625	9.988609326171874	0.3956418243408203	-0.21248539733886718	2.960205078125	-4.7760009765625	-1.934051513671875	
164	0.656	0.0	0.0	0.0	0.0	4.515	4.572	4.572	4.461	9.85692823486328	0.15562310791015624	0.03172317199707031	2.50244140625	-3.917694091796875	-0.888824462890625	9.783905084228515	0.19033903198242186	0.13946224670410157	0.797271728515625	-5.062103271484375	-3.185272216796875	9.990404977416992	0.4165910888671875	-0.22385785522460935	2.62451171875	-4.7454833984375	-1.8310546875	
165	0.66	0.0	0.0	0.0	0.0	4.521	4.569	4.569	4.479	9.859322436523437	0.18136077575683593	0.03411737365722656	2.37274169921875	-3.79180908203125	-0.84686279296875	9.78629928588867	0.22685060729980466	0.1484405029296875	0.701904296875	-4.909515380859375	-3.39508056640625	9.980229620361328	0.4531026641845703	-0.22685060729980466	2.6092529296875	-4.4403076171875	-1.667022705078125	
166	0.664	0.0	0.0	0.0	0.0	4.509	4.566	4.569	4.497	9.860519537353515	0.19812018737792966	0.044292730712890624	2.67791748046875	-3.688812255859375	-0.8392333984375	9.783306533813477	0.24660277099609373	0.13946224670410157	0.64849853515625	-5.0811767578125	-3.101348876953125	9.97843396911621	0.48662148742675776	-0.20769699401855468	2.635955810546875	-4.852294921875	-1.7242431640625	
167	0.668	0.0	0.0	0.0	0.0	4.506	4.572	4.572	4.5	9.860519537353515	0.2166752502441406	0.04608838195800781	2.704620361328125	-3.60870361328125	-0.67138671875	9.78629928588867	0.2645592834472656	0.15502455749511718	0.797271728515625	-5.184173583984375	-3.246307373046875	9.98501802368164	0.4997895965576172	-0.21188684692382811	2.704620361328125	-4.932403564453125	-1.79290771484375	
168	0.672	0.0	0.0	0.0	0.0	4.494	4.569	4.569	4.509	9.849745629882811	0.2501940734863281	0.059256491088867186	2.513885498046875	-3.749847412109375	-0.705718994140625	9.785700735473633	0.2645592834472656	0.18854338073730467	0.61798095703125	-5.031585693359375	-3.177642822265625	9.990404977416992	0.5165490081787109	-0.2041056915283203	2.712249755859375	-4.69970703125	-1.598358154296875	
169	0.676	0.0	0.0	0.0	0.0	4.509	4.569	4.572	4.494	9.864709390258788	0.2759317413330078	0.028131869506835935	2.323150634765625	-3.887176513671875	-1.0528564453125	9.815029705810547	0.30346506042480464	0.143652099609375	0.49591064453125	-4.93621826171875	-3.116607666015625	10.008960040283203	0.5722141967773438	-0.2232593048095703	2.338409423828125	-4.711151123046875	-1.8768310546875	
170	0.68	0.0	0.0	0.0	0.0	4.509	4.572	4.572	4.4670000000000005	9.85094273071289	0.30885201416015623	0.07601590270996093	2.544403076171875	-3.57818603515625	-0.812530517578125	9.776722479248047	0.31962592163085934	0.22266075439453123	0.7476806640625	-5.01251220703125	-3.1280517578125	9.976638317871092	0.613514175415039	-0.16879121704101563	2.58636474609375	-4.50897216796875	-1.64794921875	
171	0.684	0.0	0.0	0.0	0.0	4.5120000000000005	4.569	4.569	4.4670000000000005	9.87608184814453	0.23882161560058593	0.04608838195800781	2.803802490234375	-2.986907958984375	-0.888824462890625	9.81263550415039	0.21487959899902342	0.15861585998535155	0.43487548828125	-5.138397216796875	-3.231048583984375	9.986215124511718	0.4387374542236328	-0.20769699401855468	2.574920654296875	-4.791259765625	-1.850128173828125	
172	0.6880000000000001	0.0	0.0	0.0	0.0	4.5120000000000005	4.563	4.569	4.491	9.836577520751952	0.3381809844970703	0.10414777221679687	2.765655517578125	-3.734588623046875	-0.78582763671875	9.777919580078125	0.3968389251708984	0.2154781494140625	0.591278076171875	-5.2032470703125	-3.01361083984375	9.98501802368164	0.6703764648437499	-0.15682020874023436	2.63214111328125	-4.604339599609375	-1.79290771484375	
173	0.6920000000000001	0.0	0.0	0.0	0.0	4.503	4.569	4.575	4.503	9.86411083984375	0.2472013214111328	0.08020575561523437	2.536773681640625	-3.757476806640625	-0.949859619140625	9.819818109130859	0.23403321228027343	0.16699556579589842	0.55694580078125	-5.069732666015625	-3.116607666015625	10.005967288208007	0.5249287139892578	-0.1801636749267578	2.513885498046875	-4.535675048828125	-1.544952392578125	
174	0.6960000000000001	0.0	0.0	0.0	0.0	4.503	4.569	4.569	4.5	9.826402163696288	0.29388825378417965	0.10594342346191406	2.880096435546875	-3.932952880859375	-0.823974609375	9.769539874267577	0.3094505645751953	0.22864625854492185	0.823974609375	-5.069732666015625	-3.13568115234375	9.987412225341796	0.5895721588134766	-0.1466448516845703	2.704620361328125	-4.69970703125	-1.8768310546875	
175	0.7000000000000001	0.0	0.0	0.0	0.0	4.488	4.569	4.563	4.5120000000000005	9.87608184814453	0.21009119567871093	0.09157821350097656	2.69317626953125	-4.024505615234375	-0.682830810546875	9.80066449584961	0.23343466186523437	0.1975216369628906	0.69427490234375	-4.940032958984375	-3.093719482421875	10.014346994018554	0.488417138671875	-0.1849520782470703	2.750396728515625	-4.4097900390625	-1.735687255859375	
176	0.704	0.0	0.0	0.0	0.0	4.5120000000000005	4.569	4.575	4.476	9.842563024902343	0.2615665313720703	0.06883329772949218	2.655029296875	-3.6468505859375	-0.682830810546875	9.74799205932617	0.4052186309814453	0.2442085693359375	0.514984130859375	-5.19561767578125	-3.01361083984375	9.903615167236328	0.6853402252197265	-0.06105214233398437	2.521514892578125	-4.482269287109375	-1.708984375	
177	0.708	0.0	0.0	0.0	0.0	4.515	4.572	4.572	4.461	9.868899243164062	0.1466448516845703	0.10354922180175781	2.735137939453125	-3.631591796875	-0.52642822265625	9.795876092529296	0.1304839904785156	0.20171148986816406	0.583648681640625	-4.98199462890625	-3.24249267578125	10.02392380065918	0.3716998077392578	-0.18854338073730467	2.655029296875	-4.5166015625	-1.728057861328125	
178	0.712	0.0	0.0	0.0	0.0	4.5120000000000005	4.569	4.569	4.479	9.82580361328125	0.20530279235839843	0.06883329772949218	2.704620361328125	-3.597259521484375	-0.8392333984375	9.724050042724608	0.4034229797363281	0.2507926239013672	0.728607177734375	-4.9591064453125	-3.2806396484375	9.911396322631836	0.6093243225097655	-0.06584054565429687	2.605438232421875	-4.60052490234375	-2.063751220703125	
179	0.716	0.0	0.0	0.0	0.0	4.509	4.572	4.572	4.497	9.890447058105469	0.18076222534179687	0.09457096557617187	2.78472900390625	-3.582000732421875	-0.67138671875	9.81862100830078	0.17178396911621094	0.1867477294921875	0.659942626953125	-5.092620849609375	-3.18145751953125	9.956287603759765	0.49380409240722656	-0.09217676391601562	2.593994140625	-4.61578369140625	-1.60980224609375	
180	0.72	0.0	0.0	0.0	0.0	4.509	4.572	4.572	4.5	9.820416659545899	0.17597382202148437	0.09516951599121093	2.78472900390625	-3.871917724609375	-0.774383544921875	9.730035546875	0.38666356811523434	0.2442085693359375	0.804901123046875	-5.130767822265625	-3.387451171875	9.878476049804688	0.5668272430419922	-0.05985504150390625	2.605438232421875	-4.619598388671875	-1.911163330078125	
181	0.724	0.0	0.0	0.0	0.0	4.494	4.569	4.569	4.509	9.859322436523437	0.239420166015625	0.009576806640625	2.410888671875	-3.91387939453125	-0.823974609375	9.745597857666015	0.2346317626953125	0.20829554443359374	0.396728515625	-5.04302978515625	-3.22723388671875	9.93952819213867	0.3603273498535156	-0.09756371765136718	2.51007080078125	-4.749298095703125	-1.560211181640625	
182	0.728	0.0	0.0	0.0	0.0	4.509	4.569	4.572	4.491	9.834183319091796	0.14305354919433594	0.054468087768554684	2.674102783203125	-3.803253173828125	-0.812530517578125	9.721655841064452	0.4207809417724609	0.2184709014892578	0.3814697265625	-4.79888916015625	-3.437042236328125	9.968258612060547	0.43993455505371093	-0.15741875915527342	2.727508544921875	-4.375457763671875	-1.91497802734375	
183	0.732	0.0	0.0	0.0	0.0	4.506	4.572	4.572	4.4670000000000005	9.846752877807617	0.20769699401855468	0.010175357055664061	2.208709716796875	-3.57818603515625	-0.621795654296875	9.740809454345703	0.22266075439453123	0.20051438903808594	0.873565673828125	-5.16510009765625	-3.0517578125	9.928155734252929	0.35793314819335936	-0.09337386474609374	2.437591552734375	-4.726409912109375	-1.64031982421875	
184	0.736	0.0	0.0	0.0	0.0	4.515	4.569	4.569	4.4670000000000005	9.801861596679688	0.07601590270996093	0.04189852905273437	2.437591552734375	-4.009246826171875	-0.9307861328125	9.775525378417969	0.23702596435546874	0.1897404815673828	0.64849853515625	-5.054473876953125	-3.566741943359375	9.93952819213867	0.32022447204589843	-0.14484920043945312	2.765655517578125	-4.558563232421875	-1.926422119140625	
185	0.74	0.0	0.0	0.0	0.0	4.509	4.563	4.569	4.491	9.879074600219726	0.16759411621093748	-0.037110125732421874	2.166748046875	-3.574371337890625	-0.675201416015625	9.744999307250977	0.21188684692382811	0.16819266662597654	0.5340576171875	-5.27191162109375	-3.147125244140625	9.9461122467041	0.3190273712158203	-0.0909796630859375	2.704620361328125	-4.665374755859375	-1.621246337890625	
186	0.744	0.0	0.0	0.0	0.0	4.509	4.572	4.572	4.497	9.830592016601562	0.07841010437011718	0.06883329772949218	2.223968505859375	-3.76129150390625	-0.911712646484375	9.771934075927733	0.24361001892089842	0.18255787658691405	0.507354736328125	-4.99725341796875	-3.47900390625	9.926360083007811	0.2980781066894531	-0.14484920043945312	2.685546875	-4.550933837890625	-1.739501953125	
187	0.748	0.0	0.0	0.0	0.0	4.506	4.569	4.569	4.5	9.880870251464843	0.11911153259277343	-0.040102877807617184	2.132415771484375	-3.63922119140625	-0.83160400390625	9.78629928588867	0.15861585998535155	0.1945288848876953	0.4119873046875	-4.848480224609375	-3.215789794921875	9.898826763916015	0.44592005920410155	-0.052073886108398436	2.536773681640625	-4.5928955078125	-1.45721435546875	
188	0.752	0.0	0.0	0.0	0.0	4.491	4.569	4.563	4.509	9.846154327392577	0.04608838195800781	0.054468087768554684	2.26593017578125	-3.597259521484375	-0.81634521484375	9.789890588378906	0.24600422058105467	0.16699556579589842	0.49591064453125	-4.917144775390625	-3.574371337890625	9.9461122467041	0.26396073303222656	-0.14125789794921875	2.483367919921875	-4.367828369140625	-1.79290771484375	
189	0.756	0.0	0.0	0.0	0.0	4.509	4.569	4.572	4.479	9.853336932373047	0.06045359191894531	0.14724340209960937	2.834320068359375	-3.84521484375	-0.72479248046875	9.81263550415039	0.17657237243652343	0.17238251953125	0.26702880859375	-5.126953125	-3.047943115234375	9.903016616821288	0.4632780212402344	-0.040102877807617184	2.64739990234375	-4.680633544921875	-1.247406005859375	
190	0.76	0.0	0.0	0.0	0.0	4.5120000000000005	4.572	4.572	4.461	9.82520506286621	-0.0053869537353515625	0.05626373901367187	2.18963623046875	-3.482818603515625	-0.926971435546875	9.779116680908203	0.21787235107421873	0.1867477294921875	0.67901611328125	-5.237579345703125	-3.032684326171875	10.149020837402343	0.11432312927246092	-0.4722562774658203	2.7618408203125	-4.5013427734375	-1.735687255859375	
191	0.764	0.0	0.0	0.0	0.0	4.506	4.569	4.569	4.479	9.855731134033203	0.19213468322753904	0.15442600708007811	3.07464599609375	-4.116058349609375	-0.637054443359375	9.81862100830078	0.17298106994628906	0.15741875915527342	0.4119873046875	-4.909515380859375	-3.24249267578125	9.903615167236328	0.4656722229003906	-0.03411737365722656	2.685546875	-4.718780517578125	-1.48773193359375	
192	0.768	0.0	0.0	0.0	0.0	4.509	4.572	4.572	4.497	9.849147079467773	-0.009576806640625	0.029328970336914062	2.262115478515625	-3.95965576171875	-1.068115234375	9.89463691101074	-0.19153613281249998	0.030526071166992186	0.7476806640625	-5.0506591796875	-3.18145751953125	10.199299072265624	0.12389993591308593	-0.507570751953125	2.841949462890625	-4.58526611328125	-1.65557861328125	
193	0.772	0.0	0.0	0.0	0.0	4.509	4.572	4.572	4.5	9.853336932373047	0.17298106994628906	0.1580173095703125	3.215789794921875	-4.199981689453125	-0.713348388671875	9.819818109130859	0.15382745666503905	0.1484405029296875	0.431060791015625	-5.191802978515625	-3.36456298828125	10.022128149414062	0.5536591339111328	-0.2657563842773437	2.99072265625	-4.638671875	-1.613616943359375	
194	0.776	0.0	0.0	0.0	0.0	4.494	4.569	4.569	4.5120000000000005	9.955090502929687	-0.14425065002441406	-0.023942016601562498	1.312255859375	-3.24249267578125	-1.010894775390625	9.896432562255859	-0.17058686828613281	0.014963760375976562	0.461578369140625	-4.8980712890625	-3.231048583984375	10.202890374755858	0.1466448516845703	-0.5339069702148437	2.92205810546875	-4.428863525390625	-1.903533935546875	
195	0.78	0.0	0.0	0.0	0.0	4.5120000000000005	4.566	4.572	4.491	9.83777462158203	0.22086510314941404	0.14963760375976562	3.326416015625	-4.20379638671875	-0.751495361328125	9.737218151855469	0.05386953735351562	0.2537853759765625	0.29754638671875	-5.1727294921875	-2.559661865234375	10.060435375976562	0.6183025787353515	-0.30526071166992186	2.99072265625	-4.642486572265625	-1.71661376953125	
196	0.784	0.0	0.0	0.0	0.0	4.509	4.572	4.572	4.4670000000000005	9.964667309570311	-0.19153613281249998	-0.03651157531738281	1.216888427734375	-3.07464599609375	-0.820159912109375	9.889249957275391	-0.21487959899902342	-0.002992752075195312	0.507354736328125	-5.05828857421875	-3.414154052734375	10.256759912109374	0.09277531433105468	-0.3274070770263672	2.73895263671875	-4.6539306640625	-1.57928466796875	
197	0.788	0.0	0.0	0.0	0.0	4.515	4.569	4.569	4.464	9.82580361328125	0.2597708801269531	0.1771709228515625	3.25775146484375	-4.23431396484375	-0.850677490234375	9.720458740234374	0.07900865478515624	0.2651578338623047	0.698089599609375	-5.279541015625	-2.72369384765625	10.039486111450195	0.6697779144287109	-0.32920272827148434	3.047943115234375	-4.680633544921875	-1.5411376953125	
198	0.792	0.0	0.0	0.0	0.0	4.515	4.563	4.569	4.494	9.977236868286132	-0.17178396911621094	-0.059256491088867186	1.132965087890625	-3.337860107421875	-0.858306884765625	9.891644158935547	-0.2962824554443359	0.023942016601562498	0.438690185546875	-5.062103271484375	-2.92205810546875	10.099341152954102	0.18435352783203124	-0.3286041778564453	2.811431884765625	-4.802703857421875	-1.461029052734375	
199	0.796	0.0	0.0	0.0	0.0	4.503	4.572	4.575	4.5	9.846154327392577	-0.017956512451171875	0.013168109130859374	3.223419189453125	-4.001617431640625	-0.823974609375	9.740809454345703	0.04249707946777344	0.24779987182617186	0.51116943359375	-4.638671875	-2.666473388671875	10.046070166015625	0.6643909606933593	-0.3525461944580078	3.01361083984375	-4.589080810546875	-1.613616943359375	
200	0.8	0.0	0.0	0.0	0.0	4.503	4.569	4.569	4.506	9.984419473266602	-0.19033903198242186	-0.05386953735351562	0.812530517578125	-3.0670166015625	-0.904083251953125	9.913790524291992	-0.30885201416015623	-0.0047884033203125	0.9002685546875	-4.791259765625	-2.986907958984375	10.090362896728514	0.17477672119140625	-0.3286041778564453	3.15093994140625	-4.695892333984375	-1.6326904296875	
201	0.804	0.0	0.0	0.0	0.0	4.491	4.569	4.563	4.509	9.83777462158203	0.004189852905273437	0.022146365356445312	2.742767333984375	-4.00543212890625	-0.682830810546875	9.688735568237304	0.5626373901367188	0.2041056915283203	0.896453857421875	-5.016326904296875	-3.25775146484375	9.801861596679688	0.565031591796875	-0.0005985504150390625	2.2430419921875	-4.78363037109375	-2.166748046875	
202	0.808	0.0	0.0	0.0	0.0	4.509	4.566	4.572	4.476	9.988609326171874	-0.20051438903808594	-0.022146365356445312	3.173828125	-4.215240478515625	-0.48065185546875	9.941922393798828	-0.34237083740234375	-0.007781155395507812	0.67138671875	-5.07354736328125	-2.78472900390625	10.10712230834961	0.16699556579589842	-0.32022447204589843	2.986907958984375	-4.909515380859375	-1.708984375	
203	0.812	0.0	0.0	0.0	0.0	4.515	4.572	4.572	4.461	9.832986218261718	-0.010773907470703125	0.040701428222656245	2.57110595703125	-3.910064697265625	-0.965118408203125	9.679757312011718	0.6003460662841796	0.2262520568847656	0.835418701171875	-5.279541015625	-3.326416015625	9.791087689208984	0.5345055206298828	0.027533319091796873	2.02178955078125	-4.7454833984375	-2.20489501953125	
204	0.8160000000000001	0.0	0.0	0.0	0.0	4.515	4.566	4.569	4.482	9.846154327392577	0.37708676147460934	0.00239420166015625	3.10516357421875	-3.795623779296875	-0.3204345703125	9.677363110351562	0.4327519500732422	0.2041056915283203	0.583648681640625	-4.852294921875	-3.204345703125	9.886855755615233	0.316034619140625	-0.03531447448730469	2.40325927734375	-4.8675537109375	-1.804351806640625	
205	0.8200000000000001	0.0	0.0	0.0	0.0	4.509	4.572	4.572	4.497	9.83238766784668	-0.008379705810546874	0.05087678527832031	2.43377685546875	-3.48663330078125	-0.67901611328125	9.651026892089844	0.6560112548828124	0.26695348510742184	0.988006591796875	-4.93621826171875	-3.4027099609375	9.78031378173828	0.5321113189697265	0.08020575561523437	2.25067138671875	-4.41741943359375	-2.223968505859375	
206	0.8240000000000001	0.0	0.0	0.0	0.0	4.506	4.572	4.572	4.503	9.85094273071289	0.4608838195800781	0.033518823242187495	3.147125244140625	-3.978729248046875	-0.492095947265625	9.6779616607666	0.46507367248535153	0.2280477081298828	0.7781982421875	-5.18035888671875	-3.444671630859375	9.8694977935791	0.3082534637451172	-0.005985504150390624	2.288818359375	-4.947662353515625	-1.796722412109375	
207	0.8280000000000001	0.0	0.0	0.0	0.0	4.494	4.569	4.569	4.5120000000000005	9.841365924072266	0.3435679382324219	0.06883329772949218	2.796173095703125	-4.016876220703125	-0.995635986328125	9.700108026123047	0.6530185028076172	0.2561795776367187	0.42724609375	-4.7454833984375	-4.199981689453125	9.893439810180663	0.4327519500732422	-0.1388636962890625	2.155303955078125	-4.222869873046875	-1.99127197265625	
208	0.8320000000000001	0.0	0.0	0.0	0.0	4.5120000000000005	4.569	4.572	4.491	9.846154327392577	0.5386953735351562	0.06943184814453125	3.391265869140625	-4.1351318359375	-0.225067138671875	9.673173257446289	0.4860229370117187	0.24600422058105467	0.965118408203125	-5.214691162109375	-3.39508056640625	9.866505041503906	0.33039982910156246	0.011971008300781249	2.239227294921875	-4.913330078125	-2.00653076171875	
209	0.836	0.0	0.0	0.0	0.0	4.509	4.572	4.572	4.464	9.858723886108399	0.43514615173339843	0.08499415893554688	2.685546875	-3.631591796875	-0.885009765625	9.686341366577148	0.6889315277099609	0.2819172454833984	0.507354736328125	-4.93621826171875	-4.138946533203125	9.904213717651366	0.4944026428222656	-0.13347674255371092	2.475738525390625	-4.283905029296875	-1.9378662109375	
210	0.84	0.0	0.0	0.0	0.0	4.515	4.569	4.569	4.461	9.86291373901367	0.5907692596435546	0.09696516723632811	3.986358642578125	-4.5318603515625	-0.316619873046875	9.677363110351562	0.4686649749755859	0.258573779296875	0.080108642578125	-5.031585693359375	-3.055572509765625	9.868899243164062	0.3507505432128906	0.008978256225585938	2.643585205078125	-4.7454833984375	-1.728057861328125	
211	0.844	0.0	0.0	0.0	0.0	4.515	4.563	4.569	4.494	9.861716638183593	0.4572925170898437	0.09636661682128905	2.788543701171875	-3.83758544921875	-1.094818115234375	9.668983404541015	0.6697779144287109	0.28490999755859375	1.068115234375	-4.8980712890625	-4.131317138671875	9.891045608520507	0.47704468078613277	-0.14484920043945312	2.674102783203125	-4.33349609375	-2.0904541015625	
212	0.848	0.0	0.0	0.0	0.0	4.5	4.572	4.575	4.497	9.898826763916015	0.5590460876464843	0.0	3.50189208984375	-4.398345947265625	-0.957489013671875	9.746794958496093	0.3585316986083984	0.2519897247314453	0.072479248046875	-5.096435546875	-2.98309326171875	9.85752678527832	0.8954314208984374	0.012569558715820313	2.727508544921875	-4.7149658203125	-1.28936767578125	
213	0.852	0.0	0.0	0.0	0.0	4.503	4.569	4.569	4.5	9.860519537353515	0.4644751220703125	0.1005564697265625	2.92205810546875	-3.673553466796875	-0.949859619140625	9.666589202880859	0.661398208618164	0.29388825378417965	0.396728515625	-5.1116943359375	-4.032135009765625	9.899425314331054	0.4997895965576172	-0.13347674255371092	2.5482177734375	-4.367828369140625	-1.895904541015625	
214	0.856	0.0	0.0	0.0	0.0	4.491	4.569	4.563	4.509	9.879074600219726	0.5524620330810547	0.027533319091796873	3.4332275390625	-4.489898681640625	-0.9613037109375	9.732429748535155	0.34237083740234375	0.2507926239013672	0.05340576171875	-4.917144775390625	-2.960205078125	9.85632968444824	0.8511386901855468	-0.017956512451171875	2.899169921875	-4.57000732421875	-1.239776611328125	
215	0.86	0.0	0.0	0.0	0.0	4.509	4.569	4.572	4.482	9.871293444824218	0.4584896179199218	0.08678981018066406	1.15966796875	-3.21197509765625	-1.2359619140625	9.907206469726562	-0.09756371765136718	0.058657940673828124	0.4425048828125	-5.01251220703125	-3.19671630859375	10.277110626220702	0.3112462158203125	-0.5482721801757812	3.017425537109375	-4.680633544921875	-1.739501953125	
216	0.864	0.0	0.0	0.0	0.0	4.518	4.572	4.572	4.464	9.879673150634765	0.5249287139892578	0.033518823242187495	3.33404541015625	-4.177093505859375	-0.98419189453125	9.734823950195311	0.34177228698730466	0.2442085693359375	0.030517578125	-5.062103271484375	-3.04412841796875	9.867103591918944	0.8002619049072265	-0.044292730712890624	2.838134765625	-4.5623779296875	-1.018524169921875	
217	0.868	0.0	0.0	0.0	0.0	4.5120000000000005	4.569	4.569	4.485	9.9461122467041	0.11073182678222655	-0.023942016601562498	1.094818115234375	-3.265380859375	-1.251220703125	9.900622415161132	-0.1131260284423828	0.062249243164062495	0.35858154296875	-5.130767822265625	-3.330230712890625	10.287285983276366	0.2609679809570312	-0.5734112976074218	2.857208251953125	-4.75311279296875	-1.811981201171875	
218	0.872	0.0	0.0	0.0	0.0	4.5120000000000005	4.569	4.572	4.494	9.892242709350585	0.4590881683349609	0.04189852905273437	2.93731689453125	-4.03594970703125	-1.125335693359375	9.787496386718749	0.21487959899902342	0.30346506042480464	0.278472900390625	-5.260467529296875	-2.17437744140625	10.025719451904296	0.8385691314697266	-0.19812018737792966	2.887725830078125	-4.7149658203125	-1.583099365234375	
219	0.876	0.0	0.0	0.0	0.0	4.506	4.572	4.572	4.503	9.968258612060547	0.06284779357910156	-0.047285482788085934	0.881195068359375	-3.13568115234375	-1.323699951171875	9.887454306030273	-0.08858546142578125	0.05087678527832031	0.38909912109375	-5.176544189453125	-3.41033935546875	10.276512075805664	0.2825157958984375	-0.565630142211914	2.933502197265625	-4.604339599609375	-1.956939697265625	
220	0.88	0.0	0.0	0.0	0.0	4.497	4.569	4.569	4.509	9.687538467407226	0.10354922180175781	0.296881005859375	2.948760986328125	-3.72314453125	-0.7171630859375	9.779715231323241	0.181959326171875	0.30526071166992186	0.278472900390625	-5.21087646484375	-2.170562744140625	10.01733974609375	0.8337807281494141	-0.1927332336425781	3.086090087890625	-4.44793701171875	-1.651763916015625	
221	0.884	0.0	0.0	0.0	0.0	4.509	4.569	4.572	4.494	10.00417163696289	-0.05386953735351562	-0.09157821350097656	0.911712646484375	-3.108978271484375	-1.300811767578125	10.05504842224121	-0.41060558471679687	-0.055066638183593745	0.652313232421875	-4.917144775390625	-2.69317626953125	10.299855541992187	0.21128829650878905	-0.5901707092285156	2.536773681640625	-3.932952880859375	-1.758575439453125	
222	0.888	0.0	0.0	0.0	0.0	4.509	4.575	0.006	0.006	9.664195001220703	0.07481880187988281	0.28969840087890625	2.674102783203125	-3.818511962890625	-0.8697509765625	9.783306533813477	0.17776947326660156	0.31962592163085934	0.232696533203125	-5.077362060546875	-2.460479736328125	10.014945544433592	0.8104372619628906	-0.20530279235839843	2.92205810546875	-4.764556884765625	-1.865386962890625	
223	0.892	0.0	0.0	0.0	0.0	0.003	0.006	0.006	0.003	10.006565838623047	-0.143652099609375	-0.1304839904785156	0.484466552734375	-2.933502197265625	-1.3885498046875	10.06821653137207	-0.4608838195800781	-0.05985504150390625	0.91552734375	-5.092620849609375	-2.8228759765625	10.174758505249024	-0.0005985504150390625	-0.3345896820068359	2.7618408203125	-4.669189453125	-1.44195556640625	
224	0.896	0.0	0.0	0.0	0.0	0.003	0.003	0.006	0.006	9.677363110351562	0.002992752075195312	0.2651578338623047	2.727508544921875	-3.841400146484375	-0.690460205078125	9.683348614501952	0.46507367248535153	0.26216508178710934	0.7476806640625	-4.913330078125	-2.895355224609375	10.024522351074218	0.7775169891357422	-0.1867477294921875	2.8839111328125	-4.66156005859375	-1.598358154296875	
225	0.9	0.0	0.0	0.0	0.0	0.003	0.006	0.006	0.006	9.916783276367187	-0.16998831787109375	0.04848258361816406	2.277374267578125	-3.429412841796875	-0.335693359375	10.08677159423828	-0.5351040710449219	-0.07781155395507812	0.6103515625	-4.871368408203125	-2.8076171875	10.189722265624999	-0.08858546142578125	-0.3537432952880859	3.18145751953125	-4.924774169921875	-1.682281494140625	
226	0.904	0.0	0.0	0.0	0.0	0.003	0.003	0.003	0.006	9.674370358276366	0.1657984649658203	0.2597708801269531	3.47900390625	-4.253387451171875	-0.286102294921875	9.695319622802733	0.3268085266113281	0.2424129180908203	1.026153564453125	-5.100250244140625	-3.269195556640625	9.785102185058593	0.36571430358886714	0.06643909606933593	2.34222412109375	-4.7607421875	-2.513885498046875	
227	0.908	0.0	0.0	0.0	0.0	0.003	0.003	0.006	0.006	9.794678991699218	0.037110125732421874	0.13347674255371092	1.880645751953125	-3.406524658203125	-0.965118408203125	9.740210903930663	0.00239420166015625	0.2088940948486328	0.640869140625	-4.7607421875	-3.147125244140625	10.207678778076172	-0.031124621582031248	-0.37708676147460934	2.826690673828125	-4.52423095703125	-1.697540283203125	
228	0.912	0.0	0.0	0.0	0.0	0.006	0.006	0.006	0.006	9.619303720092773	0.0796072052001953	0.2765302917480469	0.751495361328125	-2.956390380859375	-1.331329345703125	9.687538467407226	0.45070846252441404	0.23403321228027343	1.041412353515625	-4.962921142578125	-2.84576416015625	9.770138424682617	0.5799953521728515	0.07900865478515624	2.353668212890625	-4.79888916015625	-2.460479736328125	
229	0.916	0.0	0.0	0.0	0.0	0.003	0.003	0.003	0.006	9.813832604980469	0.1693897674560547	0.09995791931152344	2.92205810546875	-3.74603271484375	-0.8697509765625	9.734823950195311	-0.001197100830078125	0.1753752716064453	0.81634521484375	-5.1116943359375	-2.841949462890625	9.83777462158203	0.3064578125	0.022146365356445312	2.208709716796875	-4.73785400390625	-1.499176025390625	
230	0.92	0.0	0.0	0.0	0.0	0.003	0.006	0.003	0.003	9.79946739501953	0.1370680450439453	0.014963760375976562	0.2593994140625	-2.353668212890625	-1.499176025390625	9.707889181518555	0.09816226806640624	0.21128829650878905	1.0528564453125	-4.9285888671875	-4.039764404296875	9.777321029663085	0.3399766357421875	0.04548983154296875	2.285003662109375	-4.856109619140625	-2.26593017578125	
231	0.924	0.0	0.0	0.0	0.0	0.003	0.006	0.006	0.003	9.855731134033203	0.19093758239746092	0.06284779357910156	2.605438232421875	-3.673553466796875	-0.804901123046875	9.74859060974121	-0.0987608184814453	0.16220716247558592	0.797271728515625	-4.795074462890625	-3.2806396484375	9.868300692749022	0.1897404815673828	-0.00239420166015625	2.28118896484375	-4.66156005859375	-1.857757568359375	
232	0.928	0.0	0.0	0.0	0.0	0.003	0.003	0.006	0.003	9.798270294189452	0.07302315063476562	-0.0053869537353515625	1.354217529296875	-3.215789794921875	-1.285552978515625	9.606734161376952	0.45070846252441404	0.21248539733886718	0.9918212890625	-4.7760009765625	-4.08935546875	9.777919580078125	0.5392939239501953	0.047285482788085934	2.52532958984375	-4.421234130859375	-2.109527587890625	
233	0.932	0.0	0.0	0.0	0.0	0.003	0.006	0.006	0.009000000000000001	9.87009634399414	0.14544775085449219	-0.06404489440917968	4.53948974609375	-5.016326904296875	-0.60272216796875	9.746794958496093	-0.14784195251464843	0.15322890625	0.4425048828125	-4.970550537109375	-3.45611572265625	9.832986218261718	0.1879448303222656	-0.001197100830078125	2.407073974609375	-4.932403564453125	-1.514434814453125	
234	0.936	0.0	0.0	0.0	0.0	0.009000000000000001	0.006	0.006	0.003	9.841365924072266	0.11133037719726561	-0.06763619689941405	0.728607177734375	-2.819061279296875	-1.377105712890625	9.622895022583007	0.35613749694824215	0.17657237243652343	0.881195068359375	-4.608154296875	-3.83758544921875	9.878476049804688	0.2472013214111328	-0.1753752716064453	2.490997314453125	-4.726409912109375	-2.471923828125	
235	0.9400000000000001	0.0	0.0	0.0	0.0	0.003	0.003	0.003	0.003	9.878476049804688	0.09157821350097656	-0.1005564697265625	5.046844482421875	-4.852294921875	-0.518798828125	9.635464581298828	0.39863457641601563	0.2663549346923828	0.606536865234375	-4.962921142578125	-3.0975341796875	9.842563024902343	0.2561795776367187	-0.010175357055664061	2.414703369140625	-4.852294921875	-1.64794921875	
236	0.9440000000000001	0.0	0.0	0.0	0.0	0.006	0.006	0.003	0.006	9.807847100830077	0.18375497741699218	-0.016160861206054686	1.617431640625	-3.047943115234375	-1.140594482421875	9.604339959716796	0.34715924072265625	0.23702596435546874	0.96893310546875	-4.688262939453125	-3.753662109375	9.848548529052733	0.239420166015625	-0.11013327636718749	2.368927001953125	-4.383087158203125	-2.033233642578125	
237	0.9480000000000001	0.0	0.0	0.0	0.0	0.0	0.006	0.003	0.006	9.88386300354004	0.09337386474609374	-0.0909796630859375	4.2266845703125	-4.486083984375	-0.446319580078125	9.636063131713867	0.3178302703857422	0.2597708801269531	0.4425048828125	-4.8980712890625	-3.292083740234375	9.835978970336914	0.5638344909667968	-0.0652419952392578	2.681732177734375	-4.7454833984375	-1.331329345703125	
238	0.9520000000000001	0.0	0.0	0.0	0.0	0.006	0.003	0.006	0.003	9.981426721191406	0.1753752716064453	-0.10175357055664062	3.68499755859375	-4.20379638671875	-0.4730224609375	9.86291373901367	0.12569558715820311	0.0143652099609375	0.61798095703125	-4.840850830078125	-3.89862060546875	9.86351228942871	0.31004911499023435	-0.14544775085449219	2.231597900390625	-4.39453125	-2.3040771484375	
239	0.9560000000000001	0.0	0.0	0.0	0.0	0.006	0.006	0.003	0.006	9.873687646484374	0.1352723937988281	-0.06883329772949218	4.7454833984375	-4.75311279296875	-0.51116943359375	9.631873278808593	0.45070846252441404	0.2855085479736328	0.225067138671875	-5.001068115234375	-3.173828125	9.840168823242188	0.7080851409912109	-0.09995791931152344	2.498626708984375	-4.581451416015625	-1.415252685546875	
240	0.96	0.0	0.0	0.0	0.0	0.003	0.003	0.006	0.006	9.97125136413574	0.17657237243652343	-0.10594342346191406	3.314971923828125	-4.150390625	-0.446319580078125	9.862315188598632	0.22744915771484372	0.025139117431640625	0.1678466796875	-4.673004150390625	-3.528594970703125	10.299855541992187	0.17118541870117188	-0.5674257934570313	3.01361083984375	-4.558563232421875	-1.659393310546875	
241	0.964	0.0	0.0	0.0	0.0	0.006	0.006	0.006	0.006	9.886257205200195	0.05027823486328125	-0.06404489440917968	2.330780029296875	-4.108428955078125	-0.6103515625	9.868899243164062	0.3699041564941406	0.13646949462890623	0.423431396484375	-5.21087646484375	-2.75421142578125	9.847351428222655	0.6943184814453125	-0.09277531433105468	2.895355224609375	-4.840850830078125	-1.3580322265625	
242	0.968	0.0	0.0	0.0	0.0	0.006	0.003	0.006	0.003	9.973047015380859	0.2059013427734375	-0.11671733093261719	3.734588623046875	-4.459381103515625	-0.26702880859375	9.855731134033203	0.023942016601562498	0.055066638183593745	0.5035400390625	-4.764556884765625	-4.001617431640625	10.302249743652343	-0.009576806640625	-0.5506663818359374	2.643585205078125	-4.5166015625	-1.789093017578125	
243	0.972	0.0	0.0	0.0	0.0	0.006	0.006	0.003	0.006	9.771934075927733	-0.04129997863769531	0.16041151123046873	1.873016357421875	-3.5552978515625	-0.63323974609375	9.866505041503906	0.32620997619628905	0.16340426330566404	0.2593994140625	-5.2947998046875	-3.08990478515625	9.828796365356444	0.7727285858154297	-0.040701428222656245	2.86865234375	-4.566192626953125	-1.522064208984375	
244	0.976	0.0	0.0	0.0	0.0	0.003	0.006	0.006	0.003	9.973047015380859	0.26276363220214843	-0.11192892761230468	3.314971923828125	-4.09698486328125	-0.537872314453125	10.038887561035155	0.469862075805664	-0.0909796630859375	0.5645751953125	-5.218505859375	-2.26593017578125	10.283694680786132	0.43514615173339843	-0.5327098693847656	2.956390380859375	-4.497528076171875	-1.308441162109375	
245	0.98	0.0	0.0	0.0	0.0	0.006	0.006	0.006	0.006	9.752181912231444	-0.11133037719726561	0.21068974609375	1.598358154296875	-3.24249267578125	-0.629425048828125	9.860519537353515	0.46507367248535153	0.13407529296874998	0.606536865234375	-5.0811767578125	-3.368377685546875	10.020332498168944	0.42377369384765623	-0.07481880187988281	3.116607666015625	-4.596710205078125	-1.6937255859375	
246	0.984	0.0	0.0	0.0	0.0	0.006	0.003	0.003	0.003	10.01733974609375	0.14125789794921875	-0.025737667846679687	0.77056884765625	-2.841949462890625	-1.117706298828125	10.066420880126952	-0.12988544006347655	-0.10235212097167969	0.637054443359375	-5.229949951171875	-2.613067626953125	10.281300479125976	0.4961982940673828	-0.5315127685546874	2.83050537109375	-4.57763671875	-1.621246337890625	
247	0.988	0.0	0.0	0.0	0.0	0.003	0.006	0.006	0.006	9.795876092529296	0.18734627990722655	0.19991583862304688	2.46429443359375	-3.83758544921875	-0.431060791015625	9.679158761596678	0.7326257080078125	0.24779987182617186	1.270294189453125	-4.6844482421875	-3.734588623046875	10.01015714111328	0.5219359619140624	-0.044292730712890624	2.933502197265625	-4.589080810546875	-1.605987548828125	
248	0.992	0.0	0.0	0.0	0.0	0.003	0.006	0.006	0.003	9.880271701049804	-0.03651157531738281	0.0987608184814453	1.033782958984375	-3.284454345703125	-1.171112060546875	10.067019430541992	-0.3651157531738281	-0.10175357055664062	0.698089599609375	-5.008697509765625	-3.078460693359375	10.17655415649414	0.4333505004882812	-0.3220201232910156	2.8839111328125	-4.833221435546875	-1.556396484375	
249	0.996	0.0	0.0	0.0	0.0	0.006	0.003	0.003	0.006	9.753379013061522	0.12330138549804687	0.21727380065917967	-0.461578369140625	-2.468109130859375	-0.812530517578125	9.666589202880859	0.9690531219482421	0.24660277099609373	1.1138916015625	-5.06591796875	-3.177642822265625	10.014945544433592	0.5811924530029297	-0.03531447448730469	2.964019775390625	-4.9285888671875	-1.57928466796875	
250	1.0	0.0	0.0	0.0	0.0	0.003	0.006	0.006	0.006	9.897629663085937	0.09935936889648436	0.13646949462890623	2.7313232421875	-4.21905517578125	-0.86212158203125	9.95987890625	-0.2807201446533203	0.27353753967285155	0.57220458984375	-4.901885986328125	-3.37982177734375	10.169371551513672	0.4417302062988281	-0.3010708587646484	2.7313232421875	-4.7454833984375	-1.483917236328125	
251	1.004	0.0	0.0	0.0	0.0	0.009000000000000001	0.006	0.006	0.003	9.867702142333984	0.5123591552734374	0.2088940948486328	-0.52642822265625	-2.23541259765625	-1.21307373046875	9.637858782958984	0.7912836486816406	0.2902969512939453	0.774383544921875	-4.978179931640625	-2.582550048828125	9.750386260986328	0.38666356811523434	0.19153613281249998	2.1820068359375	-4.650115966796875	-2.0751953125	
252	1.008	0.0	0.0	0.0	0.0	0.003	0.006	0.003	0.003	9.900622415161132	0.2549824768066406	0.10414777221679687	2.414703369140625	-3.635406494140625	-0.92315673828125	9.81862100830078	-0.11851298217773437	0.28790274963378903	0.45013427734375	-5.130767822265625	-3.833770751953125	10.171167202758788	0.5165490081787109	-0.3429693878173828	2.811431884765625	-4.772186279296875	-1.514434814453125	
253	1.012	0.0	0.0	0.0	0.0	0.006	0.006	0.003	0.003	9.868899243164062	0.469862075805664	0.13946224670410157	-0.690460205078125	-2.208709716796875	-1.453399658203125	9.654618194580078	0.4590881683349609	0.2807201446533203	0.553131103515625	-4.909515380859375	-3.238677978515625	9.767145672607422	0.32142157287597656	0.17597382202148437	2.063751220703125	-4.589080810546875	-2.17437744140625	
254	1.016	0.0	0.0	0.0	0.0	0.003	0.003	0.003	0.006	9.87608184814453	0.2980781066894531	0.15083470458984374	6.359100341796875	-5.474090576171875	-0.8087158203125	9.79408044128418	0.13826514587402344	0.3022679595947265	0.823974609375	-5.237579345703125	-4.047393798828125	10.17056865234375	0.5518634826660156	-0.33758243408203126	2.368927001953125	-4.82177734375	-1.873016357421875	
255	1.02	0.0	0.0	0.0	0.0	0.003	0.006	0.003	0.003	9.871891995239258	0.3687070556640625	0.09038111267089843	-0.18310546875	-2.25830078125	-1.3885498046875	9.655815295410155	0.36750995483398435	0.3327940307617187	0.34332275390625	-4.901885986328125	-3.170013427734375	9.76235726928711	0.27353753967285155	0.17238251953125	2.05230712890625	-4.5318603515625	-2.29644775390625	
256	1.024	0.0	0.0	0.0	0.0	0.006	0.006	0.003	0.003	9.855731134033203	0.3447650390625	0.03651157531738281	6.2255859375	-5.31768798828125	-0.48828125	9.814431155395507	0.23822306518554687	0.28311434631347654	0.4119873046875	-5.096435546875	-3.734588623046875	9.84435867614746	0.6500257507324219	-0.12569558715820311	2.193450927734375	-4.787445068359375	-1.91497802734375	
257	1.028	0.0	0.0	0.0	0.0	0.009000000000000001	0.006	0.006	0.003	9.900023864746093	0.3651157531738281	0.05686228942871093	0.244140625	-2.552032470703125	-1.28173828125	9.658209497070311	0.23582886352539062	0.37888241271972656	0.55694580078125	-4.741668701171875	-3.421783447265625	9.763554370117188	0.22685060729980466	0.1927332336425781	2.227783203125	-4.49371337890625	-2.05230712890625	
258	1.032	0.0	0.0	0.0	0.0	0.003	0.006	0.003	0.003	9.827599264526366	0.2807201446533203	0.027533319091796873	6.275177001953125	-5.53131103515625	-0.438690185546875	9.623493572998047	0.24480711975097655	0.3459621398925781	0.202178955078125	-5.04302978515625	-2.9754638671875	9.76235726928711	0.5674257934570313	0.00718260498046875	2.32696533203125	-4.886627197265625	-2.2735595703125	
259	1.036	0.0	0.0	0.0	0.0	0.006	0.003	0.003	0.006	9.99220062866211	0.364517202758789	-0.037708676147460936	3.887176513671875	-4.38690185546875	-0.408172607421875	9.654019644165038	0.31483751831054685	0.38786066894531246	0.78582763671875	-5.115509033203125	-3.711700439453125	9.851541281127929	0.3794809631347656	-0.20171148986816406	2.437591552734375	-4.322052001953125	-1.842498779296875	
260	1.04	0.0	0.0	0.0	0.0	0.006	0.006	0.006	0.003	9.834781869506836	0.31064766540527344	-0.023942016601562498	7.02667236328125	-5.855560302734375	-0.54931640625	9.626486325073241	0.16819266662597654	0.29867665710449215	0.064849853515625	-5.084991455078125	-3.23486328125	9.797073193359374	0.5811924530029297	-0.06703764648437499	2.391815185546875	-4.886627197265625	-2.346038818359375	
261	1.044	0.0	0.0	0.0	0.0	0.003	0.006	0.006	0.006	9.9981861328125	0.21128829650878905	0.02154781494140625	2.75421142578125	-3.7994384765625	-0.476837158203125	9.817423907470703	0.07362170104980469	-0.030526071166992186	0.152587890625	-4.75311279296875	-3.574371337890625	9.849147079467773	0.3854664672851562	-0.1388636962890625	2.483367919921875	-4.44793701171875	-1.621246337890625	
262	1.048	0.0	0.0	0.0	0.0	0.003	0.003	0.006	0.006	9.83897172241211	0.26695348510742184	-0.0939724151611328	6.73675537109375	-5.695343017578125	-0.26702880859375	9.64025298461914	0.052073886108398436	0.25797522888183594	0.179290771484375	-5.214691162109375	-2.899169921875	9.821015209960937	0.3082534637451172	0.011971008300781249	2.803802490234375	-4.642486572265625	-1.89971923828125	
263	1.052	0.0	0.0	0.0	0.0	0.003	0.006	0.006	0.003	9.994594830322265	0.11252747802734374	-0.029927520751953124	2.52532958984375	-3.84521484375	-0.58746337890625	9.848548529052733	0.13168109130859373	-0.12509703674316405	0.392913818359375	-5.096435546875	-3.2806396484375	9.874286196899414	0.4740519287109375	-0.1771709228515625	2.471923828125	-4.37164306640625	-1.57928466796875	
264	1.056	0.0	0.0	0.0	0.0	0.006	0.006	0.006	0.003	9.887454306030273	-0.3064578125	-0.0383072265625	1.82342529296875	-3.7841796875	-0.58746337890625	9.805452899169921	0.16879121704101563	0.0718260498046875	0.83160400390625	-5.02777099609375	-2.96783447265625	9.859322436523437	0.2549824768066406	0.0053869537353515625	2.716064453125	-4.73785400390625	-1.735687255859375	
265	1.06	0.0	0.0	0.0	0.0	0.006	0.006	0.006	0.006	9.91558617553711	0.02154781494140625	-0.033518823242187495	3.50189208984375	-4.367828369140625	-0.423431396484375	9.752780462646484	0.13826514587402344	-0.09457096557617187	0.522613525390625	-5.0506591796875	-3.246307373046875	9.80066449584961	0.48123453369140623	-0.11851298217773437	2.880096435546875	-4.322052001953125	-1.697540283203125	
266	1.064	0.0	0.0	0.0	0.0	0.006	0.003	0.003	0.003	9.886855755615233	-0.4878185882568359	-0.040102877807617184	-1.010894775390625	-2.410888671875	-0.80108642578125	9.771934075927733	0.12150573425292968	0.07900865478515624	0.553131103515625	-5.30242919921875	-2.971649169921875	9.811438403320311	0.2663549346923828	0.03950432739257812	2.994537353515625	-4.901885986328125	-1.987457275390625	
267	1.068	0.0	0.0	0.0	0.0	0.003	0.006	0.003	0.009000000000000001	10.026916552734374	0.1388636962890625	-0.07362170104980469	2.4261474609375	-3.826141357421875	-0.812530517578125	9.964068759155273	0.1484405029296875	0.0005985504150390625	1.2969970703125	-4.93621826171875	-3.22723388671875	10.332177264404296	0.5482721801757812	-0.5620388397216797	2.74658203125	-4.322052001953125	-1.476287841796875	
268	1.072	0.0	0.0	0.0	0.0	0.006	0.003	0.003	0.003	9.764751470947266	-0.5446808776855468	0.2262520568847656	-0.522613525390625	-2.7313232421875	-1.09100341796875	9.73063409729004	0.11192892761230468	0.12090718383789062	0.743865966796875	-5.107879638671875	-3.30352783203125	9.80066449584961	0.20949264526367187	0.08559270935058594	2.849578857421875	-5.062103271484375	-1.953125	
269	1.076	0.0	0.0	0.0	0.0	0.003	0.006	0.006	0.006	9.951499200439452	0.2442085693359375	0.11252747802734374	2.399444580078125	-3.726959228515625	-0.89263916015625	9.920374578857421	0.1562216583251953	0.07302315063476562	1.30462646484375	-5.11932373046875	-3.31878662109375	10.277110626220702	0.5482721801757812	-0.5303156677246094	2.773284912109375	-4.314422607421875	-1.789093017578125	
270	1.08	0.0	0.0	0.0	0.0	0.006	0.003	0.003	0.006	9.813832604980469	-0.2262520568847656	0.21787235107421873	1.613616943359375	-3.44085693359375	-0.4730224609375	9.70369932861328	0.36272155151367186	0.48123453369140623	1.0528564453125	-5.001068115234375	-3.055572509765625	10.149020837402343	0.34715924072265625	-0.229843359375	2.857208251953125	-4.55474853515625	-1.605987548828125	
271	1.084	0.0	0.0	0.0	0.0	0.006	0.006	0.003	0.003	9.920973129272461	0.19393033447265623	0.16160861206054686	1.03759765625	-2.50244140625	-0.957489013671875	9.904812268066406	0.054468087768554684	0.1592144104003906	1.384735107421875	-4.978179931640625	-3.498077392578125	10.290278735351562	0.40222587890625	-0.42018239135742186	2.925872802734375	-4.180908203125	-1.62506103515625	
272	1.088	0.0	0.0	0.0	0.0	0.003	0.006	0.003	0.003	9.63366893005371	0.7410054138183594	0.43993455505371093	4.756927490234375	-4.14276123046875	-0.469207763671875	9.616909518432617	0.3363853332519531	0.6153098266601562	0.965118408203125	-4.848480224609375	-3.177642822265625	10.037690460205077	0.35673604736328124	-0.10773907470703124	2.780914306640625	-4.810333251953125	-1.6326904296875	
273	1.092	0.0	0.0	0.0	0.0	0.003	0.006	0.006	0.006	9.935936889648437	0.3268085266113281	0.09935936889648436	3.08990478515625	-3.963470458984375	-0.7476806640625	9.966462960815429	0.18734627990722655	0.10354922180175781	-0.0152587890625	-4.852294921875	-3.292083740234375	10.157999093627929	0.5021837982177734	-0.5225345123291015	2.92205810546875	-4.70733642578125	-1.64031982421875	
274	1.096	0.0	0.0	0.0	0.0	0.003	0.006	0.006	0.006	9.734823950195311	0.44532150878906246	0.1406593475341797	2.254486083984375	-3.33404541015625	-1.068115234375	9.715670336914062	0.20530279235839843	0.5512649322509765	0.583648681640625	-4.69970703125	-3.177642822265625	10.140641131591796	0.2549824768066406	-0.14245499877929688	2.98309326171875	-4.58526611328125	-1.45721435546875	
275	1.1	0.0	0.0	0.0	0.0	0.0	0.006	0.003	0.006	10.01015714111328	0.3806780639648437	0.1292868896484375	3.772735595703125	-4.00543212890625	-0.5645751953125	9.926360083007811	0.11133037719726561	0.14125789794921875	0.270843505859375	-5.06591796875	-3.330230712890625	10.111910711669921	0.4525041137695312	-0.4034229797363281	2.7618408203125	-4.60052490234375	-1.697540283203125	
276	1.104	0.0	0.0	0.0	0.0	0.003	0.006	0.003	0.003	9.645639938354492	0.48123453369140623	0.1005564697265625	3.917694091796875	-4.21905517578125	-0.96893310546875	9.710881933593749	0.32142157287597656	0.42497079467773435	0.8697509765625	-4.894256591796875	-2.964019775390625	10.066420880126952	0.42317514343261714	-0.24600422058105467	2.11334228515625	-4.695892333984375	-1.735687255859375	
277	1.108	0.0	0.0	0.0	0.0	0.006	0.006	0.006	0.009000000000000001	9.967061511230469	-0.061650692749023434	-0.2615665313720703	1.46484375	-3.37982177734375	-1.201629638671875	10.019733947753906	0.04967968444824218	-0.016160861206054686	0.54931640625	-4.9591064453125	-2.925872802734375	10.199299072265624	0.38845921936035155	-0.5380968231201172	2.826690673828125	-4.871368408203125	-1.7547607421875	
278	1.112	0.0	0.0	0.0	0.0	-0.003	0.003	0.006	0.003	9.834183319091796	0.16699556579589842	-0.05087678527832031	2.796173095703125	-3.826141357421875	-0.812530517578125	9.725845693969726	0.2454056701660156	0.19093758239746092	0.247955322265625	-4.92095947265625	-3.04412841796875	9.76894132385254	0.2645592834472656	0.10474632263183593	2.300262451171875	-4.608154296875	-1.995086669921875	
279	1.116	0.0	0.0	0.0	0.0	0.003	0.003	0.006	0.003	9.726444244384766	0.2920926025390625	0.11791443176269531	4.08935546875	-4.75311279296875	-0.67138671875	9.97244846496582	0.2454056701660156	-0.044891281127929686	0.518798828125	-5.092620849609375	-3.0975341796875	10.047865817260742	0.5710170959472656	-0.3555389465332031	2.52532958984375	-4.856109619140625	-1.743316650390625	
280	1.12	0.0	0.0	0.0	0.0	0.003	0.006	0.006	0.006	9.66000514831543	0.201112939453125	0.09277531433105468	-1.59454345703125	-1.9989013671875	-1.750946044921875	9.738415252685547	0.18375497741699218	0.21607669982910155	0.49591064453125	-4.932403564453125	-3.15093994140625	9.77492682800293	0.24839842224121092	0.16819266662597654	2.536773681640625	-4.650115966796875	-2.01416015625	
281	1.124	0.0	0.0	0.0	0.0	0.003	0.006	0.006	0.003	9.931747036743163	0.13347674255371092	0.003591302490234375	1.6021728515625	-3.368377685546875	-1.10626220703125	9.730035546875	0.13946224670410157	0.2262520568847656	0.63323974609375	-5.22613525390625	-3.509521484375	9.898228213500976	0.4447229583740234	-0.055066638183593745	2.353668212890625	-5.046844482421875	-2.155303955078125	
282	1.1280000000000001	0.0	0.0	0.0	0.0	0.006	0.006	0.003	0.006	9.782707983398437	0.19692308654785154	0.06404489440917968	4.245758056640625	-4.375457763671875	-0.46539306640625	9.606734161376952	0.22445640563964842	0.4560954162597656	0.732421875	-4.79888916015625	-3.2958984375	9.64623848876953	0.34536358947753903	0.21248539733886718	2.475738525390625	-4.7760009765625	-2.00653076171875	
283	1.1320000000000001	0.0	0.0	0.0	0.0	0.009000000000000001	0.003	0.006	0.006	9.788693487548828	0.6206967803955078	0.16519991455078123	4.32586669921875	-4.375457763671875	-0.6561279296875	9.727641345214844	0.21487959899902342	0.1657984649658203	0.35858154296875	-4.932403564453125	-3.192901611328125	9.788693487548828	0.6057330200195312	-0.001197100830078125	2.361297607421875	-4.89044189453125	-1.8310546875	
284	1.1360000000000001	0.0	0.0	0.0	0.0	0.006	0.006	0.006	0.006	9.883264453125	-0.06883329772949218	-0.07900865478515624	0.40435791015625	-2.81524658203125	-1.583099365234375	9.749189160156249	0.09696516723632811	0.1592144104003906	0.370025634765625	-5.077362060546875	-3.307342529296875	9.9981861328125	0.25258827514648435	-0.1693897674560547	2.506256103515625	-4.55474853515625	-1.739501953125	
285	1.1400000000000001	0.0	0.0	0.0	0.0	0.003	0.006	0.006	0.003	10.013748443603514	-0.22086510314941404	-0.2136824981689453	4.52423095703125	-5.08880615234375	-0.194549560546875	9.677363110351562	0.28490999755859375	0.22685060729980466	0.09918212890625	-5.092620849609375	-3.18145751953125	9.745597857666015	0.5901707092285156	0.034715924072265626	2.44140625	-4.8370361328125	-2.02178955078125	
286	1.1440000000000001	0.0	0.0	0.0	0.0	0.003	0.006	0.006	0.003	9.893439810180663	-0.011372457885742187	-0.03411737365722656	5.222320556640625	-5.046844482421875	-0.003814697265625	9.64623848876953	0.1466448516845703	0.19093758239746092	0.52642822265625	-5.222320556640625	-3.192901611328125	9.819219558715819	0.3800795135498047	-0.08379705810546874	2.376556396484375	-4.238128662109375	-1.583099365234375	
287	1.1480000000000001	0.0	0.0	0.0	0.0	0.006	0.006	0.006	0.006	9.849147079467773	0.15502455749511718	-0.10773907470703124	2.960205078125	-4.276275634765625	-0.591278076171875	9.828197814941406	0.20769699401855468	0.047285482788085934	0.598907470703125	-5.16510009765625	-3.08990478515625	9.872490545654296	0.47884033203125	-0.12629413757324218	2.819061279296875	-4.75311279296875	-1.9073486328125	
288	1.1520000000000001	0.0	0.0	0.0	0.0	0.003	0.003	0.006	0.003	9.655815295410155	0.08080430603027343	0.11013327636718749	0.942230224609375	-2.902984619140625	-1.39617919921875	9.673771807861328	0.19871873779296872	0.1945288848876953	0.217437744140625	-4.673004150390625	-3.37982177734375	9.969455712890625	0.2950853546142578	-0.15263035583496093	2.475738525390625	-4.566192626953125	-1.918792724609375	
289	1.156	0.0	0.0	0.0	0.0	0.003	0.003	0.003	0.006	9.999383233642577	-0.12569558715820311	-0.10414777221679687	0.93841552734375	-3.406524658203125	-0.80108642578125	9.670180505371093	0.2376245147705078	0.17597382202148437	0.583648681640625	-5.22613525390625	-3.322601318359375	9.794678991699218	0.6003460662841796	-0.003591302490234375	2.513885498046875	-4.772186279296875	-1.712799072265625	
290	1.16	0.0	0.0	0.0	0.0	0.006	0.006	0.003	0.006	9.976638317871092	0.12569558715820311	-0.10295067138671875	5.1116943359375	-5.077362060546875	0.3662109375	9.949703549194336	0.2232593048095703	-0.0017956512451171875	0.820159912109375	-5.138397216796875	-2.73895263671875	10.001777435302733	0.2747346405029297	-0.19393033447265623	2.349853515625	-4.283905029296875	-1.598358154296875	
291	1.164	0.0	0.0	0.0	0.0	0.003	0.006	0.006	0.003	9.929951385498047	0.18734627990722655	-0.12150573425292968	7.476806640625	-6.076812744140625	0.335693359375	9.771934075927733	0.17118541870117188	0.07362170104980469	0.392913818359375	-5.14984130859375	-3.505706787109375	9.955090502929687	0.43514615173339843	-0.08080430603027343	2.605438232421875	-4.76837158203125	-1.750946044921875	
292	1.168	0.0	0.0	0.0	0.0	0.003	0.006	0.003	0.006	9.7162688873291	0.08140285644531249	0.07422025146484375	-3.170013427734375	-1.19781494140625	-2.00653076171875	9.896432562255859	0.21487959899902342	-0.05327098693847656	0.6256103515625	-4.76837158203125	-2.925872802734375	10.196904870605469	0.5057751007080078	-0.5159504577636719	3.040313720703125	-4.45556640625	-1.44195556640625	
293	1.172	0.0	0.0	0.0	0.0	0.006	0.006	0.003	0.003	9.919776028442381	0.06284779357910156	-0.12569558715820311	3.482818603515625	-4.375457763671875	-1.544952392578125	9.788693487548828	0.2262520568847656	0.05566518859863281	0.789642333984375	-5.329132080078125	-2.933502197265625	9.87608184814453	0.5686228942871093	-0.013168109130859374	2.651214599609375	-4.608154296875	-1.53350830078125	
294	1.176	0.0	0.0	0.0	0.0	0.006	0.006	0.006	0.006	10.141239682006836	-0.43514615173339843	-0.1484405029296875	0.354766845703125	-2.58636474609375	-0.49591064453125	9.987412225341796	0.08858546142578125	0.03651157531738281	1.087188720703125	-4.50897216796875	-3.0975341796875	10.375272894287109	0.35793314819335936	-0.5297171173095703	3.0059814453125	-4.47845458984375	-1.22833251953125	
295	1.18	0.0	0.0	0.0	0.0	0.006	0.006	0.003	0.003	9.6396544342041	0.4333505004882812	0.38845921936035155	8.53729248046875	-6.366729736328125	0.29754638671875	9.6917283203125	0.21787235107421873	0.6458358978271485	0.70953369140625	-4.886627197265625	-3.35693359375	10.020931048583984	0.28311434631347654	-0.1370680450439453	3.143310546875	-4.81414794921875	-1.918792724609375	
296	1.184	0.0	0.0	0.0	0.0	0.006	0.006	0.006	0.006	9.86411083984375	0.031124621582031248	-0.025737667846679687	2.559661865234375	-3.7689208984375	-0.05340576171875	9.922768780517577	0.16220716247558592	-0.020949264526367185	0.9765625	-4.9285888671875	-3.063201904296875	10.198700521850585	0.49739539489746093	-0.4746504791259765	2.7313232421875	-4.535675048828125	-1.312255859375	
297	1.188	0.0	0.0	0.0	0.0	0.003	0.003	0.006	0.003	9.589974749755859	0.42018239135742186	0.2962824554443359	2.410888671875	-3.978729248046875	-1.026153564453125	9.817423907470703	0.21188684692382811	0.4052186309814453	0.492095947265625	-5.28717041015625	-3.047943115234375	10.123881719970703	0.27353753967285155	-0.2615665313720703	2.765655517578125	-4.75311279296875	-1.79290771484375	
298	1.192	0.0	0.0	0.0	0.0	0.003	0.006	0.006	0.003	9.986813674926758	0.3130418670654297	0.05087678527832031	-2.429962158203125	-1.56402587890625	-1.617431640625	10.110713610839843	0.105344873046875	-0.18555062866210936	1.468658447265625	-4.924774169921875	-3.429412841796875	10.207678778076172	0.6416460449218749	-0.45070846252441404	3.139495849609375	-4.78363037109375	-1.48773193359375	
299	1.196	0.0	0.0	0.0	0.0	0.003	0.003	0.006	0.003	9.5384994140625	0.45489831542968745	0.5099649536132812	4.82940673828125	-4.825592041015625	-0.339508056640625	9.65940659790039	0.37289690856933594	0.5386953735351562	0.598907470703125	-5.25665283203125	-2.83050537109375	9.956287603759765	0.45190556335449217	-0.24660277099609373	2.880096435546875	-4.82177734375	-1.89971923828125	
300	1.2	0.0	0.0	0.0	0.0	0.006	0.003	0.003	0.006	9.865906491088866	0.5045779998779296	0.14425065002441406	-0.3662109375	-2.193450927734375	-1.483917236328125	10.09395419921875	0.0796072052001953	-0.15382745666503905	1.068115234375	-4.871368408203125	-3.30352783203125	10.182539660644531	0.6691793640136718	-0.4746504791259765	3.215789794921875	-4.7760009765625	-1.155853271484375	
301	1.204	0.0	0.0	0.0	0.0	0.003	0.003	0.006	0.006	9.606734161376952	0.5069722015380859	0.3699041564941406	4.230499267578125	-4.344940185546875	-0.980377197265625	9.665392102050781	0.32142157287597656	0.3920505218505859	0.247955322265625	-4.688262939453125	-3.513336181640625	10.150816488647461	0.2292448089599609	-0.34237083740234375	2.292633056640625	-4.8828125	-2.3345947265625	
302	1.208	0.0	0.0	0.0	0.0	0.006	0.003	0.372	4.491	9.963470208740233	0.22445640563964842	-0.008379705810546874	-0.6103515625	-2.25830078125	-1.4801025390625	10.028712203979492	0.1849520782470703	-0.18136077575683593	1.12152099609375	-4.985809326171875	-3.444671630859375	10.084377392578125	0.7356184600830078	-0.5123591552734374	3.326416015625	-4.76837158203125	-1.384735107421875	
303	1.212	0.0	0.0	0.0	0.0	4.503	4.569	4.569	4.506	9.820416659545899	-0.10354922180175781	-0.07721300354003906	4.108428955078125	-4.75311279296875	-0.74005126953125	9.597157354736327	0.40402153015136716	0.39444472351074217	0.499725341796875	-4.932403564453125	-3.238677978515625	9.576806640625	0.2603694305419922	0.2855085479736328	2.4871826171875	-4.840850830078125	-1.903533935546875	
304	1.216	0.0	0.0	0.0	0.0	4.497	4.569	4.569	4.506	10.004770187377929	0.12509703674316405	-0.09576806640624999	0.6256103515625	-2.777099609375	-0.743865966796875	9.855731134033203	-0.0047884033203125	0.054468087768554684	0.774383544921875	-5.0201416015625	-3.147125244140625	10.218452685546874	0.5374982727050781	-0.3489548919677734	3.131866455078125	-4.57763671875	-1.2969970703125	
305	1.22	0.0	0.0	0.0	0.0	4.506	4.569	4.557	4.497	9.64683703918457	0.13287819213867186	0.18076222534179687	3.009796142578125	-3.856658935546875	-1.148223876953125	9.561842880249023	0.32620997619628905	0.4495113616943359	0.3509521484375	-4.852294921875	-3.57818603515625	9.636661682128906	0.15741875915527342	0.30406361083984373	2.384185791015625	-4.47845458984375	-2.300262451171875	
306	1.224	0.0	0.0	0.0	0.0	4.509	4.572	4.572	4.473	9.809044201660155	0.4542997650146484	0.06105214233398437	3.16619873046875	-4.14276123046875	-1.216888427734375	9.661800799560547	0.19093758239746092	0.18734627990722655	0.438690185546875	-5.16510009765625	-3.3111572265625	9.731831198120117	0.7038952880859375	-0.008379705810546874	1.96075439453125	-5.24139404296875	-2.3193359375	
307	1.228	0.0	0.0	0.0	0.0	4.515	4.569	4.569	4.461	9.79348189086914	0.07122749938964844	0.001197100830078125	2.3040771484375	-3.59344482421875	-1.220703125	9.591171850585937	0.23822306518554687	0.3238157745361328	0.667572021484375	-5.031585693359375	-3.887176513671875	9.75517466430664	0.14185644836425781	0.13826514587402344	2.231597900390625	-4.50897216796875	-1.9073486328125	
