	time	dac1	dac2	dac3	dac4	adc1.3	adc2.3	adc3.3	adc4.3	imu1accx	imu1accy	imu1accz	imu1gyrox	imu1gyroy	imu1gyroz	imu2accx	imu2accy	imu2accz	imu2gyrox	imu2gyroy	imu2gyroz	imu3accx	imu3accy	imu3accz	imu3gyrox	imu3gyroy	imu3gyroz	log
0	0.0	0.0	0.0	0.0	0.0	4.44	4.527	4.53	4.437	9.83897172241211	0.13646949462890623	0.00718260498046875	2.532958984375	-3.787994384765625	-0.762939453125	9.77432827758789	0.17118541870117188	0.09935936889648436	0.431060791015625	-4.67681884765625	-3.284454345703125	9.97244846496582	0.4171896392822265	-0.15861585998535155	2.6397705078125	-4.70733642578125	-1.865386962890625	Estabizou em 8s, 1670 rpm
1	0.004	0.0	0.0	0.0	0.0	4.464	4.539	4.5360000000000005	4.452	9.842563024902343	0.14963760375976562	-0.010175357055664061	2.674102783203125	-3.7841796875	-0.759124755859375	9.77432827758789	0.18614917907714842	0.07362170104980469	0.965118408203125	-4.909515380859375	-3.337860107421875	9.970652813720703	0.4207809417724609	-0.1771709228515625	2.666473388671875	-4.730224609375	-1.895904541015625	Started
2	0.008	0.0	0.0	0.0	0.0	4.461	4.5360000000000005	4.533	4.455	9.84555577697754	0.19333178405761717	-0.002992752075195312	2.655029296875	-3.4332275390625	-0.77056884765625	9.759963067626952	0.25737667846679685	0.07721300354003906	0.591278076171875	-5.252838134765625	-3.215789794921875	9.952696301269532	0.4944026428222656	-0.17178396911621094	2.857208251953125	-4.8828125	-1.708984375	IMU1|LSM6DS3|0x6A|I2C-1|±2g (±19,6m/s²)|±125º/s|400Hz
3	0.012	0.0	0.0	0.0	0.0	4.4430000000000005	4.5360000000000005	4.533	4.47	9.855731134033203	0.1975216369628906	0.0017956512451171875	2.55584716796875	-3.73077392578125	-0.84686279296875	9.773729727172851	0.24181436767578124	0.07481880187988281	0.732421875	-4.89044189453125	-3.13568115234375	9.964068759155273	0.49200844116210934	-0.1975216369628906	2.483367919921875	-4.505157470703125	-1.735687255859375	IMU2|LSM6DS3|0x6B|I2C-1|±2g (±19,6m/s²)|±125º/s|400Hz
4	0.016	0.0	0.0	0.0	0.0	4.47	4.5360000000000005	4.539	4.437	9.871891995239258	0.20530279235839843	0.0	2.674102783203125	-3.742218017578125	-0.946044921875	9.791686239624022	0.2346317626953125	0.05985504150390625	0.911712646484375	-4.932403564453125	-3.292083740234375	9.999383233642577	0.4644751220703125	-0.2214636535644531	2.529144287109375	-4.608154296875	-1.99127197265625	IMU3|LSM6DS3|0x6B|I2C-2|±2g (±19,6m/s²)|±125º/s|400Hz
5	0.02	0.0	0.0	0.0	0.0	4.47	4.5360000000000005	4.5360000000000005	4.413	9.86351228942871	0.22266075439453123	0.04189852905273437	2.6092529296875	-3.77655029296875	-0.732421875	9.784503634643555	0.2747346405029297	0.06823474731445311	0.3509521484375	-4.90570068359375	-3.185272216796875	9.988609326171874	0.5021837982177734	-0.21906945190429686	2.796173095703125	-4.787445068359375	-1.708984375	ADC|ADS1015|0|0|1|0|±6,144 V|2400 SPS
6	0.024	0.0	0.0	0.0	0.0	4.473	4.5360000000000005	4.5360000000000005	4.425	9.8694977935791	0.22266075439453123	0.03172317199707031	2.376556396484375	-3.795623779296875	-0.972747802734375	9.79348189086914	0.2663549346923828	0.07362170104980469	0.83160400390625	-4.8675537109375	-3.18145751953125	9.97244846496582	0.4997895965576172	-0.23642741394042968	2.60162353515625	-4.611968994140625	-1.8463134765625	Gen1|Disabled
7	0.028	0.0	0.0	0.0	0.0	4.4670000000000005	4.524	4.539	4.452	9.889249957275391	0.20290859069824219	0.017357962036132813	2.635955810546875	-3.856658935546875	-0.8544921875	9.809044201660155	0.23223756103515625	0.061650692749023434	0.461578369140625	-4.856109619140625	-3.2196044921875	10.001777435302733	0.4686649749755859	-0.258573779296875	2.57110595703125	-4.657745361328125	-1.708984375	Gen2|Enabled|Noise|0.0|10.0|1668
8	0.032	0.0	0.0	0.0	0.0	4.464	4.5360000000000005	4.539	4.458	9.861118087768554	0.1592144104003906	0.03411737365722656	2.544403076171875	-3.841400146484375	-0.762939453125	9.794678991699218	0.2136824981689453	0.09038111267089843	0.6103515625	-4.985809326171875	-3.078460693359375	9.975441217041014	0.45070846252441404	-0.21787235107421873	2.796173095703125	-4.79888916015625	-1.796722412109375	Gen3|Enabled|Noise|0.0|10.0|128
9	0.036000000000000004	0.0	0.0	0.0	0.0	4.449	4.5360000000000005	4.533	4.4670000000000005	9.83238766784668	0.12330138549804687	0.04967968444824218	2.407073974609375	-3.71551513671875	-0.9918212890625	9.771335525512695	0.16759411621093748	0.1466448516845703	0.682830810546875	-4.901885986328125	-3.261566162109375	9.974244116210937	0.4261678955078125	-0.1849520782470703	2.704620361328125	-4.47845458984375	-1.64794921875	Gen4|Enabled|Noise|0.0|10.0|128
10	0.04	0.0	0.0	0.0	0.0	4.4670000000000005	4.539	4.542	4.449	9.819219558715819	0.1005564697265625	0.054468087768554684	2.15911865234375	-3.894805908203125	-0.79345703125	9.773131176757811	0.1292868896484375	0.13287819213867186	0.579833984375	-4.85992431640625	-3.261566162109375	9.970652813720703	0.35793314819335936	-0.17417817077636719	2.460479736328125	-4.5013427734375	-1.5716552734375	Ctrl|Disabled
11	0.044	0.0	0.0	0.0	0.0	4.4670000000000005	4.539	4.539	4.416	9.850344180297851	0.08978256225585937	0.04189852905273437	2.2430419921875	-3.59344482421875	-0.732421875	9.781510882568359	0.1406593475341797	0.13646949462890623	0.579833984375	-4.9896240234375	-3.170013427734375	9.976638317871092	0.38367081604003905	-0.16759411621093748	2.5634765625	-4.7760009765625	-1.789093017578125	
12	0.048	0.0	0.0	0.0	0.0	4.476	4.5360000000000005	4.5360000000000005	4.413	9.858125335693359	0.0987608184814453	0.055066638183593745	2.437591552734375	-3.65447998046875	-0.98419189453125	9.78629928588867	0.14245499877929688	0.1514332550048828	0.652313232421875	-5.207061767578125	-3.326416015625	9.97184991455078	0.3752911102294922	-0.13467384338378904	2.777099609375	-4.47845458984375	-1.659393310546875	
13	0.052000000000000005	0.0	0.0	0.0	0.0	4.476	4.53	4.539	4.449	9.854534033203125	0.059256491088867186	0.07541735229492187	2.437591552734375	-3.60870361328125	-0.865936279296875	9.78689783630371	0.10474632263183593	0.16759411621093748	0.4730224609375	-4.95147705078125	-3.040313720703125	9.976638317871092	0.3597287994384765	-0.1227028350830078	2.43377685546875	-4.58526611328125	-1.667022705078125	
14	0.056	0.0	0.0	0.0	0.0	4.461	4.539	4.542	4.452	9.853336932373047	0.040701428222656245	0.086191259765625	2.536773681640625	-3.82232666015625	-0.77056884765625	9.783905084228515	0.08140285644531249	0.17956512451171874	0.579833984375	-4.802703857421875	-3.200531005859375	9.988609326171874	0.32142157287597656	-0.11252747802734374	2.445220947265625	-4.726409912109375	-1.7852783203125	
15	0.06	0.0	0.0	0.0	0.0	4.461	4.5360000000000005	4.5360000000000005	4.461	9.859322436523437	0.05746083984375	0.08499415893554688	2.567291259765625	-3.8299560546875	-0.919342041015625	9.775525378417969	0.09696516723632811	0.1945288848876953	0.579833984375	-5.130767822265625	-3.276824951171875	9.974842666625976	0.32441432495117184	-0.12689268798828124	2.590179443359375	-4.650115966796875	-1.842498779296875	
16	0.064	0.0	0.0	0.0	0.0	4.449	4.539	4.524	4.473	9.865906491088866	0.08499415893554688	0.07900865478515624	2.719879150390625	-3.749847412109375	-0.789642333984375	9.785102185058593	0.12988544006347655	0.19333178405761717	0.492095947265625	-4.962921142578125	-3.1585693359375	9.969455712890625	0.364517202758789	-0.13826514587402344	2.399444580078125	-4.69207763671875	-1.743316650390625	
17	0.068	0.0	0.0	0.0	0.0	4.473	4.539	4.542	4.425	9.872490545654296	0.08319850769042968	0.07601590270996093	2.34222412109375	-3.604888916015625	-0.820159912109375	9.789890588378906	0.12868833923339842	0.19213468322753904	0.4730224609375	-5.001068115234375	-3.204345703125	9.97843396911621	0.36212300109863277	-0.13766659545898435	2.613067626953125	-4.5318603515625	-1.91497802734375	
18	0.07200000000000001	0.0	0.0	0.0	0.0	4.47	4.5360000000000005	4.5360000000000005	4.407	9.867103591918944	0.052073886108398436	0.09038111267089843	2.44140625	-3.70025634765625	-0.637054443359375	9.803058697509766	0.09217676391601562	0.19931728820800781	0.659942626953125	-5.0201416015625	-3.2806396484375	9.992799179077148	0.3280056274414062	-0.14125789794921875	2.452850341796875	-4.566192626953125	-1.773834228515625	
19	0.076	0.0	0.0	0.0	0.0	4.476	4.533	4.539	4.44	9.847351428222655	0.04967968444824218	0.1005564697265625	2.44140625	-3.887176513671875	-0.827789306640625	9.78689783630371	0.08798691101074219	0.20769699401855468	0.5950927734375	-5.016326904296875	-3.292083740234375	9.987412225341796	0.3274070770263672	-0.12569558715820311	2.628326416015625	-4.703521728515625	-1.705169677734375	
20	0.08	0.0	0.0	0.0	0.0	4.4670000000000005	4.542	4.542	4.455	9.842563024902343	0.058657940673828124	0.10654197387695312	2.559661865234375	-3.76129150390625	-0.77056884765625	9.781510882568359	0.11791443176269531	0.19393033447265623	0.72479248046875	-4.79888916015625	-3.246307373046875	9.976039767456054	0.3477577911376953	-0.1304839904785156	2.685546875	-4.558563232421875	-1.789093017578125	
21	0.084	0.0	0.0	0.0	0.0	4.473	4.539	4.539	4.458	9.859322436523437	0.08259995727539061	0.07122749938964844	2.50244140625	-3.688812255859375	-0.926971435546875	9.780912332153319	0.12689268798828124	0.18854338073730467	0.766754150390625	-4.810333251953125	-3.314971923828125	9.988609326171874	0.3597287994384765	-0.17357962036132812	2.696990966796875	-4.886627197265625	-1.705169677734375	
22	0.088	0.0	0.0	0.0	0.0	4.455	4.539	4.5360000000000005	4.473	9.853336932373047	0.09935936889648436	0.06284779357910156	2.483367919921875	-3.753662109375	-0.904083251953125	9.782707983398437	0.14484920043945312	0.17776947326660156	0.67901611328125	-5.14984130859375	-3.215789794921875	9.968857162475585	0.37289690856933594	-0.17836802368164062	2.66265869140625	-4.5623779296875	-1.735687255859375	
23	0.092	0.0	0.0	0.0	0.0	4.473	4.533	4.542	4.44	9.842563024902343	0.10594342346191406	0.06584054565429687	2.323150634765625	-3.971099853515625	-0.823974609375	9.784503634643555	0.15682020874023436	0.17357962036132812	0.560760498046875	-4.901885986328125	-3.15093994140625	9.97903251953125	0.39324762268066404	-0.17357962036132812	2.460479736328125	-4.69970703125	-1.781463623046875	
24	0.096	0.0	0.0	0.0	0.0	4.47	4.539	4.539	4.4190000000000005	9.860519537353515	0.10175357055664062	0.07062894897460938	2.55584716796875	-3.711700439453125	-0.591278076171875	9.78629928588867	0.1484405029296875	0.18734627990722655	0.579833984375	-5.069732666015625	-3.23486328125	9.97783541870117	0.39743747558593745	-0.17238251953125	2.567291259765625	-4.49371337890625	-1.6937255859375	
25	0.1	0.0	0.0	0.0	0.0	4.479	4.5360000000000005	4.539	4.428	9.861716638183593	0.12988544006347655	0.0796072052001953	2.66265869140625	-4.1656494140625	-1.1138916015625	9.798270294189452	0.17058686828613281	0.18734627990722655	0.51116943359375	-4.886627197265625	-3.27301025390625	9.986215124511718	0.40462008056640625	-0.18076222534179687	2.716064453125	-4.657745361328125	-1.972198486328125	
26	0.10400000000000001	0.0	0.0	0.0	0.0	4.473	4.527	4.542	4.449	9.871293444824218	0.17836802368164062	0.06584054565429687	2.346038818359375	-3.711700439453125	-0.81634521484375	9.787496386718749	0.2346317626953125	0.16519991455078123	0.54931640625	-5.054473876953125	-3.21197509765625	9.970054263305663	0.46028526916503903	-0.19393033447265623	2.8076171875	-4.474639892578125	-1.758575439453125	
27	0.108	0.0	0.0	0.0	0.0	4.47	4.542	4.542	4.461	9.87608184814453	0.19812018737792966	0.05027823486328125	2.353668212890625	-3.7841796875	-0.8697509765625	9.79348189086914	0.23702596435546874	0.1592144104003906	0.54931640625	-5.24139404296875	-3.23486328125	9.973047015380859	0.46148236999511716	-0.20290859069824219	2.567291259765625	-4.79888916015625	-1.689910888671875	
28	0.112	0.0	0.0	0.0	0.0	4.458	4.539	4.539	4.47	9.868899243164062	0.1849520782470703	0.06344634399414062	2.277374267578125	-3.765106201171875	-0.823974609375	9.797073193359374	0.23104046020507812	0.14544775085449219	0.812530517578125	-5.157470703125	-3.368377685546875	9.991003527832031	0.45669396667480466	-0.19812018737792966	2.55584716796875	-4.650115966796875	-1.857757568359375	
29	0.116	0.0	0.0	0.0	0.0	4.47	4.539	4.545	4.458	9.859920986938477	0.19033903198242186	0.05327098693847656	2.34222412109375	-3.849029541015625	-0.591278076171875	9.783306533813477	0.2376245147705078	0.16041151123046873	0.499725341796875	-5.04302978515625	-3.10516357421875	9.983820922851562	0.45968671875	-0.16998831787109375	2.69317626953125	-4.856109619140625	-1.6632080078125	
30	0.12	0.0	0.0	0.0	0.0	4.47	4.539	4.539	4.425	9.848548529052733	0.19871873779296872	0.04249707946777344	2.536773681640625	-3.8909912109375	-0.720977783203125	9.771335525512695	0.24839842224121092	0.17896657409667968	0.48065185546875	-5.1422119140625	-3.15093994140625	9.982025271606444	0.47105917663574215	-0.17178396911621094	2.532958984375	-4.669189453125	-1.922607421875	
31	0.124	0.0	0.0	0.0	0.0	4.482	4.5360000000000005	4.539	4.4190000000000005	9.848548529052733	0.21128829650878905	0.023343466186523436	2.170562744140625	-3.589630126953125	-0.720977783203125	9.777919580078125	0.2537853759765625	0.16998831787109375	0.52642822265625	-4.993438720703125	-3.082275390625	9.969455712890625	0.4740519287109375	-0.17357962036132812	2.597808837890625	-4.69970703125	-1.85394287109375	
32	0.128	0.0	0.0	0.0	0.0	4.476	4.533	4.542	4.458	9.853935482788085	0.2280477081298828	0.013766659545898436	2.54058837890625	-3.82232666015625	-0.8697509765625	9.777321029663085	0.27293898925781246	0.1592144104003906	0.652313232421875	-4.6844482421875	-3.162384033203125	9.962871658325195	0.4896142395019531	-0.16819266662597654	2.5787353515625	-4.70733642578125	-1.79290771484375	
33	0.132	0.0	0.0	0.0	0.0	4.4670000000000005	4.545	4.542	4.461	9.840168823242188	0.2328361114501953	0.023343466186523436	2.582550048828125	-3.96728515625	-0.7781982421875	9.783306533813477	0.28490999755859375	0.16460136413574217	0.553131103515625	-4.962921142578125	-3.25775146484375	9.96047745666504	0.5063736511230469	-0.1753752716064453	2.58636474609375	-4.749298095703125	-1.766204833984375	
34	0.136	0.0	0.0	0.0	0.0	4.47	4.539	4.539	4.464	9.847949978637695	0.2376245147705078	0.020350714111328123	2.716064453125	-3.787994384765625	-0.827789306640625	9.783905084228515	0.2819172454833984	0.1562216583251953	0.644683837890625	-4.974365234375	-3.238677978515625	9.975441217041014	0.5165490081787109	-0.19153613281249998	2.651214599609375	-4.8065185546875	-1.94549560546875	
35	0.14	0.0	0.0	0.0	0.0	4.449	4.539	4.533	4.476	9.859920986938477	0.24959552307128904	0.028131869506835935	2.6397705078125	-4.032135009765625	-0.91552734375	9.78689783630371	0.29269115295410153	0.1484405029296875	0.48828125	-5.001068115234375	-3.2958984375	9.968258612060547	0.5327098693847656	-0.19812018737792966	2.84576416015625	-4.791259765625	-1.708984375	
36	0.14400000000000002	0.0	0.0	0.0	0.0	4.476	4.545	4.545	4.434	9.871891995239258	0.26815058593749996	0.029328970336914062	2.532958984375	-3.765106201171875	-0.850677490234375	9.788693487548828	0.31663316955566406	0.14305354919433594	0.54168701171875	-4.9285888671875	-3.4332275390625	9.97783541870117	0.5482721801757812	-0.21009119567871093	2.735137939453125	-4.66156005859375	-1.8310546875	
37	0.148	0.0	0.0	0.0	0.0	4.476	4.542	4.542	4.4190000000000005	9.865906491088866	0.2693476867675781	0.02154781494140625	2.66265869140625	-3.6773681640625	-0.60272216796875	9.78629928588867	0.31543606872558594	0.15502455749511718	0.812530517578125	-5.0811767578125	-3.0059814453125	9.97244846496582	0.5488707305908203	-0.21607669982910155	2.76947021484375	-4.6844482421875	-1.590728759765625	
38	0.152	0.0	0.0	0.0	0.0	4.476	4.539	4.542	4.446	9.87069489440918	0.25139117431640623	0.0143652099609375	2.613067626953125	-3.8299560546875	-0.919342041015625	9.794678991699218	0.29089550170898437	0.13108254089355467	0.591278076171875	-5.07354736328125	-3.28826904296875	9.986215124511718	0.5231330627441406	-0.22864625854492185	2.61688232421875	-4.543304443359375	-1.811981201171875	
39	0.156	0.0	0.0	0.0	0.0	4.473	4.545	4.548	4.464	9.868899243164062	0.2537853759765625	0.014963760375976562	2.51007080078125	-3.60870361328125	-0.896453857421875	9.7928833404541	0.2885013000488281	0.1274912384033203	0.55694580078125	-4.76837158203125	-3.24249267578125	9.976638317871092	0.5201403106689453	-0.2346317626953125	2.62451171875	-4.8980712890625	-1.811981201171875	
40	0.16	0.0	0.0	0.0	0.0	4.476	4.545	4.545	4.464	9.840767373657226	0.23822306518554687	0.020949264526367185	2.468109130859375	-3.719329833984375	-0.797271728515625	9.773131176757811	0.28431144714355466	0.1322796417236328	0.705718994140625	-5.06591796875	-3.36456298828125	9.95389340209961	0.5207388610839844	-0.22505495605468748	2.64739990234375	-4.64630126953125	-1.678466796875	
41	0.164	0.0	0.0	0.0	0.0	4.455	4.545	4.539	4.482	9.847351428222655	0.21787235107421873	0.016759411621093748	2.4261474609375	-3.719329833984375	-0.759124755859375	9.779116680908203	0.26695348510742184	0.14185644836425781	0.545501708984375	-4.913330078125	-3.18145751953125	9.956886154174803	0.4991910461425781	-0.23582886352539062	2.5482177734375	-4.49371337890625	-1.85394287109375	
42	0.168	0.0	0.0	0.0	0.0	4.482	4.545	4.548	4.452	9.855731134033203	0.18555062866210936	0.022744915771484374	2.376556396484375	-3.79180908203125	-0.66375732421875	9.781510882568359	0.23882161560058593	0.14006079711914063	0.507354736328125	-5.176544189453125	-3.200531005859375	9.976638317871092	0.4836287353515625	-0.22505495605468748	2.49481201171875	-4.749298095703125	-1.598358154296875	
43	0.17200000000000001	0.0	0.0	0.0	0.0	4.479	4.545	4.545	4.425	9.854534033203125	0.18614917907714842	0.044292730712890624	2.414703369140625	-3.940582275390625	-0.865936279296875	9.783306533813477	0.21188684692382811	0.14604630126953125	0.69427490234375	-4.985809326171875	-3.177642822265625	9.988609326171874	0.45549686584472654	-0.20051438903808594	2.67791748046875	-4.5318603515625	-1.720428466796875	
44	0.176	0.0	0.0	0.0	0.0	4.482	4.542	4.545	4.437	9.85752678527832	0.15442600708007811	0.037110125732421874	2.4566650390625	-3.0670166015625	-0.843048095703125	9.787496386718749	0.19812018737792966	0.1592144104003906	0.629425048828125	-5.0201416015625	-3.131866455078125	9.982025271606444	0.4381389038085937	-0.19812018737792966	2.6397705078125	-4.46319580078125	-1.54876708984375	
45	0.18	0.0	0.0	0.0	0.0	4.488	4.533	4.548	4.464	9.86291373901367	0.13646949462890623	0.033518823242187495	2.490997314453125	-3.82232666015625	-0.690460205078125	9.798270294189452	0.19153613281249998	0.17657237243652343	0.293731689453125	-4.81414794921875	-3.0670166015625	9.986813674926758	0.4177881896972656	-0.19393033447265623	2.471923828125	-4.795074462890625	-1.773834228515625	
46	0.184	0.0	0.0	0.0	0.0	4.476	4.548	4.548	4.473	9.85094273071289	0.13108254089355467	0.05985504150390625	2.35748291015625	-3.8604736328125	-0.919342041015625	9.787496386718749	0.16460136413574217	0.18854338073730467	0.629425048828125	-5.138397216796875	-3.25775146484375	9.968857162475585	0.39923312683105466	-0.18555062866210936	2.567291259765625	-4.428863525390625	-1.77764892578125	
47	0.188	0.0	0.0	0.0	0.0	4.464	4.545	4.545	4.479	9.861118087768554	0.09696516723632811	0.07601590270996093	2.445220947265625	-3.97491455078125	-0.835418701171875	9.789890588378906	0.14245499877929688	0.19512743530273435	0.7171630859375	-4.932403564453125	-3.34930419921875	9.970054263305663	0.3746925598144531	-0.17417817077636719	2.552032470703125	-4.741668701171875	-1.708984375	
48	0.192	0.0	0.0	0.0	0.0	4.479	4.548	4.5360000000000005	4.464	9.867702142333984	0.06643909606933593	0.07781155395507812	2.590179443359375	-3.631591796875	-0.843048095703125	9.795277542114258	0.10893617553710937	0.20470424194335937	0.598907470703125	-4.730224609375	-3.124237060546875	9.98501802368164	0.3363853332519531	-0.15322890625	2.475738525390625	-4.486083984375	-1.60980224609375	
49	0.196	0.0	0.0	0.0	0.0	4.482	4.548	4.548	4.434	9.861716638183593	0.04608838195800781	0.06584054565429687	2.399444580078125	-3.726959228515625	-0.701904296875	9.785102185058593	0.09337386474609374	0.19991583862304688	0.7171630859375	-4.680633544921875	-3.23486328125	9.981426721191406	0.3190273712158203	-0.14484920043945312	2.51007080078125	-4.756927490234375	-1.86920166015625	
50	0.2	0.0	0.0	0.0	0.0	4.485	4.545	4.545	4.428	9.85692823486328	0.04249707946777344	0.0796072052001953	2.544403076171875	-3.59344482421875	-0.682830810546875	9.785102185058593	0.07841010437011718	0.2184709014892578	0.736236572265625	-4.82177734375	-3.139495849609375	9.97903251953125	0.31663316955566406	-0.13347674255371092	2.685546875	-4.489898681640625	-1.766204833984375	
51	0.20400000000000001	0.0	0.0	0.0	0.0	4.488	4.539	4.548	4.461	9.855132583618163	0.03232172241210937	0.09457096557617187	2.513885498046875	-3.757476806640625	-0.820159912109375	9.785102185058593	0.07062894897460938	0.2184709014892578	0.553131103515625	-4.82177734375	-3.143310546875	9.97903251953125	0.31483751831054685	-0.12988544006347655	2.925872802734375	-4.72259521484375	-1.735687255859375	
52	0.20800000000000002	0.0	0.0	0.0	0.0	4.476	4.551	4.551	4.47	9.85752678527832	0.012569558715820313	0.08379705810546874	2.407073974609375	-4.00543212890625	-0.946044921875	9.78629928588867	0.051475335693359374	0.21906945190429686	0.911712646484375	-5.130767822265625	-3.25775146484375	9.989806427001952	0.28969840087890625	-0.13347674255371092	2.613067626953125	-4.73785400390625	-1.80816650390625	
53	0.212	0.0	0.0	0.0	0.0	4.476	4.548	4.545	4.47	9.85692823486328	0.022744915771484374	0.08678981018066406	2.410888671875	-3.643035888671875	-0.881195068359375	9.783905084228515	0.04967968444824218	0.21128829650878905	0.682830810546875	-5.115509033203125	-3.1280517578125	9.97783541870117	0.28909985046386716	-0.14305354919433594	2.841949462890625	-4.589080810546875	-1.800537109375	
54	0.216	0.0	0.0	0.0	0.0	4.455	4.548	4.542	4.485	9.866505041503906	0.03172317199707031	0.08978256225585937	2.41851806640625	-3.421783447265625	-0.66375732421875	9.7928833404541	0.06883329772949218	0.20350714111328125	0.80108642578125	-5.2337646484375	-3.15093994140625	9.995193380737303	0.2980781066894531	-0.14724340209960937	2.73895263671875	-4.581451416015625	-1.972198486328125	
55	0.22	0.0	0.0	0.0	0.0	4.485	4.548	4.551	4.449	9.87009634399414	0.03651157531738281	0.09217676391601562	2.475738525390625	-3.772735595703125	-0.843048095703125	9.791686239624022	0.07062894897460938	0.2041056915283203	0.453948974609375	-4.8370361328125	-3.28826904296875	9.991003527832031	0.30466216125488277	-0.1610100616455078	2.79998779296875	-4.6539306640625	-1.64794921875	
56	0.224	0.0	0.0	0.0	0.0	4.485	4.548	4.548	4.428	9.867702142333984	0.044891281127929686	0.09038111267089843	2.750396728515625	-3.879547119140625	-0.850677490234375	9.78629928588867	0.08798691101074219	0.21009119567871093	0.614166259765625	-4.756927490234375	-3.10516357421875	9.996989031982421	0.3178302703857422	-0.16819266662597654	2.651214599609375	-4.669189453125	-1.678466796875	
57	0.228	0.0	0.0	0.0	0.0	4.482	4.548	4.548	4.446	9.861716638183593	0.06045359191894531	0.09516951599121093	2.414703369140625	-3.7384033203125	-0.850677490234375	9.78629928588867	0.09756371765136718	0.2059013427734375	0.690460205078125	-4.947662353515625	-3.2196044921875	9.991003527832031	0.32441432495117184	-0.16280571289062498	2.483367919921875	-4.75311279296875	-1.636505126953125	
58	0.232	0.0	0.0	0.0	0.0	4.485	4.551	4.551	4.47	9.87009634399414	0.061650692749023434	0.09038111267089843	2.605438232421875	-3.7994384765625	-0.86212158203125	9.789890588378906	0.10295067138671875	0.18734627990722655	0.37384033203125	-5.008697509765625	-3.238677978515625	9.994594830322265	0.3315969299316406	-0.16699556579589842	2.6397705078125	-4.802703857421875	-1.949310302734375	
59	0.23600000000000002	0.0	0.0	0.0	0.0	4.479	4.551	4.551	4.47	9.864709390258788	0.07062894897460938	0.08379705810546874	2.780914306640625	-4.0130615234375	-0.904083251953125	9.797073193359374	0.11791443176269531	0.1801636749267578	0.49591064453125	-5.2032470703125	-3.24249267578125	9.98561657409668	0.3507505432128906	-0.1771709228515625	2.685546875	-4.749298095703125	-1.57928466796875	
60	0.24	0.0	0.0	0.0	0.0	4.473	4.545	4.548	4.485	9.861716638183593	0.09457096557617187	0.07781155395507812	2.475738525390625	-3.72314453125	-0.9765625	9.783306533813477	0.14006079711914063	0.19093758239746092	0.629425048828125	-5.10406494140625	-3.070831298828125	9.974842666625976	0.3716998077392578	-0.17118541870117188	2.66265869140625	-4.5013427734375	-1.93023681640625	
61	0.244	0.0	0.0	0.0	0.0	4.485	4.551	4.554	4.464	9.853935482788085	0.11671733093261719	0.07422025146484375	2.44903564453125	-3.73077392578125	-0.606536865234375	9.783905084228515	0.16041151123046873	0.19093758239746092	0.57220458984375	-5.01251220703125	-3.01361083984375	9.97903251953125	0.3872621185302734	-0.16519991455078123	2.506256103515625	-4.764556884765625	-1.621246337890625	
62	0.248	0.0	0.0	0.0	0.0	4.485	4.551	4.551	4.437	9.859322436523437	0.1227028350830078	0.06284779357910156	2.61688232421875	-4.001617431640625	-0.850677490234375	9.785700735473633	0.15682020874023436	0.19931728820800781	0.469207763671875	-5.04302978515625	-3.01361083984375	9.97184991455078	0.4004302276611328	-0.15682020874023436	2.288818359375	-4.425048828125	-1.750946044921875	
63	0.252	0.0	0.0	0.0	0.0	4.494	4.548	4.548	4.437	9.86291373901367	0.14484920043945312	0.05985504150390625	2.513885498046875	-3.77655029296875	-0.865936279296875	9.787496386718749	0.18614917907714842	0.18914193115234373	0.858306884765625	-5.19561767578125	-3.265380859375	9.968857162475585	0.412401235961914	-0.1580173095703125	2.376556396484375	-4.547119140625	-1.689910888671875	
64	0.256	0.0	0.0	0.0	0.0	4.491	4.542	4.551	4.4670000000000005	9.868300692749022	0.1640028137207031	0.059256491088867186	2.506256103515625	-3.94439697265625	-0.8697509765625	9.789890588378906	0.21248539733886718	0.19153613281249998	0.6866455078125	-5.031585693359375	-3.292083740234375	9.976638317871092	0.4447229583740234	-0.16639701538085935	2.582550048828125	-4.726409912109375	-1.758575439453125	
65	0.26	0.0	0.0	0.0	0.0	4.485	4.554	4.551	4.476	9.860519537353515	0.19213468322753904	0.04608838195800781	2.635955810546875	-3.574371337890625	-0.705718994140625	9.795876092529296	0.229843359375	0.18315642700195311	0.7781982421875	-4.993438720703125	-3.31878662109375	9.983820922851562	0.469263525390625	-0.17657237243652343	2.51007080078125	-4.50897216796875	-1.712799072265625	
66	0.264	0.0	0.0	0.0	0.0	4.479	4.551	4.548	4.482	9.860519537353515	0.19632453613281248	0.040102877807617184	2.414703369140625	-3.673553466796875	-0.9613037109375	9.783306533813477	0.2507926239013672	0.19632453613281248	0.247955322265625	-4.940032958984375	-2.956390380859375	9.97903251953125	0.47584757995605464	-0.17238251953125	2.712249755859375	-4.669189453125	-1.96075439453125	
67	0.268	0.0	0.0	0.0	0.0	4.4670000000000005	4.554	4.542	4.491	9.85752678527832	0.21009119567871093	0.04608838195800781	2.330780029296875	-3.726959228515625	-0.759124755859375	9.782707983398437	0.2753331909179687	0.17657237243652343	0.270843505859375	-4.810333251953125	-3.009796142578125	9.970652813720703	0.5015852478027344	-0.16460136413574217	2.704620361328125	-4.5623779296875	-1.674652099609375	
68	0.272	0.0	0.0	0.0	0.0	4.491	4.551	4.554	4.449	9.85692823486328	0.24061726684570311	0.04129997863769531	2.5482177734375	-3.810882568359375	-0.9307861328125	9.784503634643555	0.2902969512939453	0.17597382202148437	0.614166259765625	-5.046844482421875	-3.33404541015625	9.962273107910155	0.5237316131591797	-0.17477672119140625	2.780914306640625	-4.688262939453125	-1.941680908203125	
69	0.276	0.0	0.0	0.0	0.0	4.494	4.551	4.551	4.431	9.868899243164062	0.2549824768066406	0.03591302490234375	2.574920654296875	-3.86810302734375	-0.888824462890625	9.788693487548828	0.30346506042480464	0.17357962036132812	0.514984130859375	-4.978179931640625	-3.0517578125	9.97244846496582	0.5309142181396485	-0.19512743530273435	2.460479736328125	-4.459381103515625	-1.79290771484375	
70	0.28	0.0	0.0	0.0	0.0	4.488	4.545	4.554	4.461	9.859322436523437	0.2693476867675781	0.028730419921875	2.460479736328125	-3.71551513671875	-0.96893310546875	9.788693487548828	0.3082534637451172	0.15263035583496093	0.408172607421875	-4.9285888671875	-3.12042236328125	9.968258612060547	0.5470750793457031	-0.20171148986816406	2.765655517578125	-4.61578369140625	-1.796722412109375	
71	0.28400000000000003	0.0	0.0	0.0	0.0	4.488	4.554	4.554	4.476	9.847351428222655	0.27174188842773433	0.0383072265625	2.40325927734375	-3.658294677734375	-0.762939453125	9.783905084228515	0.316034619140625	0.1562216583251953	0.606536865234375	-5.107879638671875	-3.246307373046875	9.97184991455078	0.5596446380615234	-0.19931728820800781	2.613067626953125	-4.63104248046875	-1.76239013671875	
72	0.28800000000000003	0.0	0.0	0.0	0.0	4.485	4.551	4.551	4.473	9.853336932373047	0.2759317413330078	0.029328970336914062	2.55584716796875	-3.60870361328125	-0.957489013671875	9.782109432983399	0.3268085266113281	0.17118541870117188	0.70953369140625	-4.932403564453125	-3.047943115234375	9.969455712890625	0.5530605834960938	-0.19632453613281248	2.758026123046875	-4.76837158203125	-1.667022705078125	
73	0.292	0.0	0.0	0.0	0.0	4.4670000000000005	4.551	4.545	4.491	9.850344180297851	0.2747346405029297	0.03411737365722656	2.796173095703125	-3.810882568359375	-0.751495361328125	9.78629928588867	0.32620997619628905	0.15682020874023436	0.61798095703125	-5.0811767578125	-3.299713134765625	9.970652813720703	0.5632359405517577	-0.21068974609375	2.552032470703125	-4.75311279296875	-1.9378662109375	
74	0.296	0.0	0.0	0.0	0.0	4.491	4.554	4.554	4.461	9.859322436523437	0.2819172454833984	0.0430956298828125	2.567291259765625	-3.71551513671875	-0.782012939453125	9.785102185058593	0.3327940307617187	0.1484405029296875	0.701904296875	-4.795074462890625	-3.35693359375	9.96586441040039	0.5674257934570313	-0.21308394775390624	2.66265869140625	-4.634857177734375	-1.605987548828125	
75	0.3	0.0	0.0	0.0	0.0	4.491	4.554	4.554	4.434	9.864709390258788	0.2807201446533203	0.040102877807617184	2.529144287109375	-3.631591796875	-0.850677490234375	9.78689783630371	0.32142157287597656	0.15442600708007811	0.8544921875	-5.14984130859375	-3.3721923828125	9.973645565795898	0.5566518859863281	-0.2154781494140625	2.460479736328125	-4.558563232421875	-1.64031982421875	
76	0.304	0.0	0.0	0.0	0.0	4.494	4.551	4.551	4.449	9.867103591918944	0.26755203552246093	0.04249707946777344	2.422332763671875	-3.871917724609375	-0.827789306640625	9.788693487548828	0.31004911499023435	0.15741875915527342	0.568389892578125	-5.008697509765625	-2.910614013671875	9.97184991455078	0.5470750793457031	-0.21487959899902342	2.826690673828125	-4.608154296875	-1.850128173828125	
77	0.308	0.0	0.0	0.0	0.0	4.491	4.542	4.554	4.47	9.861716638183593	0.24361001892089842	0.04369418029785156	2.498626708984375	-3.925323486328125	-0.789642333984375	9.778518130493163	0.29448680419921874	0.15682020874023436	0.759124755859375	-4.894256591796875	-3.154754638671875	9.97184991455078	0.5315127685546874	-0.20769699401855468	2.51007080078125	-4.45556640625	-1.743316650390625	
78	0.312	0.0	0.0	0.0	0.0	4.485	4.554	4.554	4.479	9.859322436523437	0.2376245147705078	0.04668693237304687	2.61688232421875	-3.772735595703125	-0.90789794921875	9.777321029663085	0.28371289672851563	0.16639701538085935	0.728607177734375	-5.229949951171875	-3.223419189453125	9.970054263305663	0.5141548065185546	-0.19812018737792966	2.74658203125	-4.5928955078125	-1.7547607421875	
79	0.316	0.0	0.0	0.0	0.0	4.476	4.551	4.554	4.488	9.85692823486328	0.21787235107421873	0.040701428222656245	2.468109130859375	-3.63922119140625	-0.67901611328125	9.782707983398437	0.2537853759765625	0.17238251953125	0.57220458984375	-4.9591064453125	-3.143310546875	9.97903251953125	0.49200844116210934	-0.1849520782470703	2.84576416015625	-4.5928955078125	-1.67083740234375	
80	0.32	0.0	0.0	0.0	0.0	4.488	4.554	4.542	4.476	9.86411083984375	0.1927332336425781	0.04548983154296875	2.4871826171875	-3.8299560546875	-0.81634521484375	9.78689783630371	0.23523031311035156	0.17118541870117188	0.37384033203125	-4.96673583984375	-3.31878662109375	9.982623822021484	0.46208092041015625	-0.18076222534179687	2.582550048828125	-4.85992431640625	-1.819610595703125	
81	0.324	0.0	0.0	0.0	0.0	4.491	4.554	4.557	4.446	9.849745629882811	0.15981296081542967	0.05746083984375	2.50244140625	-3.665924072265625	-0.90789794921875	9.782109432983399	0.2088940948486328	0.18854338073730467	0.7476806640625	-4.98199462890625	-3.078460693359375	9.980229620361328	0.42975919799804685	-0.14963760375976562	2.61688232421875	-4.6234130859375	-1.895904541015625	
82	0.328	0.0	0.0	0.0	0.0	4.497	4.551	4.551	4.44	9.85692823486328	0.143652099609375	0.06045359191894531	2.5177001953125	-3.94439697265625	-0.8392333984375	9.783905084228515	0.18614917907714842	0.20171148986816406	0.522613525390625	-5.035400390625	-3.204345703125	9.976638317871092	0.4129997863769531	-0.1562216583251953	2.593994140625	-4.604339599609375	-1.659393310546875	
83	0.332	0.0	0.0	0.0	0.0	4.494	4.548	4.557	4.473	9.861716638183593	0.1149216796875	0.06703764648437499	2.399444580078125	-3.7841796875	-0.80108642578125	9.78629928588867	0.15083470458984374	0.20769699401855468	0.46539306640625	-4.779815673828125	-3.41796875	9.986813674926758	0.3962403747558593	-0.14305354919433594	2.658843994140625	-4.60052490234375	-1.804351806640625	
84	0.336	0.0	0.0	0.0	0.0	4.488	4.557	4.557	4.476	9.86291373901367	0.09516951599121093	0.07601590270996093	2.536773681640625	-3.887176513671875	-0.782012939453125	9.785102185058593	0.1352723937988281	0.20171148986816406	0.60272216796875	-4.970550537109375	-3.238677978515625	9.982025271606444	0.37229835815429685	-0.14305354919433594	2.887725830078125	-4.772186279296875	-1.911163330078125	
85	0.34	0.0	0.0	0.0	0.0	4.488	4.554	4.554	4.482	9.860519537353515	0.08379705810546874	0.06344634399414062	2.445220947265625	-3.84521484375	-0.9918212890625	9.787496386718749	0.12868833923339842	0.19991583862304688	0.743865966796875	-4.95147705078125	-3.383636474609375	9.986215124511718	0.34835634155273437	-0.14185644836425781	2.7313232421875	-4.444122314453125	-1.57928466796875	
86	0.34400000000000003	0.0	0.0	0.0	0.0	4.473	4.551	4.548	4.497	9.85094273071289	0.05327098693847656	0.08140285644531249	2.410888671875	-3.833770751953125	-0.84686279296875	9.787496386718749	0.10474632263183593	0.19812018737792966	0.560760498046875	-4.726409912109375	-3.1890869140625	9.981426721191406	0.3345896820068359	-0.14245499877929688	2.727508544921875	-4.6844482421875	-1.6632080078125	
87	0.34800000000000003	0.0	0.0	0.0	0.0	4.497	4.557	4.557	4.458	9.855731134033203	0.04967968444824218	0.08020575561523437	2.582550048828125	-3.627777099609375	-0.7171630859375	9.787496386718749	0.08918401184082031	0.21428104858398436	0.823974609375	-5.084991455078125	-3.093719482421875	9.980229620361328	0.3094505645751953	-0.14724340209960937	2.529144287109375	-4.467010498046875	-1.73187255859375	
88	0.352	0.0	0.0	0.0	0.0	4.497	4.554	4.557	4.44	9.855132583618163	0.03531447448730469	0.07302315063476562	2.60162353515625	-3.925323486328125	-0.86212158203125	9.787496386718749	0.08080430603027343	0.1975216369628906	0.835418701171875	-5.0506591796875	-3.208160400390625	9.989207876586914	0.30705636291503907	-0.1640028137207031	2.76947021484375	-4.344940185546875	-1.651763916015625	
89	0.356	0.0	0.0	0.0	0.0	4.494	4.551	4.554	4.455	9.859322436523437	0.03232172241210937	0.07242460021972656	2.696990966796875	-3.841400146484375	-0.83160400390625	9.785102185058593	0.07062894897460938	0.1927332336425781	0.6561279296875	-4.940032958984375	-3.246307373046875	9.98501802368164	0.3010708587646484	-0.16460136413574217	2.7008056640625	-4.64630126953125	-1.888275146484375	
90	0.36	0.0	0.0	0.0	0.0	4.494	4.557	4.557	4.479	9.85692823486328	0.028131869506835935	0.07062894897460938	2.696990966796875	-3.856658935546875	-0.514984130859375	9.783905084228515	0.06105214233398437	0.18315642700195311	0.652313232421875	-4.9285888671875	-3.25775146484375	9.99220062866211	0.29089550170898437	-0.17357962036132812	2.887725830078125	-4.791259765625	-1.708984375	
91	0.364	0.0	0.0	0.0	0.0	4.488	4.557	4.554	4.482	9.859920986938477	0.02454056701660156	0.06045359191894531	2.277374267578125	-3.50189208984375	-0.8544921875	9.787496386718749	0.06284779357910156	0.181959326171875	0.74005126953125	-5.176544189453125	-3.0517578125	9.987412225341796	0.3016694091796875	-0.1753752716064453	2.582550048828125	-4.72259521484375	-1.781463623046875	
92	0.368	0.0	0.0	0.0	0.0	4.476	4.551	4.554	4.494	9.859322436523437	0.02633621826171875	0.07362170104980469	2.60162353515625	-3.80706787109375	-0.682830810546875	9.791087689208984	0.07422025146484375	0.181959326171875	0.77056884765625	-5.096435546875	-3.204345703125	9.976638317871092	0.30406361083984373	-0.17776947326660156	2.582550048828125	-4.64630126953125	-1.880645751953125	
93	0.372	0.0	0.0	0.0	0.0	4.494	4.557	4.5600000000000005	4.47	9.859322436523437	0.032920272827148434	0.07242460021972656	2.38800048828125	-3.749847412109375	-0.92315673828125	9.787496386718749	0.07841010437011718	0.1657984649658203	0.644683837890625	-5.0811767578125	-3.1890869140625	9.979631069946288	0.316034619140625	-0.18614917907714842	2.5177001953125	-4.657745361328125	-1.735687255859375	
94	0.376	0.0	0.0	0.0	0.0	4.491	4.557	4.557	4.44	9.859322436523437	0.04189852905273437	0.06344634399414062	2.407073974609375	-3.437042236328125	-0.95367431640625	9.791087689208984	0.076614453125	0.1610100616455078	0.476837158203125	-4.940032958984375	-3.326416015625	9.987412225341796	0.3076549133300781	-0.1801636749267578	2.62451171875	-4.749298095703125	-1.73187255859375	
95	0.38	0.0	0.0	0.0	0.0	4.503	4.551	4.554	4.4430000000000005	9.86411083984375	0.044292730712890624	0.05686228942871093	2.597808837890625	-3.757476806640625	-0.67138671875	9.791686239624022	0.09157821350097656	0.17477672119140625	0.35858154296875	-4.871368408203125	-3.10516357421875	9.982025271606444	0.32142157287597656	-0.1897404815673828	2.471923828125	-4.75311279296875	-1.65557861328125	
96	0.384	0.0	0.0	0.0	0.0	4.497	4.548	4.557	4.47	9.85632968444824	0.05327098693847656	0.05327098693847656	2.521514892578125	-3.71551513671875	-0.804901123046875	9.787496386718749	0.0987608184814453	0.15981296081542967	0.743865966796875	-5.016326904296875	-3.11279296875	9.982623822021484	0.3363853332519531	-0.19093758239746092	2.658843994140625	-4.76837158203125	-1.5411376953125	
97	0.388	0.0	0.0	0.0	0.0	4.485	4.557	4.557	4.479	9.86291373901367	0.07302315063476562	0.05386953735351562	2.513885498046875	-3.50189208984375	-0.911712646484375	9.785102185058593	0.11073182678222655	0.16699556579589842	0.637054443359375	-5.0201416015625	-3.15093994140625	9.979631069946288	0.35314474487304687	-0.19393033447265623	2.788543701171875	-4.688262939453125	-1.880645751953125	
98	0.392	0.0	0.0	0.0	0.0	4.485	4.554	4.554	4.488	9.866505041503906	0.08978256225585937	0.05566518859863281	2.498626708984375	-3.803253173828125	-0.873565673828125	9.785102185058593	0.12689268798828124	0.1771709228515625	0.701904296875	-5.039215087890625	-3.326416015625	9.979631069946288	0.3699041564941406	-0.1879448303222656	2.62451171875	-4.52423095703125	-1.800537109375	
99	0.396	0.0	0.0	0.0	0.0	4.473	4.554	4.548	4.494	9.85752678527832	0.10953472595214843	0.04908113403320312	2.5482177734375	-3.826141357421875	-0.7171630859375	9.787496386718749	0.14963760375976562	0.17477672119140625	0.492095947265625	-5.1422119140625	-3.11279296875	9.988010775756836	0.39264907226562495	-0.17956512451171874	2.52532958984375	-4.489898681640625	-1.628875732421875	
100	0.4	0.0	0.0	0.0	0.0	4.494	4.557	4.557	4.455	9.864709390258788	0.12868833923339842	0.04668693237304687	2.55584716796875	-3.7689208984375	-0.8544921875	9.788693487548828	0.17058686828613281	0.17118541870117188	0.736236572265625	-5.11932373046875	-2.971649169921875	9.980229620361328	0.39863457641601563	-0.17178396911621094	2.704620361328125	-4.53948974609375	-1.83868408203125	
101	0.404	0.0	0.0	0.0	0.0	4.5	4.554	4.554	4.437	9.865307940673828	0.14544775085449219	0.044891281127929686	2.51007080078125	-3.7384033203125	-0.79345703125	9.78689783630371	0.19033903198242186	0.16220716247558592	0.591278076171875	-4.92095947265625	-3.27301025390625	9.97903251953125	0.4285620971679687	-0.17238251953125	3.063201904296875	-4.9285888671875	-2.033233642578125	
102	0.40800000000000003	0.0	0.0	0.0	0.0	4.494	4.551	4.557	4.4670000000000005	9.853336932373047	0.17058686828613281	0.033518823242187495	2.643585205078125	-3.71551513671875	-1.01470947265625	9.785102185058593	0.22445640563964842	0.17357962036132812	0.7781982421875	-4.779815673828125	-3.02886962890625	9.974842666625976	0.45489831542968745	-0.18136077575683593	2.819061279296875	-4.45556640625	-1.705169677734375	
103	0.41200000000000003	0.0	0.0	0.0	0.0	4.491	4.5600000000000005	4.557	4.479	9.852139831542969	0.20051438903808594	0.025139117431640625	2.635955810546875	-3.753662109375	-0.8544921875	9.787496386718749	0.23403321228027343	0.17178396911621094	0.81634521484375	-4.863739013671875	-3.18145751953125	9.974244116210937	0.4830301849365234	-0.18555062866210936	2.681732177734375	-4.505157470703125	-1.6326904296875	
104	0.41600000000000004	0.0	0.0	0.0	0.0	4.488	4.557	4.554	4.482	9.847949978637695	0.21308394775390624	0.04548983154296875	2.376556396484375	-3.8604736328125	-0.8544921875	9.788693487548828	0.25139117431640623	0.16879121704101563	0.6103515625	-5.0506591796875	-3.116607666015625	9.974842666625976	0.4997895965576172	-0.17597382202148437	2.811431884765625	-4.627227783203125	-1.705169677734375	
105	0.42	0.0	0.0	0.0	0.0	4.473	4.554	4.554	4.494	9.859920986938477	0.18255787658691405	0.020350714111328123	2.376556396484375	-3.795623779296875	-0.81634521484375	9.788693487548828	0.2597708801269531	0.1592144104003906	0.453948974609375	-5.184173583984375	-3.231048583984375	9.963470208740233	0.4782417816162109	-0.18614917907714842	2.742767333984375	-4.482269287109375	-1.651763916015625	
106	0.424	0.0	0.0	0.0	0.0	4.494	4.557	4.5600000000000005	4.47	9.858125335693359	0.2603694305419922	0.03411737365722656	2.475738525390625	-3.810882568359375	-0.751495361328125	9.783905084228515	0.354341845703125	0.14963760375976562	0.667572021484375	-5.123138427734375	-3.3111572265625	9.958083255004881	0.5895721588134766	-0.201112939453125	2.490997314453125	-4.55474853515625	-1.8310546875	
107	0.428	0.0	0.0	0.0	0.0	4.488	4.557	4.557	4.446	9.859322436523437	0.21607669982910155	-0.0005985504150390625	2.28118896484375	-3.612518310546875	-0.8544921875	9.784503634643555	0.28909985046386716	0.143652099609375	0.675201416015625	-4.92095947265625	-2.9144287109375	9.93414123840332	0.5189432098388671	-0.181959326171875	2.69317626953125	-4.589080810546875	-1.739501953125	
108	0.432	0.0	0.0	0.0	0.0	4.5	4.554	4.554	4.449	9.853935482788085	0.2549824768066406	0.023942016601562498	2.490997314453125	-3.826141357421875	-0.8087158203125	9.789292037963866	0.28371289672851563	0.14125789794921875	0.60272216796875	-5.06591796875	-3.391265869140625	10.001777435302733	0.4848258361816406	-0.25258827514648435	2.5482177734375	-4.528045654296875	-1.834869384765625	
109	0.436	0.0	0.0	0.0	0.0	4.494	4.545	4.557	4.473	9.880870251464843	0.28012159423828126	0.00718260498046875	2.09808349609375	-3.662109375	-0.84686279296875	9.782707983398437	0.39923312683105466	0.15741875915527342	0.675201416015625	-4.932403564453125	-3.078460693359375	9.94671079711914	0.6482300994873047	-0.15203180541992187	2.7008056640625	-4.49371337890625	-1.476287841796875	
110	0.44	0.0	0.0	0.0	0.0	4.488	4.5600000000000005	4.557	4.482	9.842563024902343	0.27293898925781246	0.06404489440917968	2.46429443359375	-3.749847412109375	-0.7781982421875	9.788094937133788	0.2825157958984375	0.15322890625	0.5035400390625	-5.18035888671875	-3.246307373046875	10.005368737792969	0.5147533569335937	-0.2472013214111328	2.532958984375	-4.8370361328125	-1.712799072265625	
111	0.444	0.0	0.0	0.0	0.0	4.482	4.554	4.554	4.488	9.828197814941406	0.297479556274414	0.11372457885742186	2.666473388671875	-3.856658935546875	-0.57220458984375	9.771335525512695	0.2920926025390625	0.21128829650878905	0.38909912109375	-4.974365234375	-3.017425537109375	9.97903251953125	0.5470750793457031	-0.19931728820800781	2.597808837890625	-4.657745361328125	-1.674652099609375	
112	0.448	0.0	0.0	0.0	0.0	4.488	4.554	4.545	4.479	9.859322436523437	0.3010708587646484	0.044891281127929686	2.18963623046875	-3.4942626953125	-0.942230224609375	9.80605144958496	0.3687070556640625	0.15382745666503905	0.60272216796875	-5.0506591796875	-3.16619873046875	10.024522351074218	0.5961562133789062	-0.2561795776367187	2.544403076171875	-4.688262939453125	-1.800537109375	
113	0.452	0.0	0.0	0.0	0.0	4.494	4.5600000000000005	4.557	4.452	9.804255798339844	0.31962592163085934	0.15382745666503905	2.47955322265625	-3.910064697265625	-0.705718994140625	9.753379013061522	0.3333925811767578	0.25917232971191406	0.640869140625	-5.157470703125	-3.215789794921875	9.956287603759765	0.651821401977539	-0.1801636749267578	2.719879150390625	-4.695892333984375	-1.46484375	
114	0.456	0.0	0.0	0.0	0.0	4.5	4.554	4.554	4.44	9.858125335693359	0.19812018737792966	0.058657940673828124	2.407073974609375	-3.80706787109375	-0.751495361328125	9.841964474487304	0.09935936889648436	0.12389993591308593	0.637054443359375	-5.222320556640625	-3.21197509765625	10.034099157714843	0.3860650177001953	-0.2567781280517578	2.70843505859375	-4.6539306640625	-2.86102294921875	
115	0.46	0.0	0.0	0.0	0.0	4.494	4.548	4.557	4.473	9.796474642944336	0.3064578125	0.1610100616455078	2.6397705078125	-3.917694091796875	-0.66375732421875	9.775525378417969	0.3687070556640625	0.2825157958984375	0.396728515625	-5.0506591796875	-3.204345703125	9.987412225341796	0.6769605194091797	-0.17238251953125	2.498626708984375	-4.428863525390625	-1.529693603515625	
116	0.464	0.0	0.0	0.0	0.0	4.488	4.5600000000000005	4.5600000000000005	4.479	9.87668039855957	0.07781155395507812	0.055066638183593745	2.13623046875	-3.48663330078125	-0.96893310546875	9.855132583618163	0.1322796417236328	0.14484920043945312	0.820159912109375	-5.06591796875	-3.246307373046875	10.041880313110351	0.40940848388671874	-0.25318682556152344	2.864837646484375	-4.61578369140625	-1.74713134765625	
117	0.468	0.0	0.0	0.0	0.0	4.488	4.554	4.554	4.479	9.792284790039062	0.2537853759765625	0.19572598571777342	3.30352783203125	-4.169464111328125	-0.690460205078125	9.766547122192382	0.26755203552246093	0.2376245147705078	0.659942626953125	-4.72259521484375	-3.223419189453125	9.983820922851562	0.5345055206298828	-0.16998831787109375	2.689361572265625	-4.611968994140625	-1.678466796875	
118	0.47200000000000003	0.0	0.0	0.0	0.0	4.473	4.554	4.548	4.497	9.888651406860351	0.017956512451171875	0.04369418029785156	1.83868408203125	-3.421783447265625	-0.904083251953125	9.880271701049804	0.05087678527832031	0.12629413757324218	0.682830810546875	-4.92095947265625	-3.173828125	10.08737014465332	0.2950853546142578	-0.2807201446533203	3.047943115234375	-4.64630126953125	-1.6326904296875	
119	0.47600000000000003	0.0	0.0	0.0	0.0	4.497	4.557	4.5600000000000005	4.464	9.865906491088866	0.15023615417480468	0.04189852905273437	2.490997314453125	-3.936767578125	-0.72479248046875	9.764152920532226	0.27952304382324217	0.23822306518554687	0.766754150390625	-5.069732666015625	-3.154754638671875	9.923965881347655	0.5548562347412109	-0.07122749938964844	2.506256103515625	-4.550933837890625	-1.819610595703125	
120	0.48	0.0	0.0	0.0	0.0	4.497	4.557	4.557	4.44	9.881468801879882	-0.047285482788085934	0.086191259765625	1.842498779296875	-3.25775146484375	-0.7476806640625	9.789292037963866	0.03232172241210937	0.19692308654785154	0.7476806640625	-5.092620849609375	-3.269195556640625	10.056844073486328	0.2041056915283203	-0.2759317413330078	3.093719482421875	-4.66156005859375	-1.689910888671875	
121	0.484	0.0	0.0	0.0	0.0	4.5	4.554	4.554	4.455	9.855731134033203	0.08080430603027343	0.03411737365722656	2.750396728515625	-3.856658935546875	-0.820159912109375	9.782707983398437	0.19812018737792966	0.23044190979003906	0.6866455078125	-4.985809326171875	-3.2196044921875	9.898826763916015	0.47764323120117186	-0.07422025146484375	2.498626708984375	-4.878997802734375	-1.865386962890625	
122	0.488	0.0	0.0	0.0	0.0	4.494	4.542	4.557	4.473	9.90181951599121	-0.08259995727539061	0.05327098693847656	1.89208984375	-3.11279296875	-0.751495361328125	9.83178911743164	-0.014963760375976562	0.15263035583496093	0.263214111328125	-4.8675537109375	-3.086090087890625	9.97244846496582	0.32920272827148434	-0.12689268798828124	2.38800048828125	-4.932403564453125	-1.88446044921875	
123	0.492	0.0	0.0	0.0	0.0	4.491	4.557	4.557	4.485	9.852139831542969	0.03591302490234375	0.040102877807617184	2.887725830078125	-3.795623779296875	-0.70953369140625	9.759364517211914	0.1514332550048828	0.23223756103515625	0.751495361328125	-5.016326904296875	-3.448486328125	9.897031112670899	0.4572925170898437	-0.052073886108398436	2.399444580078125	-4.619598388671875	-1.804351806640625	
124	0.496	0.0	0.0	0.0	0.0	4.479	4.554	4.554	4.491	9.83897172241211	0.17357962036132812	0.06823474731445311	3.08990478515625	-4.055023193359375	-0.5340576171875	9.83238766784668	-0.0909796630859375	0.1292868896484375	0.3662109375	-4.985809326171875	-3.082275390625	9.949104998779296	0.2567781280517578	-0.1292868896484375	2.3345947265625	-4.913330078125	-1.766204833984375	
125	0.5	0.0	0.0	0.0	0.0	4.491	4.557	4.5600000000000005	4.473	9.847351428222655	-0.028131869506835935	0.007781155395507812	2.880096435546875	-3.97491455078125	-0.8697509765625	9.734823950195311	0.24779987182617186	0.14544775085449219	0.560760498046875	-4.9591064453125	-3.208160400390625	9.916783276367187	0.40462008056640625	-0.08379705810546874	2.605438232421875	-4.535675048828125	-1.873016357421875	
126	0.504	0.0	0.0	0.0	0.0	4.491	4.554	4.557	4.449	9.839570272827148	0.16160861206054686	0.05087678527832031	3.124237060546875	-3.99017333984375	-0.60272216796875	9.829394915771484	-0.14425065002441406	0.10654197387695312	0.78582763671875	-5.04302978515625	-3.1890869140625	9.943718045043944	0.24660277099609373	-0.12988544006347655	2.410888671875	-5.077362060546875	-1.911163330078125	
127	0.508	0.0	0.0	0.0	0.0	4.503	4.554	4.554	4.4430000000000005	9.821015209960937	-0.03651157531738281	0.013168109130859374	2.468109130859375	-3.566741943359375	-0.865936279296875	9.707889181518555	0.2537853759765625	0.14724340209960937	0.732421875	-4.92095947265625	-3.513336181640625	9.899425314331054	0.37888241271972656	-0.1292868896484375	2.532958984375	-4.52423095703125	-1.918792724609375	
128	0.512	0.0	0.0	0.0	0.0	4.494	4.548	4.557	4.476	9.846154327392577	0.15981296081542967	0.034715924072265626	3.170013427734375	-4.150390625	-0.644683837890625	9.687538467407226	0.19213468322753904	0.24959552307128904	0.629425048828125	-5.1116943359375	-3.16619873046875	9.94730934753418	0.21607669982910155	-0.15741875915527342	2.50244140625	-4.85992431640625	-1.708984375	
129	0.516	0.0	0.0	0.0	0.0	4.494	4.5600000000000005	4.557	4.479	9.85692823486328	0.03651157531738281	0.10115502014160156	2.246856689453125	-3.726959228515625	-0.92315673828125	9.70369932861328	0.21787235107421873	0.12389993591308593	0.911712646484375	-4.85992431640625	-3.59344482421875	9.913191973876952	0.33758243408203126	-0.1274912384033203	2.635955810546875	-4.703521728515625	-1.8768310546875	
130	0.52	0.0	0.0	0.0	0.0	4.488	4.557	4.554	4.485	9.815628256225585	0.19931728820800781	0.034715924072265626	3.337860107421875	-4.360198974609375	-0.423431396484375	9.676166009521484	0.22026655273437498	0.25318682556152344	0.873565673828125	-5.18798828125	-3.04412841796875	9.822212310791015	0.5889736083984375	0.08499415893554688	2.422332763671875	-4.657745361328125	-1.811981201171875	
131	0.524	0.0	0.0	0.0	0.0	4.473	4.554	4.551	4.497	9.855731134033203	0.06584054565429687	0.09277531433105468	2.223968505859375	-3.31878662109375	-1.155853271484375	9.788094937133788	0.18854338073730467	0.21188684692382811	0.484466552734375	-4.642486572265625	-3.7078857421875	9.898826763916015	0.3711012573242187	-0.10893617553710937	2.559661865234375	-4.558563232421875	-1.964569091796875	
132	0.528	0.0	0.0	0.0	0.0	4.497	4.557	4.5600000000000005	4.458	9.896432562255859	0.09157821350097656	0.01915361328125	2.0599365234375	-3.536224365234375	-0.972747802734375	9.688137017822266	0.17417817077636719	0.24001871643066405	0.843048095703125	-5.096435546875	-3.0670166015625	9.846154327392577	0.5674257934570313	0.037110125732421874	2.51007080078125	-4.64630126953125	-1.514434814453125	
133	0.532	0.0	0.0	0.0	0.0	4.497	4.554	4.557	0.003	9.840168823242188	0.1227028350830078	0.0987608184814453	1.983642578125	-3.444671630859375	-0.96893310546875	9.787496386718749	0.20769699401855468	0.17836802368164062	0.86212158203125	-4.962921142578125	-3.7078857421875	10.143035333251953	0.24001871643066405	-0.41838674011230464	2.574920654296875	-4.6234130859375	-2.0294189453125	
134	0.536	0.0	0.0	0.0	0.0	0.009000000000000001	0.003	0.003	0.003	9.891045608520507	0.14245499877929688	0.03651157531738281	2.117156982421875	-3.72314453125	-1.049041748046875	9.787496386718749	0.35015199279785153	0.22685060729980466	0.339508056640625	-4.962921142578125	-3.223419189453125	9.833584768676758	0.6482300994873047	0.01975216369628906	2.475738525390625	-4.756927490234375	-1.52587890625	
135	0.54	0.0	0.0	0.0	0.0	0.006	0.006	0.006	0.0	9.83837317199707	0.16340426330566404	0.08559270935058594	1.781463623046875	-3.414154052734375	-1.04522705078125	9.80724855041504	0.201112939453125	0.14245499877929688	0.6256103515625	-4.680633544921875	-3.589630126953125	10.169371551513672	0.2603694305419922	-0.4674678741455078	2.689361572265625	-4.558563232421875	-2.071380615234375	
136	0.544	0.0	0.0	0.0	0.0	0.0	0.006	0.006	0.006	9.907206469726562	0.16160861206054686	0.040701428222656245	2.315521240234375	-3.925323486328125	-1.07574462890625	9.818022457885741	0.3699041564941406	0.19812018737792966	0.415802001953125	-5.184173583984375	-3.139495849609375	9.832986218261718	0.6961141326904297	0.009576806640625	3.2196044921875	-4.81414794921875	-1.628875732421875	
137	0.548	0.0	0.0	0.0	0.0	0.006	0.003	0.003	0.006	10.022128149414062	-0.07422025146484375	-0.10893617553710937	1.117706298828125	-3.021240234375	-0.8697509765625	9.94072529296875	-0.06763619689941405	0.00718260498046875	0.457763671875	-5.001068115234375	-3.10516357421875	10.153809240722655	0.37708676147460934	-0.46806642456054687	2.773284912109375	-4.608154296875	-2.06756591796875	
138	0.552	0.0	0.0	0.0	0.0	0.006	0.006	0.003	0.003	9.91498762512207	0.2154781494140625	0.055066638183593745	2.41851806640625	-3.80706787109375	-0.980377197265625	9.816226806640625	0.354940396118164	0.1945288848876953	0.5950927734375	-4.93621826171875	-3.253936767578125	10.008960040283203	0.7404068634033203	-0.22744915771484372	2.780914306640625	-4.4403076171875	-1.59454345703125	
139	0.556	0.0	0.0	0.0	0.0	0.003	0.006	0.006	0.006	10.044274514770507	-0.1005564697265625	-0.15382745666503905	0.885009765625	-3.04412841796875	-1.064300537109375	9.959280355834961	-0.08798691101074219	-0.022744915771484374	0.67138671875	-5.05828857421875	-3.13568115234375	10.203488925170898	0.3890577697753906	-0.5225345123291015	2.788543701171875	-4.5928955078125	-2.040863037109375	
140	0.56	0.0	0.0	0.0	0.0	0.003	0.006	0.003	0.006	9.890447058105469	0.29927520751953124	0.10295067138671875	3.85284423828125	-4.665374755859375	-0.446319580078125	9.704896429443359	0.3956418243408203	0.24001871643066405	0.652313232421875	-5.199432373046875	-2.948760986328125	10.019733947753906	0.8254010223388671	-0.26336218261718747	3.0364990234375	-4.486083984375	-1.560211181640625	
141	0.5640000000000001	0.0	0.0	0.0	0.0	0.003	0.003	0.003	0.003	10.047267266845703	-0.09576806640624999	-0.14784195251464843	0.682830810546875	-3.101348876953125	-0.9307861328125	9.9461122467041	-0.061650692749023434	-0.033518823242187495	0.591278076171875	-5.115509033203125	-3.093719482421875	10.127473022460936	0.05686228942871093	-0.2950853546142578	3.162384033203125	-4.642486572265625	-1.613616943359375	
142	0.5680000000000001	0.0	0.0	0.0	0.0	0.006	0.006	0.003	0.006	9.776123928833007	0.08020575561523437	0.12030863342285156	3.8604736328125	-4.604339599609375	-0.4425048828125	9.701903677368163	0.4387374542236328	0.2609679809570312	0.652313232421875	-5.31005859375	-2.86865234375	10.034099157714843	0.8547299926757812	-0.2867056488037109	3.078460693359375	-4.49371337890625	-1.628875732421875	
143	0.5720000000000001	0.0	0.0	0.0	0.0	0.003	0.006	0.006	0.003	10.0748005859375	-0.12689268798828124	-0.14963760375976562	0.5340576171875	-2.99072265625	-1.186370849609375	9.959280355834961	-0.05985504150390625	-0.06763619689941405	0.67138671875	-5.28717041015625	-3.143310546875	10.146626635742187	0.09576806640624999	-0.316034619140625	2.9449462890625	-4.863739013671875	-1.52587890625	
144	0.5760000000000001	0.0	0.0	0.0	0.0	0.003	0.003	0.006	0.006	9.777919580078125	0.06284779357910156	0.1484405029296875	3.692626953125	-4.253387451171875	-0.263214111328125	9.685742816162108	0.4800374328613281	0.2855085479736328	0.820159912109375	-5.16510009765625	-2.803802490234375	9.807847100830077	0.44891281127929683	0.05985504150390625	2.20489501953125	-4.657745361328125	-2.05230712890625	
145	0.58	0.0	0.0	0.0	0.0	0.006	0.006	0.006	0.003	9.89523546142578	0.181959326171875	0.03890577697753906	3.7078857421875	-4.550933837890625	-0.030517578125	9.879074600219726	0.03531447448730469	0.08140285644531249	0.797271728515625	-5.161285400390625	-3.162384033203125	10.146028085327147	0.1466448516845703	-0.3058592620849609	3.009796142578125	-4.96673583984375	-1.674652099609375	
146	0.584	0.0	0.0	0.0	0.0	0.006	0.006	0.006	0.003	9.803058697509766	0.07781155395507812	0.15023615417480468	3.41796875	-4.17327880859375	-0.461578369140625	9.698910925292969	0.517746109008789	0.28790274963378903	1.12152099609375	-4.7760009765625	-2.590179443359375	9.821015209960937	0.5458779785156249	0.07302315063476562	2.140045166015625	-4.543304443359375	-2.124786376953125	
147	0.588	0.0	0.0	0.0	0.0	0.003	0.006	0.003	0.003	9.897031112670899	0.19093758239746092	0.059256491088867186	3.90625	-4.543304443359375	-0.186920166015625	9.871891995239258	-0.005985504150390624	0.10295067138671875	0.568389892578125	-4.764556884765625	-3.040313720703125	10.151415039062499	0.06344634399414062	-0.30705636291503907	2.26593017578125	-4.98199462890625	-1.506805419921875	
148	0.592	0.0	0.0	0.0	0.0	-0.003	0.006	0.003	0.003	9.789890588378906	0.058657940673828124	0.17118541870117188	3.5552978515625	-4.14276123046875	-0.530242919921875	9.661800799560547	0.6416460449218749	0.2962824554443359	1.30462646484375	-5.21087646484375	-3.9520263671875	9.80665	0.5351040710449219	0.11851298217773437	2.1820068359375	-4.611968994140625	-1.9989013671875	
149	0.596	0.0	0.0	0.0	0.0	0.006	0.003	0.006	0.003	9.903615167236328	0.28431144714355466	0.07242460021972656	3.936767578125	-4.444122314453125	-0.049591064453125	9.882067352294921	0.025737667846679687	0.10893617553710937	0.904083251953125	-5.11932373046875	-3.0517578125	9.910199221801758	0.32082302246093747	-0.03232172241210937	2.628326416015625	-4.909515380859375	-1.346588134765625	
150	0.6	0.0	0.0	0.0	0.0	0.003	0.006	0.006	0.003	9.771934075927733	0.2819172454833984	0.06045359191894531	2.471923828125	-3.814697265625	-0.942230224609375	9.661800799560547	0.5692214447021484	0.32620997619628905	1.12152099609375	-4.970550537109375	-3.7994384765625	9.792284790039062	0.46028526916503903	0.13587094421386717	2.208709716796875	-4.558563232421875	-2.25830078125	
151	0.604	0.0	0.0	0.0	0.0	0.003	0.006	0.003	0.003	9.891045608520507	0.27892449340820313	0.105344873046875	4.18853759765625	-4.34112548828125	-0.1220703125	9.636661682128906	0.35314474487304687	0.3716998077392578	0.48065185546875	-4.69970703125	-3.27301025390625	9.907206469726562	0.2603694305419922	-0.02693476867675781	2.162933349609375	-4.69970703125	-1.77764892578125	
152	0.608	0.0	0.0	0.0	0.0	0.006	0.006	0.006	0.003	9.777321029663085	0.35613749694824215	0.06883329772949218	2.536773681640625	-3.627777099609375	-0.858306884765625	9.649829791259766	0.6596025573730468	0.34117373657226563	1.277923583984375	-4.741668701171875	-3.635406494140625	9.835978970336914	0.5644330413818359	-0.02693476867675781	2.51007080078125	-4.482269287109375	-2.262115478515625	
153	0.612	0.0	0.0	0.0	0.0	0.006	0.006	0.006	0.006	9.880870251464843	0.26815058593749996	0.12988544006347655	3.467559814453125	-4.116058349609375	-0.980377197265625	9.630676177978515	0.30346506042480464	0.3920505218505859	0.57220458984375	-5.02777099609375	-3.2958984375	9.892242709350585	0.21607669982910155	-0.008978256225585938	2.2430419921875	-4.913330078125	-1.42669677734375	
154	0.616	0.0	0.0	0.0	0.0	0.009000000000000001	0.006	0.006	0.006	9.782707983398437	0.23044190979003906	0.08319850769042968	2.777099609375	-3.955841064453125	-1.087188720703125	9.758765966796874	0.2232593048095703	0.21308394775390624	0.408172607421875	-4.680633544921875	-3.856658935546875	9.821015209960937	0.354940396118164	-0.004189852905273437	2.689361572265625	-4.619598388671875	-2.445220947265625	
155	0.62	0.0	0.0	0.0	0.0	0.003	0.006	0.003	0.003	9.807847100830077	0.5165490081787109	-0.007781155395507812	3.47900390625	-4.459381103515625	-0.797271728515625	9.63307037963867	0.40462008056640625	0.38367081604003905	0.49591064453125	-4.8980712890625	-3.21197509765625	9.809044201660155	0.7942764007568359	0.06344634399414062	2.685546875	-4.581451416015625	-1.544952392578125	
156	0.624	0.0	0.0	0.0	0.0	0.006	0.003	0.003	0.003	9.782707983398437	0.28909985046386716	0.10175357055664062	2.8839111328125	-3.734588623046875	-0.934600830078125	9.732429748535155	0.3226186737060547	0.21487959899902342	0.469207763671875	-4.638671875	-3.692626953125	9.79946739501953	0.43155484924316406	0.008978256225585938	2.4566650390625	-4.596710205078125	-2.246856689453125	
157	0.628	0.0	0.0	0.0	0.0	0.003	0.006	0.003	0.003	9.810241302490233	0.39324762268066404	-0.02454056701660156	3.047943115234375	-4.2877197265625	-0.91552734375	9.765948571777344	0.2861070983886719	0.14784195251464843	0.08392333984375	-4.985809326171875	-3.021240234375	9.789292037963866	0.6015431671142578	0.051475335693359374	2.796173095703125	-4.543304443359375	-1.491546630859375	
158	0.632	0.0	0.0	0.0	0.0	0.009000000000000001	0.003	0.006	0.006	9.880271701049804	0.25797522888183594	0.001197100830078125	1.5411376953125	-3.4942626953125	-1.323699951171875	9.746794958496093	0.3477577911376953	0.19871873779296872	0.77056884765625	-4.795074462890625	-3.826141357421875	9.821613760375977	0.43454760131835934	-0.002992752075195312	2.87628173828125	-4.57000732421875	-1.94549560546875	
159	0.636	0.0	0.0	0.0	0.0	0.003	0.006	0.003	0.003	9.817423907470703	0.38367081604003905	-0.044292730712890624	2.89154052734375	-4.108428955078125	-0.79345703125	9.756371765136718	0.3890577697753906	0.1406593475341797	0.28228759765625	-5.0048828125	-3.108978271484375	9.780912332153319	0.6943184814453125	0.06284779357910156	2.712249755859375	-4.69207763671875	-1.331329345703125	
160	0.64	0.0	0.0	0.0	0.0	0.0	0.006	0.003	0.003	9.892841259765625	0.13168109130859373	-0.031124621582031248	1.453399658203125	-3.24249267578125	-1.453399658203125	9.987412225341796	-0.17417817077636719	-0.06045359191894531	0.4730224609375	-5.035400390625	-3.1890869140625	10.204087475585936	0.08858546142578125	-0.4321533996582031	2.8228759765625	-4.5318603515625	-1.972198486328125	
161	0.644	0.0	0.0	0.0	0.0	0.003	0.003	0.006	0.003	9.852139831542969	0.2723404388427734	-0.08140285644531249	3.139495849609375	-3.8909912109375	-1.10626220703125	9.760561618041992	0.3393780853271484	0.12449848632812499	-0.125885009765625	-4.978179931640625	-3.10516357421875	9.789890588378906	0.6476315490722656	0.02693476867675781	2.81524658203125	-4.642486572265625	-1.44195556640625	
162	0.648	0.0	0.0	0.0	0.0	0.006	0.006	0.006	0.006	9.93952819213867	0.04129997863769531	-0.11192892761230468	1.31988525390625	-3.292083740234375	-1.384735107421875	9.97843396911621	-0.10714052429199218	-0.0652419952392578	0.408172607421875	-5.054473876953125	-3.23486328125	10.232817895507813	0.1514332550048828	-0.44053310546874996	2.941131591796875	-4.474639892578125	-2.109527587890625	
163	0.652	0.0	0.0	0.0	0.0	0.006	0.006	0.003	0.006	9.765350021362304	0.017357962036132813	0.2771288421630859	2.46429443359375	-3.841400146484375	-0.579833984375	9.718064538574218	0.30406361083984373	0.016160861206054686	0.362396240234375	-4.8980712890625	-2.5787353515625	9.989806427001952	0.7583633758544921	-0.14006079711914063	2.93731689453125	-4.730224609375	-1.2359619140625	
164	0.656	0.0	0.0	0.0	0.0	0.006	0.003	0.006	0.006	9.992799179077148	-0.03591302490234375	-0.17896657409667968	1.888275146484375	-3.631591796875	-1.13677978515625	9.99160207824707	-0.19871873779296872	-0.08499415893554688	0.5950927734375	-5.1422119140625	-3.36456298828125	10.245387454223632	0.04967968444824218	-0.45669396667480466	2.773284912109375	-4.29534912109375	-1.9073486328125	
165	0.66	0.0	0.0	0.0	0.0	0.006	0.006	0.003	0.003	9.801263046264648	-0.12808978881835936	0.22744915771484372	2.38037109375	-3.92913818359375	-0.08392333984375	9.789292037963866	0.21966800231933592	0.2855085479736328	0.576019287109375	-4.909515380859375	-2.777099609375	10.01733974609375	0.6865373260498047	-0.14185644836425781	2.880096435546875	-4.6844482421875	-1.57928466796875	
166	0.664	0.0	0.0	0.0	0.0	0.003	0.003	0.006	0.003	10.065223779296874	-0.023942016601562498	-0.22266075439453123	3.22723388671875	-3.963470458984375	-0.7171630859375	9.944915145874022	-0.020949264526367185	-0.0796072052001953	0.7781982421875	-5.08880615234375	-3.887176513671875	10.245387454223632	0.076614453125	-0.4417302062988281	2.887725830078125	-4.82940673828125	-1.338958740234375	
167	0.668	0.0	0.0	0.0	0.0	0.003	0.006	0.006	0.0	9.604339959716796	0.058657940673828124	0.3363853332519531	1.743316650390625	-3.452301025390625	-0.67138671875	9.79946739501953	0.18375497741699218	0.2549824768066406	0.537872314453125	-5.268096923828125	-2.5634765625	9.991003527832031	0.6703764648437499	-0.14305354919433594	3.078460693359375	-4.833221435546875	-1.407623291015625	
168	0.672	0.0	0.0	0.0	0.0	0.003	0.003	0.006	0.003	9.94012674255371	0.09636661682128905	0.027533319091796873	0.469207763671875	-2.933502197265625	-1.251220703125	10.043077413940429	-0.5207388610839844	-0.0053869537353515625	0.70953369140625	-4.8980712890625	-2.758026123046875	10.268730920410155	-0.10893617553710937	-0.4590881683349609	2.899169921875	-4.558563232421875	-1.522064208984375	
169	0.676	0.0	0.0	0.0	0.0	0.003	0.006	0.006	0.006	9.696516723632811	-0.01915361328125	0.2723404388427734	1.392364501953125	-3.032684326171875	-0.701904296875	9.807847100830077	0.15682020874023436	0.23642741394042968	0.83160400390625	-5.031585693359375	-2.86865234375	10.01015714111328	0.651821401977539	-0.28371289672851563	2.3193359375	-4.589080810546875	-2.269744873046875	
170	0.68	0.0	0.0	0.0	0.0	0.006	0.006	0.006	0.009000000000000001	9.880870251464843	0.13168109130859373	0.0909796630859375	2.99072265625	-3.9825439453125	-0.850677490234375	10.041281762695311	-0.3142389678955078	-0.007781155395507812	0.8697509765625	-5.3253173828125	-2.9754638671875	10.242394702148436	0.07781155395507812	-0.44592005920410155	3.1280517578125	-4.89044189453125	-1.590728759765625	
171	0.684	0.0	0.0	0.0	0.0	0.003	0.003	0.003	0.003	9.791087689208984	0.11432312927246092	0.09038111267089843	-0.598907470703125	-2.155303955078125	-1.7242431640625	9.69771382446289	0.3746925598144531	0.24480711975097655	1.003265380859375	-4.8980712890625	-3.040313720703125	9.840168823242188	0.6560112548828124	0.01975216369628906	2.498626708984375	-4.688262939453125	-2.094268798828125	
172	0.6880000000000001	0.0	0.0	0.0	0.0	0.003	0.003	0.006	0.003	9.837176071166992	0.15322890625	0.07541735229492187	1.636505126953125	-3.482818603515625	-1.0833740234375	10.085574493408203	-0.47165772705078124	-0.0526724365234375	0.74005126953125	-5.123138427734375	-2.803802490234375	10.28549033203125	-0.12808978881835936	-0.5183446594238281	2.971649169921875	-4.535675048828125	-1.598358154296875	
173	0.6920000000000001	0.0	0.0	0.0	0.0	0.003	0.003	0.006	0.003	9.842563024902343	0.105344873046875	0.03950432739257812	-0.67138671875	-2.17437744140625	-1.60980224609375	9.687538467407226	0.4896142395019531	0.25258827514648435	1.190185546875	-5.096435546875	-3.414154052734375	9.832986218261718	0.4704606262207031	0.030526071166992186	2.429962158203125	-4.703521728515625	-2.227783203125	
174	0.6960000000000001	0.0	0.0	0.0	0.0	0.006	0.003	0.003	0.003	9.85094273071289	0.08858546142578125	0.11073182678222655	1.987457275390625	-3.5400390625	-0.980377197265625	9.668384854125977	0.00718260498046875	0.3896563201904297	0.423431396484375	-5.08880615234375	-3.063201904296875	9.904213717651366	0.201112939453125	-0.08319850769042968	2.26593017578125	-4.96673583984375	-1.9683837890625	
175	0.7000000000000001	0.0	0.0	0.0	0.0	0.006	0.006	0.006	0.006	9.864709390258788	0.28909985046386716	0.034715924072265626	0.820159912109375	-2.8839111328125	-1.2664794921875	9.710881933593749	0.5087678527832031	0.2609679809570312	1.049041748046875	-4.985809326171875	-3.36456298828125	9.817423907470703	1.1372457885742187	0.025139117431640625	2.536773681640625	-4.741668701171875	-1.64031982421875	
176	0.704	0.0	0.0	0.0	0.0	0.003	0.006	0.006	0.003	9.801263046264648	0.31184476623535157	-0.015562310791015624	5.4779052734375	-5.397796630859375	-0.751495361328125	9.706093530273437	0.011372457885742187	0.3327940307617187	0.32806396484375	-5.126953125	-3.10516357421875	9.922768780517577	-0.12030863342285156	-0.13467384338378904	2.422332763671875	-4.92095947265625	-1.399993896484375	
177	0.708	0.0	0.0	0.0	0.0	0.003	0.006	0.006	0.006	9.83178911743164	0.3232172241210937	0.055066638183593745	-0.652313232421875	-1.99127197265625	-1.667022705078125	9.644442837524414	0.3459621398925781	0.18076222534179687	0.324249267578125	-4.741668701171875	-3.376007080078125	9.788094937133788	0.43155484924316406	-0.09756371765136718	2.09808349609375	-4.45556640625	-2.490997314453125	
178	0.712	0.0	0.0	0.0	0.0	0.003	0.006	0.006	0.006	9.8694977935791	0.16759411621093748	-0.027533319091796873	6.084442138671875	-5.62286376953125	-0.385284423828125	9.67856021118164	0.020949264526367185	0.38367081604003905	0.095367431640625	-5.1116943359375	-3.231048583984375	9.888052856445311	0.2472013214111328	-0.06464344482421874	2.269744873046875	-4.642486572265625	-1.50299072265625	
179	0.716	0.0	0.0	0.0	0.0	-0.003	0.006	0.003	0.006	9.892841259765625	0.3010708587646484	-0.0053869537353515625	4.11224365234375	-4.421234130859375	-1.1749267578125	9.65342109375	0.3363853332519531	0.18555062866210936	0.54931640625	-4.85992431640625	-3.536224365234375	9.82460651245117	0.17956512451171874	-0.07362170104980469	2.49481201171875	-4.558563232421875	-2.223968505859375	
180	0.72	0.0	0.0	0.0	0.0	0.006	0.006	0.003	0.006	9.815628256225585	0.2519897247314453	-0.02633621826171875	6.70623779296875	-5.725860595703125	-0.60272216796875	9.680954412841796	0.17597382202148437	0.13646949462890623	0.00762939453125	-4.795074462890625	-3.086090087890625	9.950302099609374	0.8409633331298828	-0.09935936889648436	2.55584716796875	-4.6539306640625	-1.445770263671875	
181	0.724	0.0	0.0	0.0	0.0	0.006	0.006	0.006	0.003	9.963470208740233	0.4177881896972656	-0.0005985504150390625	3.025054931640625	-3.856658935546875	-0.80108642578125	9.629479077148437	0.35314474487304687	0.21727380065917967	0.6103515625	-4.825592041015625	-3.68499755859375	9.797073193359374	0.10714052429199218	-0.05985504150390625	2.201080322265625	-4.520416259765625	-2.22015380859375	
182	0.728	0.0	0.0	0.0	0.0	-0.003	0.003	0.003	0.003	9.812036953735351	0.1867477294921875	-0.011971008300781249	5.27191162109375	-5.146026611328125	-0.766754150390625	9.664195001220703	0.16998831787109375	0.1771709228515625	0.324249267578125	-4.9591064453125	-3.11279296875	9.78031378173828	0.8020575561523438	-0.04908113403320312	2.498626708984375	-4.688262939453125	-1.514434814453125	
183	0.732	0.0	0.0	0.0	0.0	0.003	0.006	0.006	0.003	10.01733974609375	0.3429693878173828	-0.014963760375976562	4.032135009765625	-4.268646240234375	-0.514984130859375	9.598354455566406	0.40282442932128903	-0.07242460021972656	0.392913818359375	-4.749298095703125	-3.31878662109375	9.805452899169921	0.12210428466796874	-0.03651157531738281	2.185821533203125	-4.34112548828125	-1.91497802734375	
184	0.736	0.0	0.0	0.0	0.0	0.006	0.006	0.003	0.006	9.873687646484374	-0.32441432495117184	0.02633621826171875	1.9378662109375	-3.841400146484375	-0.6256103515625	9.673173257446289	0.18614917907714842	0.16041151123046873	0.48828125	-5.084991455078125	-2.994537353515625	9.805452899169921	0.7164648468017578	-0.03591302490234375	2.73895263671875	-4.913330078125	-1.995086669921875	
185	0.74	0.0	0.0	0.0	0.0	0.006	0.006	0.006	0.003	9.976638317871092	0.3435679382324219	-0.034715924072265626	4.283905029296875	-4.72259521484375	-0.698089599609375	9.91558617553711	0.12389993591308593	-0.06344634399414062	0.72479248046875	-4.985809326171875	-3.3721923828125	10.231620794677733	0.42317514343261714	-0.4800374328613281	2.99072265625	-4.4097900390625	-1.28173828125	
186	0.744	0.0	0.0	0.0	0.0	0.006	0.003	0.006	0.009000000000000001	9.880870251464843	-0.3124433166503906	0.044891281127929686	0.518798828125	-2.971649169921875	-0.67901611328125	9.676764559936522	0.1562216583251953	0.17058686828613281	0.865936279296875	-4.909515380859375	-2.803802490234375	9.788693487548828	0.6111199737548828	-0.011971008300781249	2.407073974609375	-4.726409912109375	-1.888275146484375	
187	0.748	0.0	0.0	0.0	0.0	0.006	0.006	0.006	0.003	9.974842666625976	0.26396073303222656	-0.0383072265625	3.803253173828125	-4.3792724609375	-0.518798828125	9.910797772216796	0.14185644836425781	-0.05087678527832031	0.308990478515625	-5.05828857421875	-3.3416748046875	10.232817895507813	0.5141548065185546	-0.4638765716552734	2.834320068359375	-4.405975341796875	-1.277923583984375	
188	0.752	0.0	0.0	0.0	0.0	0.006	0.006	0.003	0.003	9.858125335693359	-0.29867665710449215	0.07062894897460938	0.873565673828125	-3.208160400390625	-0.67138671875	9.819818109130859	0.3399766357421875	0.27293898925781246	0.89263916015625	-5.039215087890625	-2.7313232421875	10.064026678466796	0.3435679382324219	-0.08259995727539061	3.0975341796875	-4.802703857421875	-1.73187255859375	
189	0.756	0.0	0.0	0.0	0.0	0.003	0.003	0.006	0.003	9.969455712890625	0.04608838195800781	0.012569558715820313	2.162933349609375	-3.696441650390625	-0.79345703125	9.90181951599121	0.18734627990722655	-0.03950432739257812	0.64849853515625	-5.1727294921875	-3.39508056640625	10.211868630981444	0.5614402893066406	-0.43454760131835934	2.788543701171875	-4.34112548828125	-1.52587890625	
190	0.76	0.0	0.0	0.0	0.0	0.006	0.003	0.006	0.006	9.822212310791015	-0.2280477081298828	0.13946224670410157	0.54931640625	-2.90679931640625	-0.591278076171875	9.820416659545899	0.2765302917480469	0.3082534637451172	0.644683837890625	-5.07354736328125	-2.788543701171875	10.064625228881836	0.31064766540527344	-0.05087678527832031	3.0517578125	-4.87518310546875	-1.65557861328125	
191	0.764	0.0	0.0	0.0	0.0	0.006	0.003	0.006	0.006	9.97843396911621	0.12150573425292968	0.10893617553710937	1.85394287109375	-3.620147705078125	-0.9002685546875	10.008361489868163	0.16340426330566404	0.052073886108398436	0.881195068359375	-5.19561767578125	-3.383636474609375	10.24718310546875	0.6374561920166015	-0.4435258575439453	2.7313232421875	-4.35638427734375	-1.77001953125	
192	0.768	0.0	0.0	0.0	0.0	0.006	0.003	0.006	0.006	9.83777462158203	-0.23223756103515625	0.17896657409667968	0.774383544921875	-1.987457275390625	-0.7781982421875	9.801263046264648	0.2867056488037109	0.31483751831054685	0.659942626953125	-4.7760009765625	-2.79998779296875	10.050858569335936	0.32561142578124996	-0.06105214233398437	2.99072265625	-4.619598388671875	-1.67083740234375	
193	0.772	0.0	0.0	0.0	0.0	0.009000000000000001	0.003	0.006	0.003	9.988010775756836	0.19871873779296872	0.14305354919433594	2.410888671875	-3.559112548828125	-0.804901123046875	10.000580334472655	0.15203180541992187	0.08678981018066406	1.28936767578125	-4.909515380859375	-3.25775146484375	10.296264239501953	0.584185205078125	-0.507570751953125	2.8533935546875	-4.63104248046875	-1.74713134765625	
194	0.776	0.0	0.0	0.0	0.0	0.006	0.006	0.003	0.003	9.69831237487793	0.5506663818359374	0.421978042602539	0.9613037109375	-2.66265869140625	-0.8697509765625	9.685742816162108	0.39803602600097654	0.35134909362792965	0.896453857421875	-4.955291748046875	-3.322601318359375	10.045471615600585	0.28490999755859375	-0.029927520751953124	3.391265869140625	-4.573822021484375	-1.73187255859375	
195	0.78	0.0	0.0	0.0	0.0	0.003	0.006	0.006	0.009000000000000001	9.97903251953125	0.33039982910156246	0.20649989318847656	2.18963623046875	-3.53240966796875	-0.926971435546875	9.98501802368164	0.10714052429199218	0.0939724151611328	0.759124755859375	-4.871368408203125	-3.0670166015625	10.241197601318358	0.556053335571289	-0.49021278991699213	2.887725830078125	-4.7607421875	-1.766204833984375	
196	0.784	0.0	0.0	0.0	0.0	0.009000000000000001	0.006	0.003	0.003	9.789890588378906	0.5021837982177734	0.3010708587646484	1.323699951171875	-3.025054931640625	-0.9307861328125	9.712079034423828	0.4495113616943359	0.31483751831054685	1.155853271484375	-4.87518310546875	-3.261566162109375	9.865307940673828	0.3495534423828125	0.022146365356445312	2.6397705078125	-4.47845458984375	-1.712799072265625	
197	0.788	0.0	0.0	0.0	0.0	0.006	0.006	0.006	0.003	9.888052856445311	0.29448680419921874	-0.06404489440917968	6.2255859375	-5.4168701171875	-0.6561279296875	9.804255798339844	0.08200140686035155	0.24779987182617186	-0.186920166015625	-4.756927490234375	-3.261566162109375	10.304643945312499	0.4734533782958984	-0.5231330627441406	2.979278564453125	-4.474639892578125	-1.827239990234375	
198	0.792	0.0	0.0	0.0	0.0	0.003	0.006	0.006	0.003	9.743802206420899	0.44053310546874996	0.297479556274414	1.8157958984375	-3.452301025390625	-1.15203857421875	9.647435589599608	0.42796354675292964	0.4100070343017578	1.094818115234375	-4.98199462890625	-3.3111572265625	9.826402163696288	0.3172317199707031	0.05985504150390625	2.613067626953125	-4.64630126953125	-1.750946044921875	
199	0.796	0.0	0.0	0.0	0.0	0.006	0.006	0.003	0.006	9.932345587158203	0.31184476623535157	-0.10115502014160156	6.198883056640625	-5.62286376953125	-0.530242919921875	9.818022457885741	0.06045359191894531	0.21188684692382811	0.179290771484375	-4.99725341796875	-3.131866455078125	9.852139831542969	0.4285620971679687	-0.17776947326660156	2.78472900390625	-5.100250244140625	-1.8768310546875	
200	0.8	0.0	0.0	0.0	0.0	0.006	0.006	0.006	0.003	9.828197814941406	0.4004302276611328	0.09756371765136718	2.742767333984375	-3.77655029296875	-0.934600830078125	9.69771382446289	0.24361001892089842	0.04129997863769531	0.213623046875	-4.913330078125	-3.23486328125	9.846154327392577	0.30466216125488277	0.01975216369628906	2.552032470703125	-4.489898681640625	-1.819610595703125	
201	0.804	0.0	0.0	0.0	0.0	0.0	0.006	0.003	0.006	9.926360083007811	0.09816226806640624	-0.20290859069824219	4.69970703125	-4.840850830078125	-0.69427490234375	9.797073193359374	-0.030526071166992186	0.16759411621093748	-0.12969970703125	-4.98199462890625	-2.99835205078125	9.82580361328125	0.36810850524902344	-0.11432312927246092	2.593994140625	-4.848480224609375	-1.934051513671875	
202	0.808	0.0	0.0	0.0	0.0	0.006	0.003	0.006	0.006	9.819818109130859	-0.047285482788085934	-0.12449848632812499	2.6702880859375	-3.77655029296875	-0.946044921875	9.666589202880859	0.29927520751953124	0.09995791931152344	0.293731689453125	-5.04302978515625	-2.849578857421875	9.769539874267577	0.32142157287597656	-0.051475335693359374	2.429962158203125	-4.67681884765625	-1.83868408203125	
203	0.812	0.0	0.0	0.0	0.0	0.003	0.003	0.003	0.003	9.855731134033203	-0.014963760375976562	-0.105344873046875	4.39453125	-4.4403076171875	-0.690460205078125	9.686939916992188	-0.010175357055664061	0.02633621826171875	0.396728515625	-5.405426025390625	-3.040313720703125	9.827000714111328	0.489015689086914	-0.09038111267089843	2.31170654296875	-5.11932373046875	-1.96075439453125	
204	0.8160000000000001	0.0	0.0	0.0	0.0	0.009000000000000001	0.006	0.006	0.006	9.9215716796875	0.07481880187988281	-0.09516951599121093	1.4801025390625	-3.154754638671875	-0.7476806640625	9.677363110351562	0.1753752716064453	0.08259995727539061	0.186920166015625	-4.85992431640625	-3.047943115234375	9.813832604980469	0.2316390106201172	0.020949264526367185	1.979827880859375	-4.215240478515625	-2.044677734375	
205	0.8200000000000001	0.0	0.0	0.0	0.0	0.0	0.006	0.006	0.006	9.782707983398437	0.08978256225585937	-0.0383072265625	5.313873291015625	-5.413055419921875	-0.5340576171875	9.615712417602538	0.07362170104980469	0.12988544006347655	0.553131103515625	-5.306243896484375	-3.231048583984375	9.78031378173828	0.5213374114990235	-0.10893617553710937	2.51007080078125	-5.794525146484375	-2.26593017578125	
206	0.8240000000000001	0.0	0.0	0.0	0.0	0.006	0.006	0.006	0.006	9.892242709350585	0.005985504150390624	-0.003591302490234375	-0.118255615234375	-2.681732177734375	-1.09100341796875	9.657610946655273	0.14305354919433594	0.1322796417236328	0.67901611328125	-4.913330078125	-3.18145751953125	9.777321029663085	0.28909985046386716	0.040701428222656245	2.223968505859375	-4.489898681640625	-1.71661376953125	
207	0.8280000000000001	0.0	0.0	0.0	0.0	0.006	0.003	0.003	0.003	9.88266590270996	-0.05027823486328125	0.05686228942871093	3.4942626953125	-4.34112548828125	-0.52642822265625	9.661800799560547	0.1197100830078125	0.20290859069824219	0.69427490234375	-5.096435546875	-3.231048583984375	9.904812268066406	0.37888241271972656	0.05327098693847656	2.6092529296875	-4.6234130859375	-1.7852783203125	
208	0.8320000000000001	0.0	0.0	0.0	0.0	0.006	0.006	0.006	0.003	9.758765966796874	-0.028131869506835935	0.12330138549804687	0.87738037109375	-3.08990478515625	-1.03759765625	9.776722479248047	0.06823474731445311	0.15322890625	0.949859619140625	-4.90570068359375	-3.3111572265625	9.783306533813477	0.2807201446533203	0.009576806640625	2.3040771484375	-4.199981689453125	-1.7852783203125	
209	0.836	0.0	0.0	0.0	0.0	0.003	0.006	0.006	0.003	9.97184991455078	-0.061650692749023434	-0.08978256225585937	1.922607421875	-3.5400390625	-0.827789306640625	9.610325463867188	0.2041056915283203	0.21906945190429686	0.438690185546875	-4.9285888671875	-3.078460693359375	9.759364517211914	0.4704606262207031	0.06284779357910156	2.681732177734375	-4.741668701171875	-1.708984375	
210	0.84	0.0	0.0	0.0	0.0	0.006	0.003	0.006	0.006	9.91558617553711	0.1322796417236328	0.002992752075195312	4.039764404296875	-4.28009033203125	-0.347137451171875	9.87608184814453	0.09576806640624999	0.12868833923339842	0.354766845703125	-4.9285888671875	-2.956390380859375	10.372280142211913	0.4914098907470703	-0.6763619689941406	2.9296875	-4.512786865234375	-1.2664794921875	
211	0.844	0.0	0.0	0.0	0.0	0.003	0.006	0.006	0.003	9.859322436523437	-0.23523031311035156	0.011372457885742187	1.461029052734375	-3.475189208984375	-0.843048095703125	9.802460147094726	0.06464344482421874	0.316034619140625	0.54931640625	-5.2032470703125	-3.505706787109375	9.79348189086914	0.33039982910156246	0.12509703674316405	2.655029296875	-4.57763671875	-1.819610595703125	
212	0.848	0.0	0.0	0.0	0.0	0.0	0.003	0.006	0.006	9.96586441040039	0.09995791931152344	0.00239420166015625	2.437591552734375	-3.833770751953125	-0.606536865234375	9.765350021362304	0.15861585998535155	0.21966800231933592	0.621795654296875	-5.138397216796875	-2.99072265625	10.219649786376953	0.5339069702148437	-0.49739539489746093	2.895355224609375	-4.673004150390625	-1.25885009765625	
213	0.852	0.0	0.0	0.0	0.0	0.009000000000000001	0.006	0.006	0.006	9.993397729492187	-0.11731588134765625	-0.105344873046875	4.2572021484375	-4.7760009765625	-0.17547607421875	9.87009634399414	0.143652099609375	0.22505495605468748	0.54168701171875	-5.138397216796875	-3.2196044921875	10.123881719970703	0.3687070556640625	-0.2699462371826172	3.017425537109375	-4.543304443359375	-1.522064208984375	
214	0.856	0.0	0.0	0.0	0.0	0.003	0.006	0.003	0.006	9.855731134033203	0.047884033203124995	0.022146365356445312	0.614166259765625	-2.925872802734375	-1.201629638671875	10.008960040283203	0.17178396911621094	-0.04848258361816406	1.049041748046875	-4.764556884765625	-3.1890869140625	10.299855541992187	0.41060558471679687	-0.5051765502929687	2.89154052734375	-4.28009033203125	-1.377105712890625	
215	0.86	0.0	0.0	0.0	0.0	0.006	0.006	0.003	0.003	9.679757312011718	0.4537012145996093	0.4255693450927734	3.116607666015625	-3.9825439453125	-0.6866455078125	9.739013803100585	0.2442085693359375	0.27293898925781246	0.64849853515625	-5.367279052734375	-3.269195556640625	10.037091909790039	0.38187516479492184	-0.19033903198242186	2.719879150390625	-4.89044189453125	-1.735687255859375	
216	0.864	0.0	0.0	0.0	0.0	0.003	0.003	0.006	0.006	9.97843396911621	0.06763619689941405	-0.06703764648437499	2.288818359375	-3.742218017578125	-0.19073486328125	9.947907897949218	0.2807201446533203	-0.04548983154296875	1.068115234375	-4.9285888671875	-2.872467041015625	10.307038146972655	0.5207388610839844	-0.5608417388916015	3.032684326171875	-4.94384765625	-1.384735107421875	
217	0.868	0.0	0.0	0.0	0.0	0.003	0.003	0.006	0.006	9.565434182739256	0.5548562347412109	0.39145197143554683	3.520965576171875	-4.276275634765625	-0.759124755859375	9.71028338317871	0.19692308654785154	0.3507505432128906	0.827789306640625	-5.100250244140625	-3.13568115234375	10.151415039062499	0.32501287536621093	-0.20231004028320312	2.838134765625	-4.756927490234375	-1.4801025390625	
218	0.872	0.0	0.0	0.0	0.0	0.006	0.006	0.006	0.006	9.822212310791015	0.0796072052001953	0.05985504150390625	-1.3580322265625	-1.8768310546875	-1.438140869140625	9.89583401184082	0.26874913635253905	0.06643909606933593	1.079559326171875	-4.7607421875	-3.204345703125	10.16338604736328	0.49260699157714843	-0.4213794921875	2.83050537109375	-4.52423095703125	-1.789093017578125	
219	0.876	0.0	0.0	0.0	0.0	0.003	0.003	0.006	0.006	9.707889181518555	0.37229835815429685	0.31064766540527344	4.718780517578125	-4.40216064453125	-0.347137451171875	9.549273321533203	0.3274070770263672	0.584185205078125	0.52642822265625	-5.07354736328125	-3.0059814453125	9.995193380737303	0.47764323120117186	-0.181959326171875	2.7923583984375	-4.848480224609375	-1.5411376953125	
220	0.88	0.0	0.0	0.0	0.0	0.003	0.006	0.006	0.003	9.913790524291992	0.4129997863769531	-0.020949264526367185	2.384185791015625	-3.60107421875	-0.57220458984375	9.980229620361328	0.19812018737792966	-0.03411737365722656	0.629425048828125	-4.825592041015625	-3.2806396484375	10.24000050048828	0.49679684448242184	-0.4638765716552734	2.849578857421875	-5.035400390625	-1.621246337890625	
221	0.884	0.0	0.0	0.0	0.0	0.003	0.003	0.003	0.006	9.504980590820312	0.4950011932373047	0.36571430358886714	4.7149658203125	-4.634857177734375	-0.621795654296875	9.599551556396484	0.20649989318847656	0.526125814819336	0.545501708984375	-4.96673583984375	-3.200531005859375	9.871293444824218	0.20949264526367187	0.08858546142578125	2.506256103515625	-4.520416259765625	-2.20489501953125	
222	0.888	0.0	0.0	0.0	0.0	0.006	0.006	0.003	0.006	9.85632968444824	0.22445640563964842	0.14544775085449219	-1.495361328125	-1.811981201171875	-1.82342529296875	9.873687646484374	0.3333925811767578	0.04548983154296875	0.751495361328125	-5.22613525390625	-3.265380859375	10.08737014465332	0.6200982299804687	-0.3806780639648437	2.696990966796875	-4.79888916015625	-1.598358154296875	
223	0.892	0.0	0.0	0.0	0.0	0.006	0.006	0.003	0.006	9.712677584838866	0.10235212097167969	0.2597708801269531	4.878997802734375	-5.046844482421875	-0.5035400390625	9.647435589599608	0.17956512451171874	0.33698388366699217	0.446319580078125	-4.787445068359375	-3.41033935546875	9.794678991699218	0.277727392578125	0.1005564697265625	2.6397705078125	-4.871368408203125	-2.2430419921875	
224	0.896	0.0	0.0	0.0	0.0	0.003	0.006	0.003	0.003	10.028712203979492	0.43574470214843747	-0.04608838195800781	3.84521484375	-4.11224365234375	-0.080108642578125	10.001777435302733	0.20949264526367187	-0.03950432739257812	0.885009765625	-4.8828125	-3.231048583984375	9.991003527832031	0.5201403106689453	-0.1149216796875	2.25830078125	-4.856109619140625	-2.0294189453125	
225	0.9	0.0	0.0	0.0	0.0	0.006	0.006	0.006	0.0	9.545682019042967	0.20829554443359374	0.16340426330566404	2.18963623046875	-3.398895263671875	-1.48773193359375	9.618705169677733	0.2316390106201172	0.4159925384521484	0.545501708984375	-4.840850830078125	-3.620147705078125	9.706093530273437	0.28909985046386716	0.1610100616455078	2.407073974609375	-4.67681884765625	-2.1209716796875	
226	0.904	0.0	0.0	0.0	0.0	0.003	0.006	0.003	0.003	9.74859060974121	0.5279214660644531	0.13347674255371092	-2.681732177734375	-1.373291015625	-2.147674560546875	9.952696301269532	0.24181436767578124	-0.04668693237304687	0.415802001953125	-5.2032470703125	-2.750396728515625	9.809642752075195	0.7158662963867187	-0.007781155395507812	2.529144287109375	-5.046844482421875	-2.01416015625	
227	0.908	0.0	0.0	0.0	0.0	0.003	0.006	0.006	0.006	9.986215124511718	-0.20530279235839843	-0.1322796417236328	3.021240234375	-3.879547119140625	-1.0833740234375	9.706692080688477	0.15562310791015624	0.36930560607910157	0.29754638671875	-4.8675537109375	-3.5552978515625	9.89523546142578	0.10654197387695312	0.03172317199707031	2.704620361328125	-4.486083984375	-1.667022705078125	
228	0.912	0.0	0.0	0.0	0.0	0.006	0.003	0.006	0.003	9.943119494628906	0.3321954803466797	-0.10594342346191406	8.21685791015625	-6.603240966796875	0.54931640625	9.710881933593749	0.1640028137207031	0.12689268798828124	0.576019287109375	-4.833221435546875	-3.0517578125	9.835380419921874	0.6236895324707031	-0.017956512451171875	2.43377685546875	-4.802703857421875	-2.155303955078125	
229	0.916	0.0	0.0	0.0	0.0	0.006	0.006	0.003	0.006	9.616310968017578	0.2262520568847656	0.11252747802734374	7.110595703125	-5.9661865234375	-0.026702880859375	9.5630399810791	0.32441432495117184	0.4578910675048828	0.49591064453125	-4.955291748046875	-3.51715087890625	9.706093530273437	0.29269115295410153	-0.02154781494140625	2.3956298828125	-4.604339599609375	-1.88446044921875	
230	0.92	0.0	0.0	0.0	0.0	0.006	0.006	0.003	0.006	9.860519537353515	0.4644751220703125	-0.14185644836425781	0.102996826171875	-3.04412841796875	-1.617431640625	9.821015209960937	0.12509703674316405	0.020949264526367185	0.370025634765625	-5.130767822265625	-2.902984619140625	9.970652813720703	0.6602011077880859	-0.11791443176269531	2.29644775390625	-4.642486572265625	-1.918792724609375	
231	0.924	0.0	0.0	0.0	0.0	0.003	0.003	0.006	0.006	9.64025298461914	0.008978256225585938	0.10953472595214843	-0.080108642578125	-2.41851806640625	-2.349853515625	9.82580361328125	0.10714052429199218	0.03950432739257812	0.17547607421875	-4.451751708984375	-3.284454345703125	9.96586441040039	0.12150573425292968	-0.15861585998535155	2.323150634765625	-4.184722900390625	-1.766204833984375	
232	0.928	0.0	0.0	0.0	0.0	0.003	0.006	0.006	0.006	9.999383233642577	0.18555062866210936	-0.010773907470703125	4.299163818359375	-4.909515380859375	-0.18310546875	9.619902270507811	0.19213468322753904	0.24361001892089842	0.49591064453125	-5.176544189453125	-3.032684326171875	9.762955819702148	0.6015431671142578	0.03591302490234375	2.67791748046875	-4.611968994140625	-1.739501953125	
233	0.932	0.0	0.0	0.0	0.0	0.003	0.003	0.006	0.006	9.87668039855957	-0.0987608184814453	-0.04369418029785156	5.008697509765625	-5.1422119140625	0.46539306640625	9.765948571777344	0.21248539733886718	0.11552023010253906	0.12969970703125	-4.802703857421875	-3.231048583984375	9.89463691101074	0.25438392639160157	-0.17597382202148437	2.3956298828125	-4.405975341796875	-1.56402587890625	
234	0.936	0.0	0.0	0.0	0.0	0.006	0.006	0.006	2.181	9.992799179077148	0.2861070983886719	-0.26336218261718747	7.068634033203125	-5.748748779296875	0.1220703125	9.951499200439452	0.11432312927246092	-0.0718260498046875	0.46539306640625	-5.39398193359375	-3.3111572265625	10.008361489868163	0.4369418029785156	-0.1388636962890625	2.696990966796875	-4.608154296875	-1.94549560546875	
235	0.9400000000000001	0.0	0.0	0.0	0.0	4.458	4.554	4.557	4.452	9.777919580078125	-0.17597382202148437	-0.03232172241210937	-0.84686279296875	-2.117156982421875	-1.251220703125	9.636661682128906	0.23223756103515625	0.20530279235839843	0.28228759765625	-4.985809326171875	-3.360748291015625	10.228029492187499	0.44891281127929683	-0.5063736511230469	3.0975341796875	-4.528045654296875	-1.1749267578125	
236	0.9440000000000001	0.0	0.0	0.0	0.0	4.503	4.557	4.557	4.446	9.943718045043944	0.15083470458984374	-0.17956512451171874	3.795623779296875	-4.352569580078125	-0.03814697265625	9.803058697509766	0.20709844360351562	0.006584054565429687	0.3662109375	-5.645751953125	-2.788543701171875	9.816226806640625	0.5728127471923827	0.0	2.8533935546875	-4.913330078125	-1.811981201171875	
237	0.9480000000000001	0.0	0.0	0.0	0.0	4.5	4.548	4.557	4.476	9.891045608520507	-0.19333178405761717	-0.06045359191894531	1.13677978515625	-3.204345703125	-0.606536865234375	10.071209283447265	0.10474632263183593	-0.21188684692382811	1.2359619140625	-4.962921142578125	-3.326416015625	10.33038161315918	0.3902548706054687	-0.43634325256347656	2.5177001953125	-4.535675048828125	-1.316070556640625	
238	0.9520000000000001	0.0	0.0	0.0	0.0	4.494	4.563	4.563	4.488	9.773131176757811	0.3058592620849609	0.3226186737060547	4.23431396484375	-4.375457763671875	-0.621795654296875	9.791087689208984	0.1514332550048828	0.1149216796875	0.682830810546875	-5.207061767578125	-3.021240234375	9.858723886108399	0.4848258361816406	0.01975216369628906	2.86865234375	-4.764556884765625	-2.017974853515625	
239	0.9560000000000001	0.0	0.0	0.0	0.0	4.494	4.5600000000000005	4.5600000000000005	4.491	9.78031378173828	0.16519991455078123	0.11073182678222655	0.60272216796875	-3.021240234375	-0.988006591796875	9.865906491088866	0.2765302917480469	0.05027823486328125	1.071929931640625	-5.02777099609375	-3.0670166015625	10.101735354614258	0.5740098480224609	-0.35194764404296874	2.590179443359375	-4.57763671875	-1.42669677734375	
240	0.96	0.0	0.0	0.0	0.0	4.476	4.557	4.551	4.503	9.881468801879882	0.1975216369628906	0.2645592834472656	5.279541015625	-4.730224609375	-0.225067138671875	9.713874685668944	0.35194764404296874	0.3746925598144531	0.5340576171875	-5.21087646484375	-2.895355224609375	10.123881719970703	0.3459621398925781	-0.3537432952880859	2.712249755859375	-4.840850830078125	-1.67083740234375	
241	0.964	0.0	0.0	0.0	0.0	4.503	4.5600000000000005	4.563	4.47	10.177751257324218	-0.12030863342285156	-0.2519897247314453	-0.06103515625	-2.51007080078125	-0.9002685546875	10.03050785522461	0.001197100830078125	-0.17357962036132812	0.78582763671875	-4.70733642578125	-3.2196044921875	10.434529385375976	0.45190556335449217	-0.7529764221191406	2.857208251953125	-4.459381103515625	-1.476287841796875	
242	0.968	0.0	0.0	0.0	0.0	4.5	4.563	4.5600000000000005	4.446	9.804255798339844	0.002992752075195312	0.2136824981689453	5.57708740234375	-5.252838134765625	-0.2288818359375	9.680954412841796	0.40222587890625	0.27353753967285155	0.797271728515625	-5.01251220703125	-2.838134765625	10.03050785522461	0.3489548919677734	-0.5045779998779296	3.0670166015625	-4.90570068359375	-1.758575439453125	
243	0.972	0.0	0.0	0.0	0.0	4.503	4.557	4.5600000000000005	4.461	10.007762939453125	0.037110125732421874	-0.09756371765136718	-1.82342529296875	-2.056121826171875	-1.19781494140625	10.029310754394531	0.037708676147460936	-0.21787235107421873	1.132965087890625	-5.352020263671875	-2.933502197265625	10.086173043823242	0.5859808563232421	-0.3711012573242187	3.387451171875	-4.970550537109375	-1.434326171875	
244	0.976	0.0	0.0	0.0	0.0	4.491	4.563	4.563	4.482	9.87069489440918	0.023942016601562498	0.08978256225585937	4.78363037109375	-4.8980712890625	-0.23651123046875	9.852139831542969	0.28371289672851563	0.21188684692382811	0.537872314453125	-5.138397216796875	-2.73895263671875	10.265139617919921	0.25737667846679685	-0.46806642456054687	2.956390380859375	-4.669189453125	-1.537322998046875	
245	0.98	0.0	0.0	0.0	0.0	4.497	4.563	4.557	4.488	9.991003527832031	-0.11611878051757812	-0.18555062866210936	-1.47247314453125	-2.101898193359375	-1.064300537109375	10.002974536132811	0.012569558715820313	-0.020350714111328123	0.91552734375	-5.023956298828125	-3.353118896484375	10.16398459777832	0.49260699157714843	-0.27952304382324217	2.95257568359375	-4.49371337890625	-1.73187255859375	
246	0.984	0.0	0.0	0.0	0.0	4.485	4.557	4.557	4.497	9.566631283569336	0.2980781066894531	0.40462008056640625	1.76239013671875	-3.5552978515625	-1.190185546875	9.689334118652344	0.3459621398925781	0.31663316955566406	0.713348388671875	-4.913330078125	-3.551483154296875	9.558850128173827	0.36930560607910157	0.28311434631347654	2.1514892578125	-4.665374755859375	-2.28118896484375	
247	0.988	0.0	0.0	0.0	0.0	4.497	4.5600000000000005	4.563	4.479	10.04247886352539	0.13646949462890623	-0.24061726684570311	-1.65557861328125	-1.918792724609375	-1.270294189453125	10.131064324951172	0.08319850769042968	-0.13646949462890623	1.33514404296875	-5.184173583984375	-3.261566162109375	10.24658455505371	0.479438882446289	-0.3315969299316406	2.933502197265625	-4.730224609375	-1.277923583984375	
248	0.992	0.0	0.0	0.0	0.0	4.497	4.563	4.5600000000000005	4.452	9.73602105102539	0.21787235107421873	0.22385785522460935	1.079559326171875	-2.902984619140625	-1.438140869140625	9.692925421142577	0.3274070770263672	0.35613749694824215	0.843048095703125	-4.848480224609375	-3.4637451171875	9.779715231323241	0.18914193115234373	0.2041056915283203	2.25830078125	-4.558563232421875	-2.338409423828125	
249	0.996	0.0	0.0	0.0	0.0	4.5	4.557	4.557	3.777	9.848548529052733	0.20171148986816406	0.10654197387695312	2.986907958984375	-3.9520263671875	-1.18255615234375	9.894038360595703	0.16280571289062498	0.143652099609375	1.087188720703125	-5.077362060546875	-3.269195556640625	10.04846436767578	0.6392518432617187	-0.2549824768066406	1.949310302734375	-4.669189453125	-2.20489501953125	
250	1.0	0.0	0.0	0.0	0.0	0.003	0.006	0.006	0.006	9.777919580078125	0.2807201446533203	0.23044190979003906	1.949310302734375	-3.582000732421875	-1.190185546875	9.642647186279296	0.32142157287597656	0.38786066894531246	0.705718994140625	-5.0201416015625	-3.41033935546875	9.71686743774414	0.20949264526367187	0.18076222534179687	2.246856689453125	-4.558563232421875	-1.903533935546875	
251	1.004	0.0	0.0	0.0	0.0	0.003	0.006	0.003	0.003	9.941323843383788	0.46686932373046874	-0.07481880187988281	4.795074462890625	-4.840850830078125	-0.83160400390625	9.76774422302246	0.07242460021972656	0.26276363220214843	0.0762939453125	-4.82177734375	-3.238677978515625	9.941922393798828	0.45070846252441404	-0.040701428222656245	1.94549560546875	-4.79888916015625	-2.338409423828125	
252	1.008	0.0	0.0	0.0	0.0	0.003	0.006	0.006	0.003	9.728838446044922	0.24480711975097655	0.23104046020507812	1.59454345703125	-3.276824951171875	-1.30462646484375	9.570821136474608	0.3764882110595703	0.4584896179199218	0.732421875	-4.810333251953125	-3.30352783203125	9.625887774658203	0.2454056701660156	0.2615665313720703	2.246856689453125	-4.497528076171875	-2.166748046875	
253	1.012	0.0	0.0	0.0	0.0	0.003	0.006	0.003	0.003	9.842563024902343	0.4537012145996093	0.11911153259277343	3.986358642578125	-4.302978515625	-0.75531005859375	9.629479077148437	0.16519991455078123	0.3758896606445312	0.41961669921875	-5.0506591796875	-3.093719482421875	9.750386260986328	0.5770026000976562	0.11432312927246092	2.101898193359375	-4.73785400390625	-2.2125244140625	
254	1.016	0.0	0.0	0.0	0.0	0.003	0.006	0.006	0.006	9.922768780517577	0.1879448303222656	0.04189852905273437	3.37982177734375	-4.0740966796875	-0.667572021484375	9.720458740234374	0.1514332550048828	0.19213468322753904	0.45013427734375	-5.096435546875	-3.658294677734375	9.907206469726562	0.3028665100097656	-0.04967968444824218	2.47955322265625	-4.299163818359375	-1.773834228515625	
255	1.02	0.0	0.0	0.0	0.0	0.003	0.006	0.006	0.006	9.84555577697754	0.4333505004882812	0.08918401184082031	5.218505859375	-4.82177734375	-0.576019287109375	9.683348614501952	0.028730419921875	0.3962403747558593	0.4730224609375	-4.909515380859375	-3.1890869140625	9.86291373901367	0.47584757995605464	0.016160861206054686	2.468109130859375	-4.8980712890625	-2.52532958984375	
256	1.024	0.0	0.0	0.0	0.0	0.003	0.006	0.006	0.006	9.852139831542969	0.33758243408203126	0.17477672119140625	2.38800048828125	-3.65447998046875	-0.9002685546875	9.586981997680663	0.31663316955566406	0.26695348510742184	0.579833984375	-4.970550537109375	-3.566741943359375	9.7162688873291	0.46806642456054687	0.011971008300781249	2.52532958984375	-4.45556640625	-1.64794921875	
257	1.028	0.0	0.0	0.0	0.0	0.003	0.006	0.003	0.006	9.871293444824218	0.39743747558593745	0.04608838195800781	4.932403564453125	-4.940032958984375	-0.48065185546875	9.724050042724608	0.13766659545898435	0.1753752716064453	0.091552734375	-5.18798828125	-2.93731689453125	9.871293444824218	0.36631285400390623	-0.047285482788085934	2.716064453125	-4.96673583984375	-1.7547607421875	
258	1.032	0.0	0.0	0.0	0.0	0.006	0.006	0.006	0.006	9.976039767456054	0.2232593048095703	0.018555062866210937	3.345489501953125	-3.948211669921875	-0.675201416015625	9.69831237487793	0.2920926025390625	0.16879121704101563	0.48065185546875	-4.756927490234375	-3.570556640625	9.906009368896484	0.3477577911376953	-0.16460136413574217	2.292633056640625	-4.4708251953125	-1.59454345703125	
259	1.036	0.0	0.0	0.0	0.0	0.003	0.006	0.006	0.006	9.868300692749022	-0.21906945190429686	-0.011971008300781249	2.796173095703125	-4.009246826171875	-0.7171630859375	9.67197615661621	0.08140285644531249	0.1849520782470703	0.08392333984375	-4.940032958984375	-2.857208251953125	9.82580361328125	0.3956418243408203	-0.07721300354003906	2.8533935546875	-4.901885986328125	-1.918792724609375	
260	1.04	0.0	0.0	0.0	0.0	0.006	0.006	0.006	0.006	9.962871658325195	0.25917232971191406	0.09935936889648436	2.9754638671875	-4.055023193359375	-0.461578369140625	9.871293444824218	0.15203180541992187	0.014963760375976562	0.823974609375	-5.237579345703125	-3.139495849609375	9.80066449584961	0.42437224426269526	-0.023942016601562498	2.857208251953125	-4.4708251953125	-1.31988525390625	
261	1.044	0.0	0.0	0.0	0.0	0.006	0.006	0.006	0.003	9.91498762512207	-0.34177228698730466	-0.04249707946777344	2.67791748046875	-4.21905517578125	-0.40435791015625	9.776722479248047	-0.010773907470703125	0.05566518859863281	0.40435791015625	-5.115509033203125	-3.143310546875	9.970652813720703	0.24361001892089842	-0.16160861206054686	2.8228759765625	-4.7149658203125	-1.911163330078125	
262	1.048	0.0	0.0	0.0	0.0	0.0	0.003	0.006	0.006	9.97903251953125	0.1580173095703125	0.06763619689941405	0.873565673828125	-2.99072265625	-0.911712646484375	9.906009368896484	0.08858546142578125	-0.018555062866210937	0.682830810546875	-5.161285400390625	-3.05938720703125	10.259154113769531	0.5506663818359374	-0.48123453369140623	2.95257568359375	-4.4403076171875	-1.617431640625	
263	1.052	0.0	0.0	0.0	0.0	0.003	0.006	0.003	0.006	9.87668039855957	-0.3298012786865234	0.04967968444824218	2.216339111328125	-4.241943359375	-0.5950927734375	9.7545761138916	0.3585316986083984	0.40222587890625	0.629425048828125	-4.9896240234375	-2.61688232421875	9.836577520751952	0.39983167724609375	-0.07242460021972656	2.83050537109375	-4.993438720703125	-1.811981201171875	
264	1.056	0.0	0.0	0.0	0.0	0.003	0.006	0.006	0.006	9.983222372436522	-0.05746083984375	-0.1370680450439453	1.766204833984375	-3.643035888671875	-0.7171630859375	9.959280355834961	0.02154781494140625	-0.06883329772949218	0.713348388671875	-5.039215087890625	-3.05938720703125	10.308235247802735	0.4944026428222656	-0.48542438659667964	2.9754638671875	-4.608154296875	-1.605987548828125	
265	1.06	0.0	0.0	0.0	0.0	0.0	0.003	0.006	0.003	9.83837317199707	-0.5105635040283203	0.05087678527832031	0.946044921875	-3.276824951171875	-0.7171630859375	9.779715231323241	0.2537853759765625	0.36212300109863277	0.843048095703125	-5.24139404296875	-3.200531005859375	10.113706362915039	0.239420166015625	-0.13347674255371092	2.89154052734375	-4.69970703125	-1.54876708984375	
266	1.064	0.0	0.0	0.0	0.0	0.003	0.006	0.003	0.006	9.95329485168457	0.04548983154296875	0.00239420166015625	1.28936767578125	-3.204345703125	-0.843048095703125	9.8694977935791	0.15322890625	-0.025139117431640625	0.736236572265625	-5.18035888671875	-3.612518310546875	10.18373676147461	0.5811924530029297	-0.4333505004882812	2.803802490234375	-4.367828369140625	-1.861572265625	
267	1.068	0.0	0.0	0.0	0.0	0.006	0.006	0.006	0.006	9.57620809020996	0.4584896179199218	0.5410895751953124	1.232147216796875	-3.177642822265625	-0.690460205078125	9.77432827758789	0.2914940521240234	0.4016273284912109	1.148223876953125	-4.94384765625	-2.9449462890625	10.096946951293944	0.3495534423828125	-0.08140285644531249	3.07464599609375	-4.795074462890625	-1.6632080078125	
268	1.072	0.0	0.0	0.0	0.0	0.003	0.006	0.003	0.003	9.919177478027343	0.17357962036132812	0.13347674255371092	1.06048583984375	-3.223419189453125	-0.858306884765625	10.014945544433592	-0.005985504150390624	0.1484405029296875	0.865936279296875	-4.848480224609375	-3.509521484375	10.281899029541014	0.4016273284912109	-0.5207388610839844	2.86865234375	-4.5928955078125	-1.735687255859375	
269	1.076	0.0	0.0	0.0	0.0	0.003	0.003	0.003	0.003	9.592967501831055	0.7386112121582031	0.5925649108886718	2.132415771484375	-3.204345703125	-1.285552978515625	9.688137017822266	0.35314474487304687	0.49380409240722656	0.736236572265625	-4.92095947265625	-3.101348876953125	10.012551342773437	0.4321533996582031	-0.0652419952392578	2.796173095703125	-4.55474853515625	-1.796722412109375	
270	1.08	0.0	0.0	0.0	0.0	0.003	0.006	0.006	0.003	9.938331091308592	0.36930560607910157	0.18315642700195311	1.750946044921875	-3.406524658203125	-1.13677978515625	9.99220062866211	0.2041056915283203	0.16220716247558592	0.92315673828125	-4.8980712890625	-3.4332275390625	10.209474429321288	0.5793968017578125	-0.5668272430419922	2.719879150390625	-4.8065185546875	-1.68609619140625	
271	1.084	0.0	0.0	0.0	0.0	0.009000000000000001	0.006	0.006	0.006	9.663596450805663	0.6548141540527344	0.3800795135498047	2.349853515625	-3.261566162109375	-1.068115234375	9.7683427734375	0.31483751831054685	0.3028665100097656	0.518798828125	-4.8370361328125	-3.173828125	10.127473022460936	0.26216508178710934	0.086191259765625	2.55584716796875	-4.44793701171875	-1.857757568359375	
272	1.088	0.0	0.0	0.0	0.0	0.006	0.003	0.003	0.003	9.87727894897461	0.3597287994384765	-0.07422025146484375	5.9814453125	-5.062103271484375	-0.690460205078125	9.957484704589843	0.21787235107421873	0.23403321228027343	0.7476806640625	-4.57763671875	-3.5247802734375	10.066420880126952	0.46686932373046874	-0.2962824554443359	2.666473388671875	-4.46319580078125	-1.667022705078125	
273	1.092	0.0	0.0	0.0	0.0	0.003	0.006	0.006	0.006	9.734225399780273	0.6063315704345703	0.2316390106201172	3.215789794921875	-3.631591796875	-0.78582763671875	9.688137017822266	0.3274070770263672	0.23642741394042968	0.244140625	-4.894256591796875	-3.10516357421875	9.625887774658203	0.4034229797363281	0.17896657409667968	2.521514892578125	-4.543304443359375	-2.09808349609375	
274	1.096	0.0	0.0	0.0	0.0	0.003	0.006	0.006	0.003	9.950302099609374	0.030526071166992186	-0.30406361083984373	4.848480224609375	-5.016326904296875	-0.54931640625	9.871891995239258	0.14963760375976562	-0.1197100830078125	0.156402587890625	-5.126953125	-3.2958984375	10.199299072265624	0.4267664459228515	-0.5339069702148437	2.956390380859375	-4.6844482421875	-1.552581787109375	
275	1.1	0.0	0.0	0.0	0.0	0.006	0.006	0.006	0.006	9.777919580078125	0.2454056701660156	0.05805939025878906	0.3509521484375	-3.143310546875	-1.071929931640625	9.727641345214844	0.11851298217773437	0.2549824768066406	0.461578369140625	-4.791259765625	-3.07464599609375	9.783306533813477	0.2651578338623047	0.05027823486328125	2.37274169921875	-4.3487548828125	-2.03704833984375	
276	1.104	0.0	0.0	0.0	0.0	0.003	0.003	0.003	0.003	9.815029705810547	0.29089550170898437	0.0047884033203125	4.302978515625	-4.337310791015625	-0.652313232421875	9.740210903930663	0.36691140441894526	0.022146365356445312	-0.041961669921875	-5.039215087890625	-3.238677978515625	9.72285294189453	0.575206948852539	-0.033518823242187495	2.353668212890625	-4.95147705078125	-2.26593017578125	
277	1.108	0.0	0.0	0.0	0.0	0.006	0.006	0.006	0.003	9.804854348754882	0.1197100830078125	-0.06883329772949218	0.469207763671875	-3.10516357421875	-1.178741455078125	9.645639938354492	0.15442600708007811	0.04129997863769531	0.6256103515625	-4.970550537109375	-3.398895263671875	9.765948571777344	0.364517202758789	0.1083376251220703	2.315521240234375	-4.75311279296875	-2.06756591796875	
278	1.112	0.0	0.0	0.0	0.0	0.006	0.006	0.006	0.003	9.819818109130859	0.17178396911621094	0.005985504150390624	1.73187255859375	-3.30352783203125	-1.01470947265625	9.868300692749022	0.21188684692382811	-0.05626373901367187	0.278472900390625	-4.901885986328125	-3.108978271484375	9.988609326171874	0.3716998077392578	-0.21906945190429686	2.193450927734375	-4.817962646484375	-1.99127197265625	
279	1.116	0.0	0.0	0.0	0.0	0.003	0.006	0.006	0.006	9.732429748535155	0.2232593048095703	0.1352723937988281	2.3193359375	-3.787994384765625	-0.919342041015625	9.488221179199218	0.21607669982910155	0.3746925598144531	0.690460205078125	-5.191802978515625	-3.559112548828125	9.795876092529296	0.42317514343261714	-0.14903905334472656	2.742767333984375	-4.5013427734375	-1.76239013671875	
280	1.12	0.0	0.0	0.0	0.0	0.006	0.006	0.003	0.003	9.991003527832031	0.12808978881835936	-0.15023615417480468	3.589630126953125	-4.596710205078125	-0.579833984375	9.735422500610351	0.26216508178710934	0.1131260284423828	0.46539306640625	-5.14984130859375	-2.826690673828125	9.807847100830077	0.6302735870361328	-0.037110125732421874	2.361297607421875	-4.833221435546875	-1.800537109375	
281	1.124	0.0	0.0	0.0	0.0	0.003	0.003	0.006	0.006	9.96047745666504	0.17058686828613281	-0.14425065002441406	3.57818603515625	-4.06646728515625	-0.7781982421875	9.707290631103515	0.1927332336425781	0.1304839904785156	0.701904296875	-4.75311279296875	-3.620147705078125	10.014945544433592	0.23223756103515625	-0.1753752716064453	2.34222412109375	-4.314422607421875	-1.708984375	
282	1.1280000000000001	0.0	0.0	0.0	0.0	0.0	0.006	0.006	0.006	9.90241806640625	-0.15203180541992187	-0.19333178405761717	3.79180908203125	-4.67681884765625	-0.591278076171875	9.662399349975585	0.023343466186523436	0.16519991455078123	0.293731689453125	-5.161285400390625	-3.13568115234375	9.858125335693359	0.39803602600097654	0.00239420166015625	2.79998779296875	-4.726409912109375	-1.743316650390625	
283	1.1320000000000001	0.0	0.0	0.0	0.0	0.003	0.006	0.006	0.0	9.85094273071289	0.07362170104980469	-0.0143652099609375	2.98309326171875	-4.161834716796875	-0.820159912109375	9.78629928588867	0.3699041564941406	0.0652419952392578	0.728607177734375	-4.55474853515625	-3.032684326171875	9.764152920532226	0.47105917663574215	-0.10893617553710937	2.44140625	-4.444122314453125	-1.407623291015625	
284	1.1360000000000001	0.0	0.0	0.0	0.0	0.009000000000000001	0.006	0.006	0.003	10.078391888427733	-0.1466448516845703	-0.31663316955566406	3.612518310546875	-4.4097900390625	-0.3662109375	9.911994873046874	0.07481880187988281	-0.086191259765625	0.331878662109375	-5.252838134765625	-2.964019775390625	10.079588989257813	0.5345055206298828	-0.18435352783203124	2.76947021484375	-4.520416259765625	-1.50299072265625	
285	1.1400000000000001	0.0	0.0	0.0	0.0	0.0	0.003	0.006	0.006	9.89583401184082	-0.1580173095703125	-0.05985504150390625	-0.125885009765625	-2.4871826171875	-0.99945068359375	9.87069489440918	0.10354922180175781	0.09756371765136718	0.728607177734375	-4.474639892578125	-3.208160400390625	9.87009634399414	0.14006079711914063	-0.013168109130859374	2.117156982421875	-4.337310791015625	-2.01416015625	
286	1.1440000000000001	0.0	0.0	0.0	0.0	0.006	0.006	0.006	0.003	9.872490545654296	0.26216508178710934	0.05327098693847656	3.16619873046875	-4.619598388671875	-0.514984130859375	9.616310968017578	0.3315969299316406	0.28371289672851563	0.54931640625	-5.405426025390625	-3.253936767578125	9.797671743774414	0.729034405517578	-0.025139117431640625	2.73895263671875	-4.64630126953125	-1.800537109375	
287	1.1480000000000001	0.0	0.0	0.0	0.0	0.006	0.006	0.006	0.003	9.903016616821288	0.0143652099609375	-0.04548983154296875	0.652313232421875	-2.84576416015625	-0.84686279296875	9.923367330932617	0.2472013214111328	0.0	0.980377197265625	-4.772186279296875	-3.009796142578125	10.299855541992187	0.488417138671875	-0.5901707092285156	3.18145751953125	-4.47845458984375	-1.232147216796875	
288	1.1520000000000001	0.0	0.0	0.0	0.0	0.009000000000000001	0.006	0.003	0.003	10.003573086547851	-0.1083376251220703	-0.19632453613281248	3.80706787109375	-4.070281982421875	-0.78582763671875	9.94671079711914	0.016160861206054686	0.23104046020507812	0.720977783203125	-4.970550537109375	-3.16619873046875	10.032902056884765	0.3633201019287109	-0.06703764648437499	2.66265869140625	-4.69207763671875	-1.880645751953125	
289	1.156	0.0	0.0	0.0	0.0	0.006	0.006	0.006	0.006	9.90840357055664	-0.17178396911621094	-0.02633621826171875	0.4425048828125	-3.032684326171875	-0.766754150390625	9.750984811401366	0.24001871643066405	0.12330138549804687	1.35040283203125	-5.130767822265625	-3.31878662109375	10.157999093627929	0.489015689086914	-0.47165772705078124	3.13568115234375	-4.61578369140625	-1.4801025390625	
290	1.16	0.0	0.0	0.0	0.0	0.003	0.003	0.006	0.003	9.609726913452148	0.22266075439453123	0.34237083740234375	4.28009033203125	-4.825592041015625	-0.26702880859375	9.82580361328125	0.33698388366699217	0.2603694305419922	0.70953369140625	-5.3253173828125	-2.95257568359375	9.859322436523437	0.469862075805664	-0.029927520751953124	2.971649169921875	-4.81414794921875	-1.77764892578125	
291	1.164	0.0	0.0	0.0	0.0	0.003	4.533	4.548	4.494	9.99220062866211	-0.33399113159179683	-0.15861585998535155	-1.15203857421875	-2.0904541015625	-1.07574462890625	10.211868630981444	-0.03411737365722656	-0.22744915771484372	1.171112060546875	-4.78363037109375	-3.086090087890625	10.466252557373046	0.25737667846679685	-0.5321113189697265	2.60162353515625	-4.364013671875	-1.3885498046875	
292	1.168	0.0	0.0	0.0	0.0	4.494	4.554	4.563	4.476	9.598354455566406	0.3435679382324219	0.3908534210205078	4.741668701171875	-4.76837158203125	-0.438690185546875	9.78629928588867	0.32920272827148434	0.2932897033691406	0.58746337890625	-5.1116943359375	-3.1585693359375	10.002974536132811	0.25139117431640623	-0.143652099609375	2.83050537109375	-4.7149658203125	-2.23541259765625	
293	1.172	0.0	0.0	0.0	0.0	4.494	4.563	4.5600000000000005	4.452	9.823409411621093	0.4537012145996093	0.1945288848876953	-1.22833251953125	-2.15911865234375	-1.430511474609375	9.897629663085937	0.16998831787109375	0.07003039855957031	1.18255615234375	-5.19561767578125	-3.021240234375	9.874884747314452	0.8714894042968749	-0.16699556579589842	3.07464599609375	-4.901885986328125	-1.50299072265625	
294	1.176	0.0	0.0	0.0	0.0	4.5	4.557	4.557	4.455	9.719261639404296	0.3178302703857422	0.24660277099609373	3.83758544921875	-4.245758056640625	-0.63323974609375	9.74200655517578	0.3806780639648437	0.3184288208007812	0.640869140625	-5.31005859375	-3.124237060546875	10.237606298828124	0.12449848632812499	-0.26815058593749996	2.857208251953125	-4.94384765625	-1.74713134765625	
295	1.18	0.0	0.0	0.0	0.0	4.503	4.548	4.557	4.482	9.988609326171874	0.15203180541992187	-0.12030863342285156	-1.140594482421875	-1.7547607421875	-1.537322998046875	10.073603485107421	0.054468087768554684	-0.08379705810546874	1.125335693359375	-4.970550537109375	-3.421783447265625	10.243591802978514	0.5440823272705078	-0.38307226562499996	2.689361572265625	-4.589080810546875	-1.57928466796875	
296	1.184	0.0	0.0	0.0	0.0	4.497	4.563	4.563	4.488	9.469067565917967	0.3705027069091797	0.5410895751953124	4.451751708984375	-4.772186279296875	-0.331878662109375	9.428366137695312	0.5099649536132812	0.507570751953125	0.576019287109375	-5.0048828125	-3.192901611328125	9.791686239624022	0.37888241271972656	-0.07062894897460938	2.26593017578125	-4.589080810546875	-2.033233642578125	
297	1.188	0.0	0.0	0.0	0.0	4.491	4.557	4.5600000000000005	4.491	9.974244116210937	0.2292448089599609	-0.1005564697265625	-0.7476806640625	-2.52532958984375	-1.110076904296875	9.88266590270996	0.11192892761230468	0.022146365356445312	0.78582763671875	-5.344390869140625	-2.986907958984375	10.211270080566406	0.6584054565429687	-0.48063598327636714	2.8839111328125	-4.73785400390625	-1.312255859375	
298	1.192	0.0	0.0	0.0	0.0	4.479	4.557	4.551	4.503	9.85692823486328	-0.1657984649658203	-0.08140285644531249	3.18145751953125	-3.818511962890625	-1.148223876953125	9.773131176757811	0.32022447204589843	0.21009119567871093	0.637054443359375	-5.07354736328125	-3.093719482421875	9.864709390258788	0.016160861206054686	0.11611878051757812	2.44140625	-4.894256591796875	-2.246856689453125	
299	1.196	0.0	0.0	0.0	0.0	4.503	4.563	4.563	4.464	9.80665	0.19512743530273435	0.0430956298828125	-0.9918212890625	-2.06756591796875	-1.495361328125	9.693523971557617	0.0652419952392578	0.18076222534179687	0.682830810546875	-4.932403564453125	-3.4332275390625	9.890447058105469	0.6458358978271485	-0.11911153259277343	2.956390380859375	-4.772186279296875	-1.65557861328125	
300	1.2	0.0	0.0	0.0	0.0	4.503	4.5600000000000005	4.5600000000000005	4.4430000000000005	9.701903677368163	0.04967968444824218	0.16998831787109375	1.995086669921875	-3.780364990234375	-1.010894775390625	9.449913952636718	0.41898529052734373	0.411802685546875	0.37384033203125	-4.852294921875	-3.5247802734375	9.589376199340819	0.33518823242187495	0.18854338073730467	2.11334228515625	-4.67681884765625	-1.995086669921875	
301	1.204	0.0	0.0	0.0	0.0	4.5	4.554	4.5600000000000005	4.4670000000000005	10.012551342773437	0.11013327636718749	-0.18734627990722655	4.28009033203125	-4.49371337890625	-0.4425048828125	10.008960040283203	-0.13946224670410157	-0.0718260498046875	0.7171630859375	-5.115509033203125	-3.4027099609375	10.050858569335936	0.35613749694824215	-0.17776947326660156	2.3956298828125	-4.985809326171875	-2.166748046875	
302	1.208	0.0	0.0	0.0	0.0	3.378	0.006	0.003	0.006	9.720458740234374	0.07422025146484375	0.105344873046875	2.86865234375	-3.77655029296875	-1.27410888671875	9.549273321533203	0.32142157287597656	0.4177881896972656	0.7171630859375	-4.84466552734375	-3.810882568359375	9.634267480468749	0.21966800231933592	0.2753331909179687	2.37274169921875	-4.665374755859375	-2.09808349609375	
303	1.212	0.0	0.0	0.0	0.0	0.009000000000000001	0.006	0.003	0.003	9.797671743774414	0.48123453369140623	0.16460136413574217	3.932952880859375	-4.787445068359375	-0.629425048828125	9.52533130493164	0.1292868896484375	0.40761283264160153	0.286102294921875	-5.115509033203125	-3.173828125	9.6151138671875	0.5811924530029297	0.16879121704101563	2.384185791015625	-4.833221435546875	-2.170562744140625	
304	1.216	0.0	0.0	0.0	0.0	0.006	0.006	0.006	0.003	9.843760125732421	0.09636661682128905	-0.06284779357910156	0.690460205078125	-3.0975341796875	-1.5411376953125	9.746196408081055	0.22864625854492185	0.2154781494140625	0.400543212890625	-5.207061767578125	-3.376007080078125	9.920973129272461	0.43155484924316406	-0.21308394775390624	2.490997314453125	-4.497528076171875	-1.4495849609375	
305	1.22	0.0	0.0	0.0	0.0	0.003	0.003	0.006	0.003	10.014346994018554	0.22565350646972654	-0.24361001892089842	5.352020263671875	-4.913330078125	-0.598907470703125	9.752181912231444	-0.032920272827148434	0.2292448089599609	0.537872314453125	-4.84466552734375	-3.292083740234375	9.925162982177733	0.2819172454833984	-0.04608838195800781	2.223968505859375	-4.878997802734375	-2.44140625	
306	1.224	0.0	0.0	0.0	0.0	0.006	0.003	0.003	0.006	9.819818109130859	0.10654197387695312	0.13287819213867186	4.001617431640625	-4.337310791015625	-0.194549560546875	9.354145886230468	0.16220716247558592	0.26216508178710934	0.20599365234375	-4.703521728515625	-3.41033935546875	9.654618194580078	0.5243301635742187	0.012569558715820313	2.44903564453125	-4.222869873046875	-1.735687255859375	
