	time	dac1	dac2	dac3	dac4	adc1.3	adc2.3	adc3.3	adc4.3	imu1accx	imu1accy	imu1accz	imu1gyrox	imu1gyroy	imu1gyroz	imu2accx	imu2accy	imu2accz	imu2gyrox	imu2gyroy	imu2gyroz	imu3accx	imu3accy	imu3accz	imu3gyrox	imu3gyroy	imu3gyroz	log
0	0.0	0.0	0.0	0.0	0.0	4.557	4.611	4.614	4.551	9.86411083984375	0.105344873046875	0.10953472595214843	2.590179443359375	-3.643035888671875	-0.789642333984375	9.787496386718749	0.4584896179199218	0.20949264526367187	0.54168701171875	-4.974365234375	-2.838134765625	10.017938296508788	0.18375497741699218	-0.1867477294921875	3.391265869140625	-4.436492919921875	-2.15911865234375	Estabilizou em 4s, 847  rpm
1	0.004	0.0	0.0	0.0	0.0	4.569	4.617	4.614	4.551	9.8694977935791	0.08200140686035155	0.11372457885742186	2.544403076171875	-3.82232666015625	-0.86212158203125	9.77432827758789	0.44113165588378905	0.2154781494140625	0.843048095703125	-4.962921142578125	-2.9144287109375	10.013748443603514	0.1657984649658203	-0.1640028137207031	3.582000732421875	-4.611968994140625	-2.38800048828125	Started
2	0.008	0.0	0.0	0.0	0.0	4.563	4.614	4.617	4.5600000000000005	9.859920986938477	0.07781155395507812	0.11372457885742186	2.62451171875	-3.7384033203125	-0.995635986328125	9.77432827758789	0.421978042602539	0.22086510314941404	0.705718994140625	-5.05828857421875	-2.8533935546875	10.01674119567871	0.1610100616455078	-0.15741875915527342	3.7384033203125	-4.78363037109375	-2.330780029296875	IMU1|LSM6DS3|0x6A|I2C-1|±2g (±19,6m/s²)|±125º/s|400Hz
3	0.012	0.0	0.0	0.0	0.0	4.557	4.614	4.614	4.569	9.862315188598632	0.06584054565429687	0.10414777221679687	2.460479736328125	-3.509521484375	-0.835418701171875	9.776123928833007	0.40940848388671874	0.23343466186523437	1.02996826171875	-5.10406494140625	-3.16619873046875	10.00955859069824	0.13467384338378904	-0.1640028137207031	3.57818603515625	-4.5166015625	-2.3040771484375	IMU2|LSM6DS3|0x6B|I2C-1|±2g (±19,6m/s²)|±125º/s|400Hz
4	0.016	0.0	0.0	0.0	0.0	4.569	4.614	4.617	4.554	9.859920986938477	0.0526724365234375	0.09756371765136718	2.452850341796875	-3.658294677734375	-0.751495361328125	9.77432827758789	0.39743747558593745	0.21428104858398436	0.972747802734375	-4.833221435546875	-2.8533935546875	10.012551342773437	0.13946224670410157	-0.1562216583251953	3.711700439453125	-4.69970703125	-2.048492431640625	IMU3|LSM6DS3|0x6B|I2C-2|±2g (±19,6m/s²)|±125º/s|400Hz
5	0.02	0.0	0.0	0.0	0.0	4.566	4.617	4.617	4.533	9.8694977935791	0.04189852905273437	0.08918401184082031	2.506256103515625	-3.70025634765625	-0.9613037109375	9.783905084228515	0.39324762268066404	0.20709844360351562	0.919342041015625	-5.08880615234375	-3.040313720703125	10.016142645263672	0.13946224670410157	-0.16519991455078123	3.711700439453125	-4.543304443359375	-2.20489501953125	ADC|ADS1015|0|0|1|0|±6,144 V|2400 SPS
6	0.024	0.0	0.0	0.0	0.0	4.575	4.614	4.614	4.527	9.86411083984375	0.03591302490234375	0.08738836059570312	2.3651123046875	-3.7994384765625	-0.858306884765625	9.783306533813477	0.3902548706054687	0.19632453613281248	0.823974609375	-4.985809326171875	-2.8839111328125	10.02392380065918	0.12689268798828124	-0.19572598571777342	3.74603271484375	-4.596710205078125	-2.201080322265625	Gen1|Disabled
7	0.028	0.0	0.0	0.0	0.0	4.569	4.605	4.611	4.557	9.87009634399414	0.040701428222656245	0.07841010437011718	2.574920654296875	-3.62396240234375	-0.91552734375	9.785700735473633	0.39444472351074217	0.18315642700195311	0.980377197265625	-4.84466552734375	-2.98309326171875	10.019733947753906	0.12988544006347655	-0.2059013427734375	3.810882568359375	-4.673004150390625	-2.361297607421875	Gen2|Enabled|Noise|0.0|10.0|1668
8	0.032	0.0	0.0	0.0	0.0	4.563	4.617	4.617	4.554	9.874884747314452	0.03531447448730469	0.07122749938964844	2.58636474609375	-3.662109375	-1.041412353515625	9.788693487548828	0.3902548706054687	0.16460136413574217	1.178741455078125	-5.107879638671875	-2.887725830078125	10.01733974609375	0.12509703674316405	-0.21966800231933592	3.7078857421875	-4.802703857421875	-2.490997314453125	Gen3|Enabled|Noise|0.0|10.0|128
9	0.036000000000000004	0.0	0.0	0.0	0.0	4.566	4.614	4.614	4.5600000000000005	9.866505041503906	0.037110125732421874	0.06643909606933593	2.750396728515625	-3.894805908203125	-0.926971435546875	9.781510882568359	0.3938461730957031	0.16160861206054686	0.732421875	-4.795074462890625	-2.98309326171875	10.01674119567871	0.12569558715820311	-0.24361001892089842	3.5552978515625	-4.627227783203125	-2.25067138671875	Gen4|Enabled|Noise|0.0|10.0|128
10	0.04	0.0	0.0	0.0	0.0	4.551	4.614	4.6080000000000005	4.569	9.865307940673828	0.033518823242187495	0.05805939025878906	2.712249755859375	-4.116058349609375	-0.980377197265625	9.788094937133788	0.39983167724609375	0.14963760375976562	1.049041748046875	-5.0201416015625	-2.887725830078125	10.011952792358398	0.13587094421386717	-0.24839842224121092	3.66973876953125	-4.505157470703125	-2.216339111328125	Ctrl|Disabled
11	0.044	0.0	0.0	0.0	0.0	4.569	4.614	4.617	4.548	9.871293444824218	0.04189852905273437	0.044891281127929686	2.51007080078125	-3.53240966796875	-0.9918212890625	9.791087689208984	0.4016273284912109	0.14544775085449219	0.99945068359375	-4.878997802734375	-3.0517578125	10.005368737792969	0.13108254089355467	-0.25917232971191406	3.5400390625	-4.543304443359375	-2.06756591796875	
12	0.048	0.0	0.0	0.0	0.0	4.566	4.617	4.617	4.53	9.874884747314452	0.055066638183593745	0.03531447448730469	2.620697021484375	-3.597259521484375	-0.89263916015625	9.79348189086914	0.39444472351074217	0.12868833923339842	0.92315673828125	-4.73785400390625	-2.86102294921875	10.015544094848632	0.12868833923339842	-0.2705447875976562	3.536224365234375	-4.604339599609375	-2.34222412109375	
13	0.052000000000000005	0.0	0.0	0.0	0.0	4.569	4.614	4.614	4.5360000000000005	9.8694977935791	0.05386953735351562	0.027533319091796873	2.658843994140625	-3.8299560546875	-0.9765625	9.789890588378906	0.41060558471679687	0.11851298217773437	0.7171630859375	-5.16510009765625	-3.10516357421875	10.015544094848632	0.13766659545898435	-0.277727392578125	3.90625	-4.779815673828125	-2.170562744140625	
14	0.056	0.0	0.0	0.0	0.0	4.569	4.599	4.614	4.551	9.873687646484374	0.06284779357910156	0.023343466186523436	2.529144287109375	-3.66973876953125	-0.8087158203125	9.777919580078125	0.40880993347167965	0.1149216796875	1.007080078125	-4.95147705078125	-2.9449462890625	10.013748443603514	0.1370680450439453	-0.2771288421630859	3.658294677734375	-4.482269287109375	-2.162933349609375	
15	0.06	0.0	0.0	0.0	0.0	4.569	4.617	4.617	4.557	9.872490545654296	0.07242460021972656	0.018555062866210937	2.689361572265625	-3.887176513671875	-1.010894775390625	9.779715231323241	0.42497079467773435	0.11073182678222655	0.934600830078125	-5.1116943359375	-3.025054931640625	10.013748443603514	0.1484405029296875	-0.2747346405029297	3.665924072265625	-4.57763671875	-2.12860107421875	
16	0.064	0.0	0.0	0.0	0.0	4.5600000000000005	4.611	4.614	4.563	9.866505041503906	0.07481880187988281	0.01975216369628906	2.498626708984375	-3.54766845703125	-0.89263916015625	9.783905084228515	0.44113165588378905	0.12389993591308593	1.216888427734375	-5.107879638671875	-2.857208251953125	10.012551342773437	0.16041151123046873	-0.2753331909179687	3.4942626953125	-4.669189453125	-2.246856689453125	
17	0.068	0.0	0.0	0.0	0.0	4.554	4.614	4.605	4.566	9.872490545654296	0.08678981018066406	0.015562310791015624	2.559661865234375	-3.57818603515625	-0.911712646484375	9.78629928588867	0.4447229583740234	0.11731588134765625	0.92315673828125	-4.791259765625	-2.948760986328125	10.013748443603514	0.16699556579589842	-0.26336218261718747	3.59344482421875	-4.619598388671875	-2.23541259765625	
18	0.07200000000000001	0.0	0.0	0.0	0.0	4.566	4.614	4.617	4.539	9.873687646484374	0.0939724151611328	0.014963760375976562	2.4261474609375	-3.71551513671875	-0.926971435546875	9.788693487548828	0.4495113616943359	0.13108254089355467	0.759124755859375	-4.802703857421875	-3.10516357421875	10.019733947753906	0.18136077575683593	-0.26755203552246093	3.894805908203125	-4.69207763671875	-2.532958984375	
19	0.076	0.0	0.0	0.0	0.0	4.572	4.614	4.614	4.527	9.872490545654296	0.10295067138671875	0.015562310791015624	2.506256103515625	-3.917694091796875	-0.934600830078125	9.781510882568359	0.4572925170898437	0.13407529296874998	0.9613037109375	-5.077362060546875	-3.0670166015625	10.014945544433592	0.1849520782470703	-0.2705447875976562	3.77655029296875	-4.6844482421875	-2.201080322265625	
20	0.08	0.0	0.0	0.0	0.0	4.563	4.611	4.614	4.551	9.859322436523437	0.12330138549804687	0.0430956298828125	2.597808837890625	-3.76129150390625	-1.117706298828125	9.788693487548828	0.4513070129394531	0.12389993591308593	0.812530517578125	-5.11932373046875	-2.86102294921875	10.02392380065918	0.18854338073730467	-0.27293898925781246	3.41796875	-4.425048828125	-2.223968505859375	
21	0.084	0.0	0.0	0.0	0.0	4.566	4.617	4.617	4.554	9.885658654785155	0.11252747802734374	0.016759411621093748	2.67791748046875	-3.662109375	-1.007080078125	9.823409411621093	0.4746504791259765	0.10474632263183593	0.87738037109375	-4.7149658203125	-3.01361083984375	10.045471615600585	0.2088940948486328	-0.28790274963378903	3.631591796875	-4.459381103515625	-2.14385986328125	
22	0.088	0.0	0.0	0.0	0.0	4.563	4.617	4.617	4.563	9.840767373657226	0.18136077575683593	0.04129997863769531	2.38800048828125	-3.757476806640625	-0.827789306640625	9.76894132385254	0.5740098480224609	0.14245499877929688	1.07574462890625	-4.99725341796875	-2.95257568359375	10.019733947753906	0.3112462158203125	-0.24121581726074218	3.681182861328125	-4.566192626953125	-2.1209716796875	
23	0.092	0.0	0.0	0.0	0.0	4.554	4.614	4.614	4.569	9.87727894897461	0.0430956298828125	0.03172317199707031	2.307891845703125	-3.5247802734375	-0.9307861328125	9.79946739501953	0.3585316986083984	0.10654197387695312	0.682830810546875	-5.100250244140625	-2.89154052734375	10.050858569335936	0.08738836059570312	-0.3064578125	3.589630126953125	-4.886627197265625	-2.17437744140625	
24	0.096	0.0	0.0	0.0	0.0	4.569	4.614	4.62	4.551	9.871293444824218	0.20470424194335937	0.02454056701660156	2.841949462890625	-3.963470458984375	-0.949859619140625	9.792284790039062	0.6039373687744141	0.14903905334472656	0.9002685546875	-4.93621826171875	-3.108978271484375	10.020332498168944	0.31543606872558594	-0.24301146850585936	3.65447998046875	-4.6844482421875	-2.29644775390625	
25	0.1	0.0	0.0	0.0	0.0	4.563	4.617	4.617	4.533	9.889848507690429	0.17178396911621094	0.04908113403320312	2.54058837890625	-3.719329833984375	-0.759124755859375	9.77432827758789	0.5045779998779296	0.1514332550048828	0.60272216796875	-4.7149658203125	-2.7008056640625	10.038887561035155	0.23044190979003906	-0.2855085479736328	3.692626953125	-4.543304443359375	-2.086639404296875	
26	0.10400000000000001	0.0	0.0	0.0	0.0	4.578	4.614	4.614	4.53	9.860519537353515	0.16699556579589842	0.04249707946777344	2.674102783203125	-3.8909912109375	-1.10626220703125	9.746794958496093	0.5584475372314452	0.16699556579589842	0.934600830078125	-4.657745361328125	-3.21197509765625	10.006565838623047	0.21727380065917967	-0.22744915771484372	3.559112548828125	-4.589080810546875	-2.384185791015625	
27	0.108	0.0	0.0	0.0	0.0	4.575	4.605	4.611	4.554	9.886257205200195	0.13826514587402344	0.06703764648437499	2.681732177734375	-3.7384033203125	-1.15203857421875	9.813234054565429	0.469263525390625	0.1292868896484375	0.995635986328125	-4.94384765625	-2.971649169921875	9.980229620361328	0.19333178405761717	-0.1867477294921875	3.84521484375	-4.436492919921875	-2.422332763671875	
28	0.112	0.0	0.0	0.0	0.0	4.563	4.617	4.617	4.557	9.864709390258788	0.25438392639160157	0.052073886108398436	2.765655517578125	-3.658294677734375	-1.049041748046875	9.718064538574218	0.7649474304199219	0.1927332336425781	0.9002685546875	-4.703521728515625	-3.185272216796875	9.968857162475585	0.421978042602539	-0.19153613281249998	3.59344482421875	-4.283905029296875	-2.101898193359375	
29	0.116	0.0	0.0	0.0	0.0	4.557	4.617	4.614	4.5600000000000005	9.875483297729492	0.2059013427734375	-0.002992752075195312	2.803802490234375	-4.0130615234375	-0.885009765625	9.74200655517578	0.49739539489746093	0.14724340209960937	0.762939453125	-4.863739013671875	-2.6702880859375	9.93354268798828	0.13826514587402344	-0.19572598571777342	3.711700439453125	-4.627227783203125	-2.14385986328125	
30	0.12	0.0	0.0	0.0	0.0	4.554	4.611	4.6080000000000005	4.566	9.850344180297851	0.21248539733886718	0.07003039855957031	2.712249755859375	-4.070281982421875	-0.995635986328125	9.740809454345703	0.7134720947265625	0.2184709014892578	1.026153564453125	-4.833221435546875	-3.253936767578125	9.963470208740233	0.20290859069824219	-0.15322890625	3.47900390625	-4.49371337890625	-2.31170654296875	
31	0.124	0.0	0.0	0.0	0.0	4.566	4.614	4.617	4.542	9.884461553955077	0.23104046020507812	0.008379705810546874	2.69317626953125	-3.9520263671875	-0.8697509765625	9.756970315551758	0.565031591796875	0.1657984649658203	0.86212158203125	-4.993438720703125	-2.826690673828125	9.944915145874022	0.24480711975097655	-0.16759411621093748	3.7384033203125	-4.802703857421875	-2.101898193359375	
32	0.128	0.0	0.0	0.0	0.0	4.569	4.617	4.617	4.53	9.858125335693359	0.15502455749511718	0.07721300354003906	2.994537353515625	-4.039764404296875	-1.018524169921875	9.755773214721678	0.5099649536132812	0.21787235107421873	0.751495361328125	-4.917144775390625	-3.22723388671875	9.913191973876952	0.19931728820800781	-0.1562216583251953	3.604888916015625	-4.589080810546875	-2.4566650390625	
33	0.132	0.0	0.0	0.0	0.0	4.569	4.614	4.614	4.539	9.883264453125	0.1945288848876953	0.02154781494140625	2.696990966796875	-3.734588623046875	-0.93841552734375	9.771335525512695	0.5111620544433594	0.18136077575683593	0.9918212890625	-5.092620849609375	-2.86865234375	9.95987890625	0.16699556579589842	-0.1227028350830078	3.387451171875	-4.428863525390625	-1.9989013671875	
34	0.136	0.0	0.0	0.0	0.0	4.569	4.599	4.614	4.551	9.867702142333984	0.12808978881835936	0.06464344482421874	3.23486328125	-4.253387451171875	-0.99945068359375	9.78629928588867	0.5243301635742187	0.23343466186523437	0.843048095703125	-5.01251220703125	-3.223419189453125	9.950900650024414	0.19871873779296872	-0.13766659545898435	3.391265869140625	-4.459381103515625	-2.368927001953125	
35	0.14	0.0	0.0	0.0	0.0	4.563	4.614	4.614	4.5600000000000005	9.898228213500976	0.20171148986816406	0.001197100830078125	2.60162353515625	-3.726959228515625	-0.80108642578125	9.738415252685547	0.49679684448242184	0.18435352783203124	0.66375732421875	-5.130767822265625	-2.773284912109375	9.982025271606444	0.30047230834960936	-0.12330138549804687	3.490447998046875	-4.4097900390625	-1.926422119140625	
36	0.14400000000000002	0.0	0.0	0.0	0.0	4.563	4.611	4.614	4.566	9.850344180297851	0.10773907470703124	0.09995791931152344	3.37982177734375	-4.146575927734375	-1.148223876953125	9.76116016845703	0.5123591552734374	0.27174188842773433	0.972747802734375	-4.779815673828125	-3.047943115234375	9.916184725952148	0.1592144104003906	-0.09277531433105468	3.696441650390625	-4.3182373046875	-2.376556396484375	
37	0.148	0.0	0.0	0.0	0.0	4.566	4.614	4.605	4.566	9.828796365356444	0.15502455749511718	0.22685060729980466	2.376556396484375	-3.45611572265625	-0.79345703125	9.79946739501953	0.4572925170898437	0.26396073303222656	0.621795654296875	-4.901885986328125	-2.64739990234375	10.024522351074218	0.2549824768066406	-0.09457096557617187	3.4942626953125	-4.604339599609375	-1.865386962890625	
38	0.152	0.0	0.0	0.0	0.0	4.566	4.614	4.617	4.5360000000000005	9.866505041503906	0.08559270935058594	0.07601590270996093	3.368377685546875	-4.119873046875	-1.0833740234375	9.771335525512695	0.48722003784179685	0.2424129180908203	0.865936279296875	-4.817962646484375	-3.276824951171875	10.13226142578125	-0.03531447448730469	-0.3585316986083984	3.82232666015625	-4.72259521484375	-2.437591552734375	
39	0.156	0.0	0.0	0.0	0.0	4.569	4.614	4.614	4.527	9.798270294189452	0.18375497741699218	0.25797522888183594	2.574920654296875	-3.719329833984375	-0.60272216796875	9.788693487548828	0.4836287353515625	0.2699462371826172	0.728607177734375	-4.95147705078125	-2.52532958984375	9.987412225341796	0.28431144714355466	-0.076614453125	3.65447998046875	-4.7607421875	-2.002716064453125	
40	0.16	0.0	0.0	0.0	0.0	4.5600000000000005	4.611	4.614	4.548	9.866505041503906	0.05087678527832031	0.08918401184082031	1.18255615234375	-2.83050537109375	-0.92315673828125	9.889249957275391	0.18255787658691405	0.07122749938964844	0.946044921875	-5.0048828125	-3.101348876953125	10.17056865234375	-0.058657940673828124	-0.3585316986083984	3.71551513671875	-4.61578369140625	-2.532958984375	
41	0.164	0.0	0.0	0.0	0.0	4.566	4.617	4.617	4.557	9.817423907470703	0.14484920043945312	0.24899697265624998	2.552032470703125	-3.8299560546875	-0.8087158203125	9.819818109130859	0.4339490509033203	0.2328361114501953	0.61798095703125	-4.93621826171875	-2.498626708984375	10.049661468505859	0.3711012573242187	-0.201112939453125	3.780364990234375	-4.8065185546875	-2.20489501953125	
42	0.168	0.0	0.0	0.0	0.0	4.566	4.614	4.617	4.557	9.898826763916015	-0.18614917907714842	0.002992752075195312	1.132965087890625	-2.857208251953125	-0.782012939453125	9.886855755615233	0.19213468322753904	0.058657940673828124	0.946044921875	-5.252838134765625	-3.04412841796875	10.15680199279785	-0.05327098693847656	-0.3860650177001953	3.56292724609375	-4.50897216796875	-2.323150634765625	
43	0.17200000000000001	0.0	0.0	0.0	0.0	4.557	4.614	4.611	4.566	9.804255798339844	0.15502455749511718	0.2567781280517578	2.513885498046875	-3.612518310546875	-0.78582763671875	9.695319622802733	0.526125814819336	0.2519897247314453	0.7781982421875	-5.008697509765625	-2.750396728515625	10.041281762695311	0.40581718139648437	-0.20530279235839843	3.48663330078125	-4.5928955078125	-2.033233642578125	
44	0.176	0.0	0.0	0.0	0.0	4.566	4.614	4.614	4.554	9.9215716796875	-0.2501940734863281	-0.034715924072265626	0.946044921875	-2.620697021484375	-0.919342041015625	9.913191973876952	0.1005564697265625	0.011971008300781249	0.77056884765625	-4.871368408203125	-2.857208251953125	10.17655415649414	-0.1370680450439453	-0.4273649963378906	3.36456298828125	-4.46319580078125	-1.979827880859375	
45	0.18	0.0	0.0	0.0	0.0	4.569	4.617	4.617	4.5360000000000005	9.904812268066406	0.08439560852050781	-0.011372457885742187	2.429962158203125	-3.5247802734375	-1.010894775390625	9.67137760620117	0.5285200164794922	0.24061726684570311	0.698089599609375	-5.039215087890625	-2.7618408203125	10.041281762695311	0.4369418029785156	-0.23882161560058593	3.635406494140625	-4.57000732421875	-1.964569091796875	
46	0.184	0.0	0.0	0.0	0.0	4.569	4.614	4.614	4.533	9.916184725952148	-0.23882161560058593	-0.022146365356445312	0.682830810546875	-2.471923828125	-0.92315673828125	9.840168823242188	0.08080430603027343	0.054468087768554684	1.148223876953125	-4.970550537109375	-2.9754638671875	10.095749850463866	-0.05386953735351562	-0.3345896820068359	3.582000732421875	-4.81414794921875	-2.048492431640625	
47	0.188	0.0	0.0	0.0	0.0	4.566	4.6080000000000005	4.614	4.554	9.909600671386718	0.04608838195800781	-0.04189852905273437	2.05230712890625	-3.4942626953125	-1.110076904296875	9.667786303710937	0.5099649536132812	0.2376245147705078	0.79345703125	-4.909515380859375	-2.78472900390625	10.05564697265625	0.41060558471679687	-0.26695348510742184	3.66973876953125	-4.703521728515625	-2.017974853515625	
48	0.192	0.0	0.0	0.0	0.0	4.5600000000000005	4.617	4.617	4.5600000000000005	9.919776028442381	-0.2699462371826172	-0.047285482788085934	0.484466552734375	-2.475738525390625	-0.9613037109375	9.85692823486328	0.04848258361816406	0.0143652099609375	0.9307861328125	-4.596710205078125	-2.98309326171875	10.109516510009765	-0.08798691101074219	-0.364517202758789	3.322601318359375	-4.69970703125	-2.0599365234375	
49	0.196	0.0	0.0	0.0	0.0	4.566	4.614	4.614	4.557	9.903615167236328	0.02633621826171875	-0.05327098693847656	1.99127197265625	-3.56292724609375	-1.232147216796875	9.694122521972655	0.8714894042968749	0.1849520782470703	1.74713134765625	-4.955291748046875	-3.513336181640625	9.907206469726562	0.3274070770263672	-0.1610100616455078	3.77655029296875	-4.444122314453125	-2.47955322265625	
50	0.2	0.0	0.0	0.0	0.0	4.554	4.611	4.6080000000000005	4.569	9.873687646484374	0.10295067138671875	0.044891281127929686	2.84576416015625	-4.108428955078125	-0.453948974609375	9.872490545654296	0.03591302490234375	-0.0017956512451171875	1.270294189453125	-5.016326904296875	-3.0059814453125	10.101136804199218	-0.08259995727539061	-0.36930560607910157	3.498077392578125	-4.589080810546875	-2.166748046875	
51	0.20400000000000001	0.0	0.0	0.0	0.0	4.569	4.614	4.614	4.542	9.931747036743163	0.020949264526367185	-0.08678981018066406	1.712799072265625	-3.04412841796875	-0.9765625	9.709086282348633	0.9283516937255859	0.18136077575683593	1.7852783203125	-4.96673583984375	-3.448486328125	9.91558617553711	0.3699041564941406	-0.17896657409667968	3.459930419921875	-4.3182373046875	-2.437591552734375	
52	0.20800000000000002	0.0	0.0	0.0	0.0	4.569	4.617	4.617	4.53	9.866505041503906	0.10594342346191406	0.04908113403320312	2.994537353515625	-4.154205322265625	-0.720977783203125	9.765350021362304	0.5291185668945312	0.19632453613281248	0.74005126953125	-4.993438720703125	-2.857208251953125	9.913191973876952	0.06823474731445311	-0.12988544006347655	3.498077392578125	-4.642486572265625	-2.086639404296875	
53	0.212	0.0	0.0	0.0	0.0	4.566	4.614	4.614	4.542	9.928754284667969	0.027533319091796873	-0.08200140686035155	3.810882568359375	-4.184722900390625	-1.041412353515625	9.689932669067382	0.9983820922851562	0.19871873779296872	1.895904541015625	-5.252838134765625	-3.551483154296875	9.891644158935547	0.3920505218505859	-0.16220716247558592	3.696441650390625	-4.57763671875	-2.544403076171875	
54	0.216	0.0	0.0	0.0	0.0	4.566	4.599	4.614	4.554	9.864709390258788	0.20290859069824219	0.04249707946777344	2.872467041015625	-3.90625	-0.640869140625	9.757568865966796	0.5853823059082031	0.18614917907714842	0.823974609375	-5.283355712890625	-2.69317626953125	9.9215716796875	0.1370680450439453	-0.13467384338378904	3.719329833984375	-4.627227783203125	-2.17437744140625	
55	0.22	0.0	0.0	0.0	0.0	4.5600000000000005	4.617	4.617	4.5600000000000005	9.843161575317382	0.17238251953125	0.09157821350097656	4.2266845703125	-4.64630126953125	-1.18255615234375	9.681552963256836	0.9810241302490234	0.2693476867675781	0.457763671875	-4.741668701171875	-3.482818603515625	9.90900212097168	0.36691140441894526	-0.15442600708007811	3.7078857421875	-4.467010498046875	-2.76947021484375	
56	0.224	0.0	0.0	0.0	0.0	4.557	4.614	4.614	4.563	9.858723886108399	0.2651578338623047	0.04369418029785156	3.2958984375	-3.84521484375	-0.74005126953125	9.739013803100585	0.6212953308105469	0.22026655273437498	0.6103515625	-4.940032958984375	-2.83050537109375	9.89583401184082	0.15562310791015624	-0.10893617553710937	3.650665283203125	-4.604339599609375	-2.285003662109375	
57	0.228	0.0	0.0	0.0	0.0	4.563	4.614	4.605	4.5600000000000005	9.849745629882811	0.2346317626953125	0.0909796630859375	4.360198974609375	-4.64630126953125	-1.010894775390625	9.758765966796874	0.6607996582031249	0.2771288421630859	0.591278076171875	-4.901885986328125	-3.692626953125	9.916783276367187	0.16879121704101563	-0.20530279235839843	3.749847412109375	-4.337310791015625	-2.99072265625	
58	0.232	0.0	0.0	0.0	0.0	4.563	4.614	4.617	4.539	9.941922393798828	0.25258827514648435	-0.10953472595214843	3.475189208984375	-4.032135009765625	-0.751495361328125	9.752780462646484	0.6027402679443359	0.20530279235839843	0.095367431640625	-5.13458251953125	-2.22015380859375	9.891644158935547	0.14245499877929688	-0.11432312927246092	3.631591796875	-4.49371337890625	-1.89971923828125	
59	0.23600000000000002	0.0	0.0	0.0	0.0	4.575	4.614	4.614	4.527	9.873687646484374	0.26336218261718747	0.08200140686035155	4.76837158203125	-4.852294921875	-1.04522705078125	9.737218151855469	0.6973112335205077	0.2885013000488281	0.484466552734375	-4.98199462890625	-3.7689208984375	9.910199221801758	0.16160861206054686	-0.181959326171875	3.77655029296875	-4.314422607421875	-2.872467041015625	
60	0.24	0.0	0.0	0.0	0.0	4.566	4.6080000000000005	4.614	4.545	9.93414123840332	0.29388825378417965	-0.11013327636718749	3.467559814453125	-4.82177734375	-0.858306884765625	9.773131176757811	0.469263525390625	0.11731588134765625	0.1220703125	-5.062103271484375	-2.1514892578125	10.01015714111328	0.3902548706054687	-0.10414777221679687	3.4637451171875	-4.589080810546875	-1.834869384765625	
61	0.244	0.0	0.0	0.0	0.0	4.566	4.617	4.617	4.554	9.89583401184082	0.3064578125	0.07601590270996093	5.19561767578125	-5.069732666015625	-1.02996826171875	9.728239895629882	0.7224503509521484	0.29388825378417965	0.431060791015625	-4.833221435546875	-3.620147705078125	9.91438907470703	0.1580173095703125	-0.2059013427734375	3.70025634765625	-4.73785400390625	-3.055572509765625	
62	0.248	0.0	0.0	0.0	0.0	4.569	4.617	4.617	4.557	9.929352835083007	0.2741360900878906	-0.076614453125	3.73077392578125	-4.352569580078125	-0.827789306640625	9.779715231323241	0.4429273071289062	0.13407529296874998	0.057220458984375	-5.157470703125	-2.23541259765625	10.011952792358398	0.33698388366699217	-0.08379705810546874	3.53240966796875	-4.58526611328125	-1.65557861328125	
63	0.252	0.0	0.0	0.0	0.0	4.554	4.614	4.611	4.569	9.87009634399414	0.007781155395507812	-0.05686228942871093	3.13568115234375	-4.108428955078125	-1.323699951171875	9.935936889648437	-0.07242460021972656	-0.044891281127929686	0.873565673828125	-5.07354736328125	-3.18145751953125	10.259154113769531	-0.1610100616455078	-0.489015689086914	3.60870361328125	-4.60052490234375	-2.338409423828125	
64	0.256	0.0	0.0	0.0	0.0	4.569	4.614	4.617	4.551	9.929352835083007	0.3112462158203125	-0.04967968444824218	3.749847412109375	-4.669189453125	-0.83160400390625	9.753977563476562	0.4734533782958984	0.13766659545898435	0.42724609375	-5.24139404296875	-2.117156982421875	9.989207876586914	0.40282442932128903	-0.0909796630859375	3.509521484375	-4.37164306640625	-1.7242431640625	
65	0.26	0.0	0.0	0.0	0.0	4.566	4.614	4.617	4.53	9.866505041503906	-0.07122749938964844	-0.04848258361816406	2.681732177734375	-3.7841796875	-1.079559326171875	9.917980377197265	-0.1322796417236328	0.0017956512451171875	0.652313232421875	-4.734039306640625	-2.948760986328125	10.257957012939453	-0.2280477081298828	-0.47165772705078124	3.559112548828125	-4.5013427734375	-2.590179443359375	
66	0.264	0.0	0.0	0.0	0.0	4.572	4.614	4.614	4.5360000000000005	9.92755718383789	0.28790274963378903	-0.02693476867675781	1.514434814453125	-3.0670166015625	-1.789093017578125	9.665990652465819	0.6021417175292968	0.3226186737060547	0.89263916015625	-5.168914794921875	-2.590179443359375	10.022128149414062	0.4147954376220703	-0.06823474731445311	3.711700439453125	-4.978179931640625	-2.079010009765625	
67	0.268	0.0	0.0	0.0	0.0	4.572	4.6080000000000005	4.614	4.557	9.879673150634765	-0.09217676391601562	-0.07003039855957031	2.666473388671875	-3.70025634765625	-1.0986328125	9.903615167236328	-0.04548983154296875	0.00718260498046875	0.95367431640625	-4.985809326171875	-3.093719482421875	10.24718310546875	-0.17058686828613281	-0.4626794708251953	3.574371337890625	-4.43267822265625	-2.307891845703125	
68	0.272	0.0	0.0	0.0	0.0	4.563	4.617	4.617	4.557	9.636063131713867	0.0796072052001953	0.3902548706054687	1.25885009765625	-2.880096435546875	-0.70953369140625	9.673771807861328	0.5027823486328125	0.3232172241210937	0.896453857421875	-4.852294921875	-2.54058837890625	9.991003527832031	0.5303156677246094	-0.16998831787109375	3.582000732421875	-4.878997802734375	-1.9989013671875	
69	0.276	0.0	0.0	0.0	0.0	4.563	4.614	4.617	4.5600000000000005	9.885658654785155	-0.17896657409667968	-0.059256491088867186	2.285003662109375	-3.734588623046875	-1.209259033203125	9.932345587158203	-0.06643909606933593	0.00239420166015625	1.62506103515625	-5.04302978515625	-2.994537353515625	10.276512075805664	-0.22445640563964842	-0.43933600463867184	3.749847412109375	-4.550933837890625	-2.64739990234375	
70	0.28	0.0	0.0	0.0	0.0	4.548	4.614	4.6080000000000005	4.569	9.64623848876953	0.09337386474609374	0.40761283264160153	1.07574462890625	-2.87628173828125	-0.67901611328125	9.700108026123047	0.5476736297607422	0.3130418670654297	1.01470947265625	-4.95147705078125	-2.62451171875	9.996989031982421	0.5811924530029297	-0.17357962036132812	3.604888916015625	-4.50897216796875	-2.155303955078125	
71	0.28400000000000003	0.0	0.0	0.0	0.0	4.569	4.614	4.617	4.545	9.83178911743164	-0.36212300109863277	0.1693897674560547	-1.071929931640625	-1.384735107421875	-0.640869140625	9.923965881347655	-0.03531447448730469	0.0017956512451171875	1.19781494140625	-4.894256591796875	-2.99072265625	10.128670123291014	-0.08678981018066406	-0.34237083740234375	3.47900390625	-4.512786865234375	-1.79290771484375	
72	0.28800000000000003	0.0	0.0	0.0	0.0	4.566	4.617	4.617	4.53	9.6151138671875	0.06943184814453125	0.41419688720703124	1.2664794921875	-2.9449462890625	-0.8697509765625	9.677363110351562	0.9923965881347656	0.29867665710449215	1.956939697265625	-5.138397216796875	-3.505706787109375	10.006565838623047	0.5345055206298828	-0.16041151123046873	3.574371337890625	-4.57000732421875	-1.89971923828125	
73	0.292	0.0	0.0	0.0	0.0	4.569	4.614	4.614	4.545	9.83178911743164	-0.4010287780761719	0.17896657409667968	-1.2054443359375	-1.255035400390625	-0.690460205078125	9.95987890625	-0.15682020874023436	-0.037110125732421874	1.041412353515625	-5.1727294921875	-2.948760986328125	10.156203442382813	-0.19512743530273435	-0.39145197143554683	3.22723388671875	-4.650115966796875	-1.781463623046875	
74	0.296	0.0	0.0	0.0	0.0	4.569	4.617	4.614	0.003	9.613916766357422	0.1274912384033203	0.4034229797363281	1.262664794921875	-2.61688232421875	-0.9765625	9.668983404541015	1.0217255584716796	0.2932897033691406	1.995086669921875	-4.878997802734375	-3.437042236328125	9.868300692749022	0.5285200164794922	-0.09038111267089843	3.818511962890625	-4.78363037109375	-2.635955810546875	
75	0.3	0.0	0.0	0.0	0.0	0.006	0.003	0.006	0.006	9.816226806640625	-0.2932897033691406	0.2154781494140625	-0.965118408203125	-1.373291015625	-0.49591064453125	9.879673150634765	0.5662286926269531	0.27174188842773433	0.6561279296875	-5.2032470703125	-2.887725830078125	10.133458526611328	-0.13587094421386717	-0.37708676147460934	3.42559814453125	-4.50897216796875	-1.708984375	
76	0.304	0.0	0.0	0.0	0.0	0.003	0.003	0.006	0.006	9.922768780517577	0.15203180541992187	-0.07003039855957031	1.819610595703125	-2.9449462890625	-1.110076904296875	9.689932669067382	0.8882488159179687	0.28490999755859375	1.79290771484375	-4.69970703125	-3.2501220703125	9.888651406860351	0.4321533996582031	-0.10953472595214843	3.513336181640625	-4.650115966796875	-2.41851806640625	
77	0.308	0.0	0.0	0.0	0.0	0.006	0.003	0.006	0.006	9.82580361328125	-0.297479556274414	0.22086510314941404	-0.820159912109375	-1.636505126953125	-0.640869140625	9.733626849365233	0.49320554199218747	0.2759317413330078	0.675201416015625	-5.0811767578125	-3.04412841796875	10.154407791137695	-0.23822306518554687	-0.39983167724609375	3.589630126953125	-4.505157470703125	-2.132415771484375	
78	0.312	0.0	0.0	0.0	0.0	0.003	0.003	0.006	0.003	9.907206469726562	0.22026655273437498	-0.05566518859863281	1.89971923828125	-3.009796142578125	-1.194000244140625	9.655815295410155	0.9361328491210937	0.3076549133300781	0.93841552734375	-4.82940673828125	-3.72314453125	9.874286196899414	0.5021837982177734	-0.1197100830078125	3.509521484375	-4.47845458984375	-2.529144287109375	
79	0.316	0.0	0.0	0.0	0.0	0.003	0.006	0.006	0.003	9.840767373657226	-0.24361001892089842	0.2316390106201172	4.57000732421875	-5.123138427734375	-0.6256103515625	9.71686743774414	0.5165490081787109	0.26755203552246093	0.640869140625	-4.848480224609375	-2.98309326171875	9.867103591918944	0.2561795776367187	-0.1083376251220703	3.71551513671875	-4.55474853515625	-2.178192138671875	
80	0.32	0.0	0.0	0.0	0.0	0.003	0.006	0.006	0.003	9.90900212097168	0.18255787658691405	-0.07362170104980469	2.18963623046875	-3.276824951171875	-1.19781494140625	9.701305126953125	0.9762357269287109	0.24301146850585936	1.06048583984375	-4.772186279296875	-3.80706787109375	9.897629663085937	0.4961982940673828	-0.14006079711914063	3.65447998046875	-4.5928955078125	-2.765655517578125	
81	0.324	0.0	0.0	0.0	0.0	0.006	0.003	0.003	0.003	9.963470208740233	0.6290764862060546	-0.18614917907714842	4.791259765625	-5.1727294921875	-0.58746337890625	9.725247143554688	0.4483142608642578	0.2699462371826172	0.762939453125	-5.001068115234375	-2.99835205078125	9.854534033203125	0.21428104858398436	-0.11552023010253906	3.753662109375	-4.69207763671875	-2.0294189453125	
82	0.328	0.0	0.0	0.0	0.0	0.003	0.003	0.003	0.003	9.898228213500976	0.16879121704101563	-0.05327098693847656	2.288818359375	-3.34930419921875	-1.041412353515625	9.679158761596678	0.8649053497314453	0.277727392578125	1.2969970703125	-4.970550537109375	-3.97491455078125	9.905410818481444	0.07362170104980469	-0.1610100616455078	3.673553466796875	-4.245758056640625	-3.063201904296875	
83	0.332	0.0	0.0	0.0	0.0	0.006	0.003	0.003	0.006	9.982025271606444	0.6099228729248046	-0.2166752502441406	4.825592041015625	-5.306243896484375	-0.89263916015625	9.785700735473633	0.6703764648437499	0.11552023010253906	0.18310546875	-5.157470703125	-2.124786376953125	9.871293444824218	0.3190273712158203	-0.14185644836425781	3.84521484375	-4.650115966796875	-2.201080322265625	
84	0.336	0.0	0.0	0.0	0.0	0.006	0.003	0.003	0.006	9.94012674255371	0.32920272827148434	0.008978256225585938	6.847381591796875	-6.381988525390625	-0.885009765625	9.673771807861328	0.8571241943359375	0.2771288421630859	1.087188720703125	-5.084991455078125	-3.864288330078125	9.906607919311522	0.08020575561523437	-0.16639701538085935	3.711700439453125	-4.550933837890625	-2.841949462890625	
85	0.34	0.0	0.0	0.0	0.0	0.006	0.006	0.006	0.006	9.984419473266602	0.5105635040283203	-0.21727380065917967	4.894256591796875	-5.619049072265625	-0.87738037109375	9.775525378417969	0.5231330627441406	0.15861585998535155	0.3814697265625	-5.2642822265625	-2.44140625	9.975441217041014	0.21188684692382811	-0.015562310791015624	3.528594970703125	-4.5013427734375	-1.91497802734375	
86	0.34400000000000003	0.0	0.0	0.0	0.0	0.003	0.003	0.003	0.006	9.94072529296875	0.3711012573242187	0.00718260498046875	7.190704345703125	-6.694793701171875	-1.071929931640625	9.91498762512207	0.3447650390625	0.03591302490234375	0.667572021484375	-4.8675537109375	-3.31878662109375	9.961674557495117	0.25797522888183594	-0.23822306518554687	3.810882568359375	-4.35638427734375	-2.7618408203125	
87	0.34800000000000003	0.0	0.0	0.0	0.0	0.006	0.006	0.006	0.003	9.996989031982421	0.5871779571533203	-0.2609679809570312	5.374908447265625	-5.7373046875	-0.5035400390625	9.721655841064452	0.5823895538330078	0.15322890625	0.362396240234375	-4.8675537109375	-1.857757568359375	9.9215716796875	0.40222587890625	0.0143652099609375	3.7841796875	-4.81414794921875	-1.6632080078125	
88	0.352	0.0	0.0	0.0	0.0	0.003	0.003	0.003	0.006	9.913790524291992	0.14724340209960937	0.01975216369628906	6.893157958984375	-6.427764892578125	-1.312255859375	9.899425314331054	0.1131260284423828	0.06763619689941405	0.6561279296875	-4.650115966796875	-3.5858154296875	10.280701928710936	-0.45968671875	-0.5596446380615234	3.765106201171875	-4.50897216796875	-2.643585205078125	
89	0.356	0.0	0.0	0.0	0.0	0.006	0.006	0.003	0.006	9.79348189086914	0.09516951599121093	0.3058592620849609	2.89154052734375	-3.95965576171875	-0.904083251953125	9.85094273071289	0.6075286712646484	0.18435352783203124	0.5950927734375	-4.955291748046875	-2.63214111328125	10.011354241943359	0.4740519287109375	-0.054468087768554684	3.86810302734375	-4.840850830078125	-1.9378662109375	
90	0.36	0.0	0.0	0.0	0.0	0.006	0.003	0.006	0.003	9.92755718383789	0.14425065002441406	-0.04189852905273437	6.320953369140625	-6.450653076171875	-0.946044921875	9.87727894897461	0.277727392578125	0.0047884033203125	0.79345703125	-4.791259765625	-3.170013427734375	10.262745416259765	-0.23044190979003906	-0.5758054992675781	3.582000732421875	-4.367828369140625	-2.300262451171875	
91	0.364	0.0	0.0	0.0	0.0	0.003	0.003	0.006	0.006	9.770736975097655	-0.30047230834960936	0.30526071166992186	2.410888671875	-3.841400146484375	-0.69427490234375	9.843161575317382	0.46686932373046874	0.14425065002441406	0.67138671875	-5.13458251953125	-2.628326416015625	9.982025271606444	0.31962592163085934	-0.07062894897460938	3.63922119140625	-4.60052490234375	-2.1820068359375	
92	0.368	0.0	0.0	0.0	0.0	0.006	0.006	0.006	0.006	9.955689053344726	-0.017357962036132813	-0.09038111267089843	-0.42724609375	-1.811981201171875	-0.957489013671875	9.97903251953125	0.03651157531738281	-0.09935936889648436	1.18255615234375	-5.023956298828125	-2.8228759765625	10.308833798217773	-0.0017956512451171875	-0.5518634826660156	3.574371337890625	-4.547119140625	-2.532958984375	
93	0.372	0.0	0.0	0.0	0.0	0.0	0.003	0.006	0.006	9.771934075927733	0.04967968444824218	0.26695348510742184	4.1656494140625	-4.82177734375	-0.89263916015625	9.80605144958496	0.6452373474121094	0.12509703674316405	0.705718994140625	-5.184173583984375	-2.15911865234375	10.01733974609375	0.70868369140625	-0.201112939453125	3.4637451171875	-4.7149658203125	-1.796722412109375	
94	0.376	0.0	0.0	0.0	0.0	0.003	0.003	0.006	0.003	9.835978970336914	-0.18375497741699218	-0.004189852905273437	-0.255584716796875	-1.7547607421875	-1.16729736328125	9.941922393798828	-0.1879448303222656	-0.12150573425292968	1.129150390625	-4.909515380859375	-2.887725830078125	10.250774407958984	-0.3746925598144531	-0.5458779785156249	3.505706787109375	-4.35638427734375	-2.407073974609375	
95	0.38	0.0	0.0	0.0	0.0	0.003	0.006	0.003	0.0	9.733028298950195	-0.22266075439453123	0.34057518615722654	3.192901611328125	-4.119873046875	-0.8392333984375	9.680954412841796	0.5213374114990235	0.23582886352539062	1.438140869140625	-4.924774169921875	-3.360748291015625	10.098742602539062	0.34177228698730466	-0.16160861206054686	3.238677978515625	-4.489898681640625	-2.18963623046875	
96	0.384	0.0	0.0	0.0	0.0	0.006	0.006	0.006	0.006	9.860519537353515	-0.22744915771484372	0.029927520751953124	-1.232147216796875	-1.544952392578125	-1.12152099609375	9.94072529296875	0.18435352783203124	-0.1227028350830078	1.148223876953125	-4.848480224609375	-3.0670166015625	10.180744009399413	0.08798691101074219	-0.4177881896972656	3.383636474609375	-4.741668701171875	-1.918792724609375	
97	0.388	0.0	0.0	0.0	0.0	0.006	0.003	0.003	0.003	9.764751470947266	0.08678981018066406	0.1484405029296875	-1.2359619140625	-1.399993896484375	-0.9765625	9.570821136474608	0.8900444671630859	0.24779987182617186	1.506805419921875	-5.035400390625	-2.655029296875	9.961076007080077	0.6943184814453125	-0.17118541870117188	3.53240966796875	-4.5623779296875	-1.758575439453125	
98	0.392	0.0	0.0	0.0	0.0	0.006	0.006	0.003	0.009000000000000001	9.836577520751952	-0.1753752716064453	0.07781155395507812	-1.068115234375	-1.2664794921875	-0.8392333984375	9.967061511230469	-0.2376245147705078	-0.06344634399414062	0.4425048828125	-4.72259521484375	-2.582550048828125	10.199299072265624	-0.43634325256347656	-0.41838674011230464	3.620147705078125	-4.79888916015625	-1.865386962890625	
99	0.396	0.0	0.0	0.0	0.0	0.003	0.006	0.003	0.003	9.840168823242188	-0.001197100830078125	0.09277531433105468	-1.010894775390625	-1.31988525390625	-1.201629638671875	9.683947164916992	0.5931634613037109	0.24301146850585936	1.251220703125	-4.917144775390625	-3.612518310546875	9.956287603759765	0.2214636535644531	-0.11252747802734374	3.8299560546875	-4.67681884765625	-2.9754638671875	
100	0.4	0.0	0.0	0.0	0.0	0.009000000000000001	0.003	0.003	0.006	9.809044201660155	-0.09696516723632811	0.12210428466796874	-1.09100341796875	-1.36566162109375	-0.965118408203125	9.724050042724608	0.32920272827148434	0.27353753967285155	0.843048095703125	-5.05828857421875	-3.337860107421875	10.134655627441406	0.297479556274414	-0.4525041137695312	3.3721923828125	-4.657745361328125	-1.728057861328125	
101	0.404	0.0	0.0	0.0	0.0	0.003	0.003	0.003	0.006	9.802460147094726	0.11013327636718749	0.16998831787109375	-1.369476318359375	-1.300811767578125	-1.373291015625	9.597157354736327	0.9175777862548827	0.296881005859375	1.9378662109375	-4.99725341796875	-3.017425537109375	9.828197814941406	0.23343466186523437	-0.03172317199707031	3.71551513671875	-4.566192626953125	-2.277374267578125	
102	0.40800000000000003	0.0	0.0	0.0	0.0	0.003	0.003	0.006	0.003	9.944316595458984	0.33099837951660155	-0.005985504150390624	2.26593017578125	-3.406524658203125	-0.972747802734375	9.785700735473633	0.479438882446289	0.2765302917480469	0.946044921875	-5.153656005859375	-2.910614013671875	10.238204849243164	-0.08200140686035155	-0.40761283264160153	3.696441650390625	-4.650115966796875	-2.22015380859375	
103	0.41200000000000003	0.0	0.0	0.0	0.0	0.0	0.003	0.003	0.003	9.860519537353515	0.1388636962890625	0.10654197387695312	-1.36566162109375	-1.155853271484375	-1.194000244140625	9.756970315551758	0.7416039642333984	0.25917232971191406	1.19781494140625	-4.8980712890625	-3.444671630859375	9.871891995239258	0.34536358947753903	-0.10175357055664062	3.665924072265625	-4.543304443359375	-2.72369384765625	
104	0.41600000000000004	0.0	0.0	0.0	0.0	0.003	0.003	0.003	0.006	9.916783276367187	0.40940848388671874	-0.04967968444824218	2.140045166015625	-3.70025634765625	-0.980377197265625	9.744400756835937	0.14963760375976562	0.36810850524902344	0.7781982421875	-5.04302978515625	-3.261566162109375	9.815628256225585	0.16220716247558592	-0.1466448516845703	3.856658935546875	-4.76837158203125	-2.044677734375	
105	0.42	0.0	0.0	0.0	0.0	0.003	0.003	0.006	0.003	9.91438907470703	0.105344873046875	0.08798691101074219	5.870819091796875	-1.678466796875	-1.1138916015625	9.737816702270507	1.486200680541992	0.29867665710449215	1.2359619140625	-5.084991455078125	-3.25775146484375	9.89523546142578	0.2980781066894531	-0.061650692749023434	3.582000732421875	-4.474639892578125	-2.376556396484375	
106	0.424	0.0	0.0	0.0	0.0	0.006	0.003	0.006	0.006	9.956886154174803	0.4908113403320312	-0.12030863342285156	3.368377685546875	-4.06646728515625	-1.0986328125	9.86291373901367	-0.7541735229492187	0.14125789794921875	-0.37384033203125	-4.82177734375	-1.89971923828125	9.861118087768554	0.15203180541992187	-0.17836802368164062	3.60107421875	-4.547119140625	-2.227783203125	
107	0.428	0.0	0.0	0.0	0.0	0.006	0.003	0.003	0.0	9.909600671386718	0.5165490081787109	0.03591302490234375	6.114959716796875	-5.657196044921875	-0.629425048828125	9.65940659790039	1.0271125122070313	0.30885201416015623	0.514984130859375	-5.062103271484375	-2.05230712890625	9.892242709350585	0.23642741394042968	-0.12868833923339842	3.70025634765625	-4.428863525390625	-2.445220947265625	
108	0.432	0.0	0.0	0.0	0.0	0.006	0.006	0.003	0.009000000000000001	9.949104998779296	0.41359833679199215	-0.08140285644531249	3.887176513671875	-4.53948974609375	-1.140594482421875	9.763554370117188	-0.0430956298828125	0.1801636749267578	0.667572021484375	-4.98199462890625	-3.44085693359375	9.881468801879882	0.12509703674316405	-0.1610100616455078	3.7384033203125	-4.852294921875	-2.46429443359375	
109	0.436	0.0	0.0	0.0	0.0	0.003	0.003	0.006	0.003	9.96586441040039	0.5237316131591797	-0.0005985504150390625	5.95855712890625	-5.98907470703125	-0.8087158203125	9.795277542114258	0.7499836700439453	0.02454056701660156	1.033782958984375	-4.96673583984375	-2.353668212890625	9.961674557495117	0.20290859069824219	-0.15682020874023436	3.936767578125	-4.444122314453125	-2.483367919921875	
110	0.44	0.0	0.0	0.0	0.0	0.003	0.006	0.003	0.006	9.959280355834961	-0.006584054565429687	-0.05686228942871093	6.313323974609375	-6.275177001953125	-0.9002685546875	9.668384854125977	0.7368155609130859	0.16519991455078123	0.69427490234375	-5.0201416015625	-3.444671630859375	9.99160207824707	0.22206220397949217	-0.05027823486328125	3.421783447265625	-4.535675048828125	-2.0294189453125	
111	0.444	0.0	0.0	0.0	0.0	0.006	0.003	0.006	0.006	9.937133990478515	0.5698199951171875	0.034715924072265626	6.76727294921875	-6.343841552734375	-0.72479248046875	9.815029705810547	0.032920272827148434	0.08200140686035155	0.713348388671875	-5.21087646484375	-2.3193359375	9.91558617553711	0.19512743530273435	-0.15861585998535155	3.528594970703125	-4.4403076171875	-2.52532958984375	
112	0.448	0.0	0.0	0.0	0.0	0.003	0.003	0.003	0.006	9.96047745666504	-0.09457096557617187	-0.0047884033203125	6.35528564453125	-6.237030029296875	-0.812530517578125	9.770736975097655	0.8445546356201171	0.1771709228515625	0.5340576171875	-4.932403564453125	-3.0670166015625	10.052654220581054	0.17357962036132812	-0.1083376251220703	3.505706787109375	-4.764556884765625	-2.02178955078125	
113	0.452	0.0	0.0	0.0	0.0	0.003	0.006	0.003	0.003	9.964667309570311	0.4273649963378906	0.015562310791015624	7.030487060546875	-6.580352783203125	-0.5340576171875	9.858723886108399	-0.03531447448730469	0.04967968444824218	0.682830810546875	-4.756927490234375	-3.01361083984375	9.937133990478515	0.17956512451171874	-0.2088940948486328	3.711700439453125	-4.367828369140625	-2.32696533203125	
114	0.456	0.0	0.0	0.0	0.0	0.009000000000000001	0.006	0.003	0.006	9.88386300354004	-0.14724340209960937	0.09636661682128905	5.207061767578125	-5.5999755859375	-0.89263916015625	9.700108026123047	0.8810662109374999	0.22086510314941404	0.904083251953125	-4.7760009765625	-2.37274169921875	9.95987890625	0.18854338073730467	-0.07422025146484375	3.7384033203125	-4.82940673828125	-2.166748046875	
115	0.46	0.0	0.0	0.0	0.0	0.0	0.003	0.006	0.006	9.855731134033203	-0.2855085479736328	-0.09217676391601562	1.590728759765625	-3.437042236328125	-0.705718994140625	9.950302099609374	0.20470424194335937	-0.029328970336914062	1.880645751953125	-5.2642822265625	-3.284454345703125	10.236409197998046	0.14604630126953125	-0.5129577056884765	3.60870361328125	-4.37164306640625	-2.28118896484375	
116	0.464	0.0	0.0	0.0	0.0	0.006	0.003	0.003	0.003	9.913790524291992	-0.10893617553710937	0.09277531433105468	5.2642822265625	-5.519866943359375	-0.7781982421875	9.807847100830077	0.4070142822265625	0.13407529296874998	0.682830810546875	-4.932403564453125	-2.529144287109375	10.067617980957031	0.13407529296874998	-0.0987608184814453	3.5858154296875	-4.535675048828125	-1.94549560546875	
117	0.468	0.0	0.0	0.0	0.0	0.003	0.003	0.003	0.003	9.794678991699218	-0.32920272827148434	0.029927520751953124	1.132965087890625	-2.483367919921875	-1.247406005859375	9.867702142333984	0.6512228515624999	-0.012569558715820313	2.01416015625	-5.229949951171875	-3.73077392578125	10.19570776977539	0.1388636962890625	-0.4638765716552734	3.7689208984375	-4.3792724609375	-2.46429443359375	
118	0.47200000000000003	0.0	0.0	0.0	0.0	0.003	0.003	0.003	0.003	9.854534033203125	-0.2424129180908203	0.1562216583251953	-0.553131103515625	-5.596160888671875	-0.5340576171875	9.78031378173828	0.18854338073730467	0.1975216369628906	0.8697509765625	-4.741668701171875	-2.811431884765625	10.02990930480957	0.39444472351074217	-0.1227028350830078	3.406524658203125	-4.688262939453125	-1.735687255859375	
119	0.47600000000000003	0.0	0.0	0.0	0.0	0.003	0.003	0.003	0.006	9.81263550415039	-0.3130418670654297	0.04129997863769531	0.152587890625	-2.3956298828125	-1.064300537109375	9.948506448364258	0.8415618835449218	-0.025737667846679687	1.73187255859375	-5.176544189453125	-2.948760986328125	10.359710583496094	0.1197100830078125	-0.5692214447021484	3.62396240234375	-4.5928955078125	-2.346038818359375	
120	0.48	0.0	0.0	0.0	0.0	0.003	0.006	0.003	0.003	9.589974749755859	0.18614917907714842	0.5027823486328125	-0.827789306640625	-1.25885009765625	-0.949859619140625	9.648034140014648	0.26336218261718747	0.48662148742675776	0.789642333984375	-5.062103271484375	-3.231048583984375	10.123881719970703	0.26216508178710934	-0.1274912384033203	3.62396240234375	-4.60052490234375	-2.11334228515625	
121	0.484	0.0	0.0	0.0	0.0	0.006	0.003	0.006	0.003	9.715071786499022	-0.022146365356445312	0.181959326171875	-1.018524169921875	-1.300811767578125	-1.110076904296875	9.83178911743164	0.7296329559326171	0.02454056701660156	0.3662109375	-4.962921142578125	-2.92205810546875	10.022726699829102	0.086191259765625	-0.4465186096191406	3.4332275390625	-4.7607421875	-2.231597900390625	
122	0.488	0.0	0.0	0.0	0.0	0.003	0.006	0.006	0.003	9.648034140014648	0.2166752502441406	0.38666356811523434	-0.64849853515625	-1.6632080078125	-0.9918212890625	9.682151513671874	0.48123453369140623	0.4261678955078125	0.804901123046875	-4.863739013671875	-3.1280517578125	10.151415039062499	0.3363853332519531	-0.16819266662597654	3.6773681640625	-4.871368408203125	-1.651763916015625	
123	0.492	0.0	0.0	0.0	0.0	0.009000000000000001	0.003	0.003	0.003	10.011354241943359	0.49200844116210934	-0.14305354919433594	0.9918212890625	-2.685546875	-0.8087158203125	9.89523546142578	0.39983167724609375	0.1945288848876953	0.31280517578125	-5.084991455078125	-2.750396728515625	10.205284576416014	-0.08678981018066406	-0.5063736511230469	3.387451171875	-4.734039306640625	-2.50244140625	
124	0.496	0.0	0.0	0.0	0.0	0.003	0.003	0.003	0.003	9.712677584838866	0.5548562347412109	0.26755203552246093	0.66375732421875	-2.0751953125	-0.87738037109375	9.60194575805664	0.7308300567626953	0.41539398803710936	0.54168701171875	-4.5928955078125	-2.979278564453125	9.99220062866211	0.41539398803710936	-0.17417817077636719	3.566741943359375	-4.673004150390625	-2.239227294921875	
125	0.5	0.0	0.0	0.0	0.0	0.003	0.006	0.006	0.006	10.002974536132811	0.40880993347167965	-0.18435352783203124	2.788543701171875	-3.74603271484375	-0.591278076171875	9.83777462158203	0.316034619140625	0.15741875915527342	-0.141143798828125	-4.638671875	-2.658843994140625	10.040084661865233	0.032920272827148434	-0.5027823486328125	3.498077392578125	-4.749298095703125	-2.31170654296875	
126	0.504	0.0	0.0	0.0	0.0	0.003	0.003	0.003	0.003	9.83178911743164	0.39863457641601563	0.058657940673828124	1.15203857421875	-2.506256103515625	-0.736236572265625	9.85632968444824	0.47165772705078124	-0.010773907470703125	0.7171630859375	-4.8370361328125	-2.948760986328125	9.97903251953125	0.2741360900878906	-0.09217676391601562	3.543853759765625	-4.57000732421875	-2.101898193359375	
127	0.508	0.0	0.0	0.0	0.0	0.003	0.006	0.006	0.0	10.01733974609375	0.5620388397216797	-0.2693476867675781	4.638671875	-5.096435546875	-1.04522705078125	9.892242709350585	0.3010708587646484	0.013766659545898436	0.438690185546875	-4.84466552734375	-2.98309326171875	10.021529598999022	0.004189852905273437	-0.5500678314208984	3.551483154296875	-4.688262939453125	-2.338409423828125	
128	0.512	0.0	0.0	0.0	0.0	0.003	0.003	0.003	0.003	9.834781869506836	-0.08379705810546874	-0.022744915771484374	4.76837158203125	-5.5084228515625	-0.698089599609375	9.658209497070311	0.642244595336914	0.11791443176269531	0.92315673828125	-4.95147705078125	-2.74658203125	9.753977563476562	0.46627077331542965	-0.04848258361816406	3.70025634765625	-4.840850830078125	-2.1209716796875	
129	0.516	0.0	0.0	0.0	0.0	0.006	0.006	0.003	0.006	9.990404977416992	0.16639701538085935	-0.2615665313720703	3.719329833984375	-4.9285888671875	-0.431060791015625	9.788094937133788	0.22744915771484372	-0.02693476867675781	1.705169677734375	-5.344390869140625	-3.322601318359375	9.99220062866211	-0.1005564697265625	-0.1610100616455078	3.570556640625	-4.589080810546875	-2.132415771484375	
130	0.52	0.0	0.0	0.0	0.0	0.006	0.003	0.003	0.006	9.816226806640625	0.12330138549804687	0.03531447448730469	4.856109619140625	-5.08880615234375	-1.201629638671875	9.777919580078125	0.4423287567138672	0.00718260498046875	1.129150390625	-4.863739013671875	-2.826690673828125	9.986813674926758	0.34536358947753903	-0.18076222534179687	3.597259521484375	-4.4708251953125	-2.3193359375	
131	0.524	0.0	0.0	0.0	0.0	0.006	0.006	0.003	0.006	9.811438403320311	0.3010708587646484	-0.03950432739257812	1.636505126953125	-5.779266357421875	-1.186370849609375	9.58339069519043	0.5345055206298828	0.12689268798828124	1.2969970703125	-4.947662353515625	-3.3721923828125	9.776123928833007	0.10354922180175781	-0.15502455749511718	3.597259521484375	-4.550933837890625	-2.29644775390625	
132	0.528	0.0	0.0	0.0	0.0	0.003	0.003	0.003	0.006	9.76116016845703	-0.3393780853271484	0.16879121704101563	1.438140869140625	-3.0670166015625	-0.514984130859375	9.744400756835937	0.41838674011230464	0.2723404388427734	1.186370849609375	-4.795074462890625	-3.017425537109375	9.873687646484374	0.2962824554443359	-0.005985504150390624	3.818511962890625	-4.451751708984375	-2.6092529296875	
133	0.532	0.0	0.0	0.0	0.0	0.003	0.003	0.006	0.003	9.93952819213867	0.18914193115234373	0.016160861206054686	2.02178955078125	-3.505706787109375	-1.220703125	9.804255798339844	0.48063598327636714	0.025737667846679687	1.27410888671875	-5.16510009765625	-3.5552978515625	10.004770187377929	-0.047884033203124995	-0.21308394775390624	3.6468505859375	-4.82940673828125	-2.368927001953125	
134	0.536	0.0	0.0	0.0	0.0	0.003	0.003	0.006	0.006	9.74200655517578	0.17238251953125	0.14125789794921875	2.361297607421875	-3.2196044921875	-1.148223876953125	9.704896429443359	0.4171896392822265	0.21308394775390624	1.28173828125	-4.917144775390625	-3.093719482421875	9.777919580078125	0.3429693878173828	-0.04249707946777344	3.887176513671875	-4.3182373046875	-2.8228759765625	
135	0.54	0.0	0.0	0.0	0.0	0.009000000000000001	0.006	0.006	0.006	9.925761532592773	-0.3555389465332031	-0.008379705810546874	0.530242919921875	-2.597808837890625	-0.766754150390625	9.737816702270507	0.430956298828125	0.32441432495117184	0.3204345703125	-4.9896240234375	-2.98309326171875	9.878476049804688	-0.0017956512451171875	-0.12509703674316405	3.765106201171875	-4.299163818359375	-1.60980224609375	
136	0.544	0.0	0.0	0.0	0.0	0.006	0.003	0.006	0.003	9.816825357055663	0.39324762268066404	-0.0526724365234375	3.79180908203125	-4.364013671875	-0.579833984375	9.828197814941406	0.2920926025390625	0.17956512451171874	0.698089599609375	-4.741668701171875	-3.1585693359375	9.968258612060547	0.1274912384033203	-0.06584054565429687	3.627777099609375	-4.215240478515625	-2.925872802734375	
137	0.548	0.0	0.0	0.0	0.0	0.003	0.003	0.003	0.003	10.027515103149414	0.5015852478027344	-0.2645592834472656	3.673553466796875	-4.306793212890625	-1.003265380859375	9.763554370117188	0.3854664672851562	0.19393033447265623	0.6561279296875	-5.107879638671875	-2.75421142578125	9.962273107910155	0.19991583862304688	0.025139117431640625	3.704071044921875	-4.482269287109375	-2.00653076171875	
138	0.552	0.0	0.0	0.0	0.0	0.006	0.003	0.003	0.006	9.821015209960937	-0.08379705810546874	0.105344873046875	4.425048828125	-4.7760009765625	-0.804901123046875	9.657610946655273	0.3172317199707031	0.04908113403320312	1.285552978515625	-4.9896240234375	-2.811431884765625	9.789890588378906	0.24839842224121092	-0.001197100830078125	3.7078857421875	-4.245758056640625	-2.780914306640625	
139	0.556	0.0	0.0	0.0	0.0	0.003	0.006	0.006	0.006	10.020931048583984	-0.6530185028076172	-0.13826514587402344	2.407073974609375	-4.024505615234375	-0.850677490234375	9.830592016601562	0.2747346405029297	0.2292448089599609	0.385284423828125	-5.268096923828125	-2.834320068359375	10.101136804199218	0.12629413757324218	0.03890577697753906	3.448486328125	-4.608154296875	-1.6937255859375	
140	0.56	0.0	0.0	0.0	0.0	0.003	0.003	0.003	0.003	9.89463691101074	0.2753331909179687	-0.0047884033203125	3.0517578125	-3.810882568359375	-0.492095947265625	9.923965881347655	0.5015852478027344	-0.029328970336914062	1.499176025390625	-4.60052490234375	-3.009796142578125	10.342951171874999	-0.05327098693847656	-0.6835445739746093	3.72314453125	-4.543304443359375	-2.574920654296875	
141	0.5640000000000001	0.0	0.0	0.0	0.0	0.006	0.006	0.006	0.003	9.641450085449218	0.7757213378906249	0.5279214660644531	5.5999755859375	-5.25665283203125	-1.216888427734375	9.728239895629882	0.3298012786865234	0.2454056701660156	0.308990478515625	-5.0048828125	-2.864837646484375	9.89523546142578	0.31483751831054685	0.040102877807617184	3.543853759765625	-4.314422607421875	-1.750946044921875	
142	0.5680000000000001	0.0	0.0	0.0	0.0	0.003	0.003	0.003	0.003	9.82580361328125	0.21009119567871093	0.12090718383789062	5.523681640625	-5.31768798828125	-1.6937255859375	9.932345587158203	0.5398924743652344	0.09696516723632811	1.36566162109375	-4.817962646484375	-2.6092529296875	10.392032305908202	-0.054468087768554684	-0.6973112335205077	3.47900390625	-4.566192626953125	-2.285003662109375	
143	0.5720000000000001	0.0	0.0	0.0	0.0	0.006	0.006	0.006	0.003	9.697115274047851	-0.3962403747558593	0.48243163452148435	1.071929931640625	-2.5177001953125	-0.518798828125	9.762955819702148	0.35134909362792965	0.40761283264160153	0.1983642578125	-4.924774169921875	-2.99072265625	10.181342559814453	0.3525461944580078	-0.3399766357421875	3.5858154296875	-4.772186279296875	-1.972198486328125	
144	0.5760000000000001	0.0	0.0	0.0	0.0	0.003	0.003	0.006	0.003	9.858125335693359	-0.4578910675048828	-0.01975216369628906	-0.60272216796875	-1.895904541015625	-0.3204345703125	9.821015209960937	0.6099228729248046	0.03591302490234375	1.19781494140625	-4.60052490234375	-2.925872802734375	10.231620794677733	0.04668693237304687	-0.6865373260498047	3.787994384765625	-4.459381103515625	-2.31170654296875	
145	0.58	0.0	0.0	0.0	0.0	0.006	0.003	0.006	0.006	9.692925421142577	0.7188590484619141	0.412401235961914	4.184722900390625	-4.6234130859375	-0.5645751953125	9.670779055786133	0.42497079467773435	0.51714755859375	0.81634521484375	-4.917144775390625	-2.880096435546875	10.050858569335936	0.42437224426269526	-0.2693476867675781	3.63922119140625	-4.932403564453125	-1.91497802734375	
146	0.584	0.0	0.0	0.0	0.0	0.003	0.006	0.006	0.003	9.8694977935791	0.2920926025390625	0.14305354919433594	2.32696533203125	-3.398895263671875	-1.583099365234375	10.064026678466796	0.5021837982177734	-0.2507926239013672	1.506805419921875	-4.974365234375	-2.979278564453125	10.380061297607421	-0.05386953735351562	-0.6566098052978515	3.47137451171875	-4.894256591796875	-1.728057861328125	
147	0.588	0.0	0.0	0.0	0.0	0.0	0.003	0.006	0.006	9.611522564697266	0.4070142822265625	0.4991910461425781	5.615234375	-5.336761474609375	-1.483917236328125	9.679757312011718	0.5141548065185546	0.47764323120117186	0.0152587890625	-5.268096923828125	-2.72369384765625	10.103531005859374	0.4525041137695312	-0.4225765930175781	3.681182861328125	-4.787445068359375	-2.17437744140625	
148	0.592	0.0	0.0	0.0	0.0	0.006	0.006	0.003	0.006	9.72345149230957	-0.3435679382324219	0.3854664672851562	-3.643035888671875	0.064849853515625	-0.5340576171875	9.880870251464843	0.6153098266601562	-0.13646949462890623	1.300811767578125	-4.787445068359375	-3.01361083984375	10.12507882080078	0.1484405029296875	-0.4447229583740234	3.536224365234375	-5.146026611328125	-1.636505126953125	
149	0.596	0.0	0.0	0.0	0.0	0.006	0.006	0.003	0.006	9.570821136474608	0.016759411621093748	-0.20470424194335937	-0.492095947265625	-1.674652099609375	-0.682830810546875	9.740210903930663	0.4961982940673828	0.24001871643066405	1.068115234375	-5.0201416015625	-3.246307373046875	10.187926614379883	0.31962592163085934	-0.36750995483398435	3.53240966796875	-4.680633544921875	-2.00653076171875	
150	0.6	0.0	0.0	0.0	0.0	0.006	0.003	0.006	0.003	9.916184725952148	0.21188684692382811	0.040102877807617184	-1.544952392578125	-1.10626220703125	-0.7171630859375	9.9981861328125	0.5285200164794922	-0.19931728820800781	1.346588134765625	-4.596710205078125	-3.12042236328125	10.143633883666991	0.14305354919433594	-0.47584757995605464	3.4332275390625	-4.772186279296875	-1.922607421875	
151	0.604	0.0	0.0	0.0	0.0	0.003	0.003	0.003	0.003	10.015544094848632	0.15263035583496093	-0.1975216369628906	2.727508544921875	-3.795623779296875	-1.194000244140625	9.597755905151367	0.5943605621337891	0.3962403747558593	0.652313232421875	-4.825592041015625	-2.83050537109375	9.728239895629882	0.2454056701660156	0.009576806640625	3.60107421875	-4.73785400390625	-2.490997314453125	
152	0.608	0.0	0.0	0.0	0.0	0.009000000000000001	0.006	0.006	0.006	9.891045608520507	0.17178396911621094	0.15861585998535155	0.698089599609375	-2.605438232421875	-0.67138671875	9.758765966796874	0.36571430358886714	0.22206220397949217	0.54168701171875	-4.95147705078125	-2.8228759765625	10.156203442382813	0.12868833923339842	-0.3848679168701172	3.582000732421875	-4.772186279296875	-1.99127197265625	
153	0.612	0.0	0.0	0.0	0.0	0.0	0.003	0.003	0.009000000000000001	9.944915145874022	0.1227028350830078	0.008978256225585938	2.105712890625	-3.490447998046875	-1.36566162109375	9.70968483276367	0.6009446166992187	0.22266075439453123	0.827789306640625	-4.89044189453125	-3.143310546875	9.888052856445311	0.14903905334472656	-0.04967968444824218	3.53240966796875	-4.673004150390625	-2.55584716796875	
154	0.616	0.0	0.0	0.0	0.0	0.0	0.003	0.006	0.006	9.819818109130859	0.4908113403320312	0.017956512451171875	2.391815185546875	-3.505706787109375	-1.0223388671875	9.737816702270507	0.39743747558593745	0.1197100830078125	0.86212158203125	-4.94384765625	-3.040313720703125	9.841365924072266	0.364517202758789	-0.06284779357910156	3.688812255859375	-4.604339599609375	-2.28118896484375	
155	0.62	0.0	0.0	0.0	0.0	0.003	0.003	0.003	4.542	9.804255798339844	0.05746083984375	0.2154781494140625	0.0	-1.91497802734375	-1.18255615234375	9.555857376098633	0.5853823059082031	0.4381389038085937	0.682830810546875	-4.573822021484375	-3.3111572265625	9.840168823242188	0.1640028137207031	0.005985504150390624	3.635406494140625	-4.791259765625	-2.43377685546875	
156	0.624	0.0	0.0	0.0	0.0	4.545	4.605	4.6080000000000005	4.569	9.994594830322265	0.15502455749511718	-0.16759411621093748	1.361846923828125	-3.16619873046875	-0.736236572265625	9.880271701049804	0.33399113159179683	0.105344873046875	0.60272216796875	-4.87518310546875	-2.964019775390625	9.993397729492187	0.3238157745361328	-0.0987608184814453	3.757476806640625	-4.81414794921875	-2.315521240234375	
157	0.628	0.0	0.0	0.0	0.0	4.569	4.611	4.614	4.545	9.849745629882811	0.03950432739257812	0.12389993591308593	-0.560760498046875	-1.3885498046875	-0.972747802734375	9.570821136474608	0.5542576843261718	0.35673604736328124	0.850677490234375	-4.57763671875	-3.681182861328125	9.93354268798828	-0.012569558715820313	-0.11731588134765625	3.82232666015625	-4.352569580078125	-2.620697021484375	
158	0.632	0.0	0.0	0.0	0.0	4.566	4.617	4.614	4.53	9.961076007080077	0.38786066894531246	-0.08918401184082031	2.628326416015625	-3.95965576171875	-0.732421875	9.740809454345703	0.3758896606445312	0.19333178405761717	0.766754150390625	-5.245208740234375	-2.38037109375	9.758765966796874	0.43933600463867184	0.0053869537353515625	3.635406494140625	-4.98199462890625	-2.208709716796875	
159	0.636	0.0	0.0	0.0	0.0	4.569	4.614	4.614	4.5360000000000005	10.031704956054687	0.25139117431640623	-0.11851298217773437	7.33184814453125	-6.26373291015625	-1.087188720703125	9.655216744995117	0.41838674011230464	0.2950853546142578	0.457763671875	-4.680633544921875	-3.162384033203125	9.943718045043944	-0.07062894897460938	-0.10474632263183593	3.692626953125	-4.390716552734375	-2.246856689453125	
160	0.64	0.0	0.0	0.0	0.0	4.566	4.605	4.611	4.551	10.050260018920898	0.3016694091796875	-0.22026655273437498	4.055023193359375	-4.55474853515625	-0.86212158203125	9.859920986938477	0.3716998077392578	0.009576806640625	0.9918212890625	-5.0811767578125	-2.368927001953125	9.89523546142578	0.35793314819335936	-0.1274912384033203	3.47900390625	-4.50897216796875	-2.31170654296875	
161	0.644	0.0	0.0	0.0	0.0	4.563	4.614	4.617	4.5600000000000005	10.014945544433592	0.45010991210937495	-0.14903905334472656	7.549285888671875	-6.6070556640625	-0.736236572265625	9.50617769165039	0.5542576843261718	0.3447650390625	1.644134521484375	-4.5013427734375	-3.047943115234375	9.804854348754882	0.003591302490234375	-0.0526724365234375	3.875732421875	-4.425048828125	-2.597808837890625	
162	0.648	0.0	0.0	0.0	0.0	4.5600000000000005	4.614	4.614	4.563	10.037690460205077	0.5021837982177734	0.14903905334472656	6.561279296875	-6.420135498046875	-1.041412353515625	9.791087689208984	0.3459621398925781	0.06584054565429687	0.690460205078125	-5.22613525390625	-2.44903564453125	9.993996279907225	0.4010287780761719	-0.007781155395507812	3.51715087890625	-4.67681884765625	-2.23541259765625	
163	0.652	0.0	0.0	0.0	0.0	4.551	4.614	4.6080000000000005	4.569	10.065223779296874	0.3286041778564453	-0.20350714111328125	8.2855224609375	-7.08770751953125	-0.835418701171875	9.926360083007811	0.49260699157714843	-0.040102877807617184	1.2664794921875	-5.0048828125	-2.742767333984375	10.020332498168944	-0.07601590270996093	-0.24480711975097655	3.72314453125	-4.32586669921875	-2.38037109375	
164	0.656	0.0	0.0	0.0	0.0	4.569	4.614	4.617	4.539	9.842563024902343	0.10953472595214843	0.21787235107421873	6.015777587890625	-5.7220458984375	-1.026153564453125	9.791686239624022	0.3333925811767578	0.052073886108398436	0.644683837890625	-5.046844482421875	-2.593994140625	10.044274514770507	0.35613749694824215	-0.12150573425292968	3.498077392578125	-4.4403076171875	-2.20489501953125	
165	0.66	0.0	0.0	0.0	0.0	4.569	4.617	4.614	4.53	9.947907897949218	0.35613749694824215	0.015562310791015624	7.45391845703125	-6.671905517578125	-0.67901611328125	9.79348189086914	0.5793968017578125	0.09038111267089843	1.6021728515625	-4.79888916015625	-2.9754638671875	10.216058483886718	0.1005564697265625	-0.5590460876464843	3.665924072265625	-4.44793701171875	-1.895904541015625	
166	0.664	0.0	0.0	0.0	0.0	4.569	4.611	4.614	4.548	9.872490545654296	-0.007781155395507812	0.19512743530273435	5.02777099609375	-5.3863525390625	-0.949859619140625	9.84555577697754	0.41958384094238277	0.16699556579589842	1.0528564453125	-5.084991455078125	-2.788543701171875	10.139444030761718	0.26874913635253905	-0.18136077575683593	3.787994384765625	-4.92095947265625	-2.31170654296875	
167	0.668	0.0	0.0	0.0	0.0	4.566	4.617	4.614	4.557	9.878476049804688	-0.17178396911621094	-0.07541735229492187	0.690460205078125	-2.44140625	-1.2054443359375	9.834183319091796	0.5548562347412109	0.08379705810546874	1.079559326171875	-4.611968994140625	-3.063201904296875	10.322001907348632	0.06643909606933593	-0.6338648895263671	4.09698486328125	-4.444122314453125	-2.14385986328125	
168	0.672	0.0	0.0	0.0	0.0	4.566	4.614	4.617	4.563	9.796474642944336	0.13168109130859373	0.2920926025390625	4.7607421875	-5.084991455078125	-0.728607177734375	9.779116680908203	0.4213794921875	0.2442085693359375	0.392913818359375	-5.084991455078125	-2.567291259765625	9.929951385498047	0.2501940734863281	-0.17238251953125	3.582000732421875	-4.619598388671875	-2.384185791015625	
169	0.676	0.0	0.0	0.0	0.0	4.557	4.614	4.614	4.566	9.897031112670899	-0.11252747802734374	-0.12449848632812499	1.15203857421875	-3.002166748046875	-0.96893310546875	9.938929641723632	0.49200844116210934	-0.05566518859863281	1.373291015625	-5.168914794921875	-3.1280517578125	10.266336718749999	0.07541735229492187	-0.5374982727050781	3.810882568359375	-4.5013427734375	-2.101898193359375	
170	0.68	0.0	0.0	0.0	0.0	4.566	0.003	0.003	0.003	9.848548529052733	0.05985504150390625	0.19692308654785154	5.130767822265625	-5.50079345703125	-0.789642333984375	9.85692823486328	0.3477577911376953	0.17776947326660156	0.774383544921875	-5.0811767578125	-2.62451171875	10.026916552734374	0.11073182678222655	-0.2059013427734375	3.658294677734375	-4.61578369140625	-2.40325927734375	
171	0.684	0.0	0.0	0.0	0.0	0.003	0.003	0.006	0.006	9.871891995239258	-0.19333178405761717	-0.1388636962890625	0.850677490234375	-2.685546875	-0.9765625	9.846752877807617	0.4955997436523437	-0.0383072265625	1.239776611328125	-5.138397216796875	-3.0517578125	10.207080227661132	0.15861585998535155	-0.575206948852539	3.33404541015625	-4.55474853515625	-2.11334228515625	
172	0.6880000000000001	0.0	0.0	0.0	0.0	0.003	0.006	0.006	0.003	9.639055883789062	0.028131869506835935	0.29269115295410153	0.164031982421875	-1.888275146484375	-1.094818115234375	9.645041387939452	0.546476528930664	0.38666356811523434	0.8697509765625	-4.878997802734375	-3.170013427734375	10.016142645263672	0.1771709228515625	-0.14425065002441406	3.6163330078125	-4.82940673828125	-2.368927001953125	
173	0.6920000000000001	0.0	0.0	0.0	0.0	0.003	0.006	0.003	0.006	9.912593423461914	-0.16041151123046873	-0.1771709228515625	0.888824462890625	-2.696990966796875	-0.95367431640625	9.967061511230469	0.41958384094238277	-0.19213468322753904	1.758575439453125	-5.05828857421875	-3.192901611328125	10.155006341552733	0.1927332336425781	-0.3286041778564453	3.71551513671875	-4.863739013671875	-1.97601318359375	
174	0.6960000000000001	0.0	0.0	0.0	0.0	0.003	0.003	0.006	0.003	9.616310968017578	0.06943184814453125	0.3333925811767578	0.194549560546875	-2.0599365234375	-1.216888427734375	9.651026892089844	0.5961562133789062	0.24301146850585936	0.823974609375	-5.100250244140625	-3.36456298828125	10.014945544433592	0.18136077575683593	-0.19153613281249998	3.330230712890625	-4.638671875	-2.288818359375	
175	0.7000000000000001	0.0	0.0	0.0	0.0	0.006	0.003	0.003	0.003	9.880870251464843	-0.15861585998535155	-0.12629413757324218	-0.102996826171875	-2.147674560546875	-0.95367431640625	9.70369932861328	0.40402153015136716	0.3321954803466797	0.6866455078125	-4.894256591796875	-3.0059814453125	10.096348400878906	0.2609679809570312	-0.30526071166992186	3.53240966796875	-4.756927490234375	-2.002716064453125	
176	0.704	0.0	0.0	0.0	0.0	0.009000000000000001	0.003	0.006	0.006	9.715071786499022	0.009576806640625	0.2861070983886719	-0.507354736328125	-1.39617919921875	-1.0986328125	9.72345149230957	0.6039373687744141	0.28490999755859375	1.033782958984375	-4.9896240234375	-3.204345703125	9.829394915771484	0.023942016601562498	0.08978256225585937	3.6163330078125	-4.398345947265625	-2.5787353515625	
177	0.708	0.0	0.0	0.0	0.0	0.006	0.003	0.003	0.003	9.878476049804688	0.29927520751953124	0.037708676147460936	0.576019287109375	-2.262115478515625	-0.995635986328125	9.746196408081055	0.27952304382324217	0.3010708587646484	0.759124755859375	-4.79888916015625	-3.238677978515625	10.129268673706054	0.20649989318847656	-0.4495113616943359	3.80706787109375	-4.58526611328125	-2.178192138671875	
178	0.712	0.0	0.0	0.0	0.0	0.003	0.006	0.006	0.003	9.700108026123047	-0.10474632263183593	0.3058592620849609	-1.056671142578125	-1.178741455078125	-1.056671142578125	9.629479077148437	0.5380968231201172	0.29568390502929687	0.74005126953125	-4.90570068359375	-3.261566162109375	9.665392102050781	0.20649989318847656	0.10175357055664062	3.59344482421875	-4.2724609375	-2.54058837890625	
179	0.716	0.0	0.0	0.0	0.0	0.006	0.003	0.003	0.003	9.92755718383789	0.24301146850585936	-0.0017956512451171875	0.72479248046875	-2.445220947265625	-0.820159912109375	9.776123928833007	0.32022447204589843	0.27832594299316404	0.675201416015625	-5.06591796875	-3.01361083984375	9.868300692749022	0.2376245147705078	-0.19153613281249998	3.73077392578125	-4.85992431640625	-2.532958984375	
180	0.72	0.0	0.0	0.0	0.0	0.009000000000000001	0.003	0.006	0.003	9.931148486328125	0.35314474487304687	0.0	4.63104248046875	-4.673004150390625	-0.911712646484375	9.789890588378906	0.4333505004882812	0.1388636962890625	0.7476806640625	-5.092620849609375	-3.307342529296875	9.773131176757811	0.15861585998535155	0.0909796630859375	3.74603271484375	-4.268646240234375	-2.4871826171875	
181	0.724	0.0	0.0	0.0	0.0	0.006	0.003	0.003	0.006	9.873687646484374	0.36631285400390623	0.020350714111328123	1.62506103515625	-3.0059814453125	-1.129150390625	9.627084875488281	0.4165910888671875	0.4465186096191406	0.946044921875	-4.8828125	-2.58636474609375	9.694122521972655	0.2136824981689453	-0.018555062866210937	3.77655029296875	-4.5166015625	-2.590179443359375	
182	0.728	0.0	0.0	0.0	0.0	0.003	0.006	0.006	0.003	9.912593423461914	0.2861070983886719	0.0383072265625	4.82940673828125	-4.82940673828125	-0.453948974609375	9.724648593139648	0.47764323120117186	0.31184476623535157	0.804901123046875	-4.81414794921875	-3.27301025390625	9.788693487548828	0.2753331909179687	0.04848258361816406	3.498077392578125	-4.47845458984375	-2.300262451171875	
183	0.732	0.0	0.0	0.0	0.0	0.003	0.006	0.003	0.003	10.00417163696289	0.2855085479736328	-0.13826514587402344	1.041412353515625	-2.887725830078125	-0.9765625	9.83837317199707	0.26874913635253905	0.09217676391601562	0.8544921875	-4.93621826171875	-2.9296875	9.943119494628906	-0.0005985504150390625	-0.09636661682128905	3.520965576171875	-4.680633544921875	-2.323150634765625	
184	0.736	0.0	0.0	0.0	0.0	0.003	0.006	0.003	0.006	9.941922393798828	0.4423287567138672	-0.04668693237304687	5.146026611328125	-5.31005859375	-0.942230224609375	9.686939916992188	0.4638765716552734	0.2292448089599609	1.255035400390625	-4.741668701171875	-3.24249267578125	9.94671079711914	0.30047230834960936	-0.14604630126953125	3.559112548828125	-4.276275634765625	-2.41851806640625	
185	0.74	0.0	0.0	0.0	0.0	0.006	0.003	0.003	0.003	9.958681805419921	0.2519897247314453	-0.076614453125	6.70623779296875	-6.801605224609375	-0.820159912109375	9.683947164916992	0.4375403533935547	0.051475335693359374	0.7476806640625	-5.161285400390625	-2.63214111328125	9.737816702270507	0.09157821350097656	-0.055066638183593745	3.559112548828125	-4.749298095703125	-2.3651123046875	
186	0.744	0.0	0.0	0.0	0.0	0.003	0.006	0.003	0.003	9.988010775756836	0.4004302276611328	-0.06643909606933593	6.4544677734375	-6.11114501953125	-0.75531005859375	9.932345587158203	0.3525461944580078	-0.029328970336914062	0.888824462890625	-4.932403564453125	-2.69317626953125	10.061033926391602	0.3058592620849609	-0.16519991455078123	3.82232666015625	-4.40216064453125	-2.475738525390625	
187	0.748	0.0	0.0	0.0	0.0	0.006	0.006	0.006	0.006	9.99220062866211	0.052073886108398436	-0.07481880187988281	6.458282470703125	-6.450653076171875	-1.01470947265625	9.73661960144043	0.38187516479492184	0.04129997863769531	0.7476806640625	-4.8828125	-2.73895263671875	10.159794744873047	-0.04249707946777344	-0.11432312927246092	3.65447998046875	-4.657745361328125	-2.0599365234375	
188	0.752	0.0	0.0	0.0	0.0	0.006	0.006	0.006	0.003	9.88386300354004	0.42437224426269526	-0.0909796630859375	3.086090087890625	-4.08935546875	-0.957489013671875	9.710881933593749	0.5536591339111328	0.04967968444824218	1.39617919921875	-4.840850830078125	-2.95257568359375	9.846154327392577	0.4746504791259765	-0.19632453613281248	3.59344482421875	-4.344940185546875	-2.384185791015625	
189	0.756	0.0	0.0	0.0	0.0	0.003	0.006	0.003	0.003	9.949104998779296	-0.040701428222656245	-0.04967968444824218	5.847930908203125	-5.779266357421875	-1.1138916015625	9.822810861206055	0.4961982940673828	0.33518823242187495	0.957489013671875	-5.138397216796875	-2.76947021484375	10.06163247680664	0.10175357055664062	-0.08918401184082031	3.54766845703125	-4.482269287109375	-1.83868408203125	
190	0.76	0.0	0.0	0.0	0.0	0.003	0.003	0.003	0.003	9.883264453125	-0.3399766357421875	0.05985504150390625	1.941680908203125	-3.265380859375	-1.01470947265625	9.903615167236328	0.4590881683349609	0.028730419921875	1.56402587890625	-4.95147705078125	-3.330230712890625	10.422558377075195	0.13467384338378904	-0.5770026000976562	3.566741943359375	-4.47845458984375	-2.32696533203125	
191	0.764	0.0	0.0	0.0	0.0	0.003	0.006	0.003	0.006	9.871293444824218	-0.3058592620849609	0.07362170104980469	3.292083740234375	-4.35638427734375	-1.06048583984375	9.751583361816406	0.48183308410644526	0.37888241271972656	1.0223388671875	-4.932403564453125	-3.032684326171875	9.976638317871092	0.10474632263183593	-0.005985504150390624	3.459930419921875	-4.46319580078125	-1.983642578125	
192	0.768	0.0	0.0	0.0	0.0	0.003	0.006	0.003	0.006	9.726444244384766	-0.11911153259277343	0.21727380065917967	0.125885009765625	-2.105712890625	-0.89263916015625	9.790489138793944	0.7248445526123046	0.09337386474609374	1.53350830078125	-5.092620849609375	-2.960205078125	10.169371551513672	0.27892449340820313	-0.4908113403320312	3.612518310546875	-4.505157470703125	-2.2430419921875	
193	0.772	0.0	0.0	0.0	0.0	0.006	0.003	0.006	0.006	9.667187753295899	0.18076222534179687	0.4417302062988281	-0.064849853515625	-1.8310546875	-0.949859619140625	10.006565838623047	0.2711433380126953	0.3327940307617187	0.797271728515625	-4.9285888671875	-3.025054931640625	10.256161361694335	-0.05027823486328125	-0.04249707946777344	3.368377685546875	-4.718780517578125	-1.705169677734375	
194	0.776	0.0	0.0	0.0	0.0	0.006	0.003	0.003	0.006	9.792284790039062	0.07781155395507812	0.1771709228515625	0.81634521484375	-2.162933349609375	-1.064300537109375	9.90840357055664	0.6907271789550781	0.08678981018066406	0.865936279296875	-4.726409912109375	-2.98309326171875	10.290278735351562	0.09457096557617187	-0.5931634613037109	3.696441650390625	-4.41741943359375	-2.727508544921875	
195	0.78	0.0	0.0	0.0	0.0	0.003	0.003	0.003	0.003	9.632471829223633	0.5380968231201172	0.4129997863769531	1.19781494140625	-2.57110595703125	-0.885009765625	9.566631283569336	0.5237316131591797	0.3268085266113281	0.0152587890625	-4.76837158203125	-2.513885498046875	9.823409411621093	0.5512649322509765	-0.1867477294921875	3.62396240234375	-4.72259521484375	-1.850128173828125	
196	0.784	0.0	0.0	0.0	0.0	0.003	0.003	0.003	0.006	9.861716638183593	-0.13587094421386717	0.04189852905273437	-0.179290771484375	-1.644134521484375	-0.732421875	9.99220062866211	0.5566518859863281	-0.040701428222656245	0.8087158203125	-4.82940673828125	-2.74658203125	10.404003314208984	0.08259995727539061	-0.7152677459716796	3.749847412109375	-4.52423095703125	-2.3651123046875	
197	0.788	0.0	0.0	0.0	0.0	0.006	0.003	0.003	0.003	9.821015209960937	0.29269115295410153	0.14245499877929688	2.29644775390625	-3.2958984375	-0.667572021484375	9.78689783630371	0.47285482788085936	0.21248539733886718	0.133514404296875	-4.917144775390625	-2.819061279296875	10.226832391357421	0.33039982910156246	-0.3142389678955078	3.60870361328125	-4.634857177734375	-1.926422119140625	
198	0.792	0.0	0.0	0.0	0.0	0.003	0.003	0.003	0.003	9.88386300354004	0.28790274963378903	-0.012569558715820313	1.773834228515625	-3.383636474609375	-0.865936279296875	9.770736975097655	0.5452794281005859	-0.044292730712890624	1.04522705078125	-5.10406494140625	-3.047943115234375	9.96047745666504	0.0	-0.35793314819335936	3.391265869140625	-4.47845458984375	-2.132415771484375	
199	0.796	0.0	0.0	0.0	0.0	0.003	0.006	0.003	0.006	9.690531219482422	0.4830301849365234	0.2699462371826172	3.9520263671875	-4.817962646484375	-0.682830810546875	9.573215338134766	0.6763619689941406	0.31004911499023435	0.492095947265625	-5.290985107421875	-2.567291259765625	10.00417163696289	0.612915625	-0.2741360900878906	3.42559814453125	-4.90570068359375	-1.651763916015625	
200	0.8	0.0	0.0	0.0	0.0	0.003	0.006	0.003	0.003	9.88266590270996	0.181959326171875	0.11791443176269531	1.39617919921875	-3.475189208984375	-1.007080078125	9.990404977416992	0.39324762268066404	-0.05805939025878906	0.95367431640625	-4.8980712890625	-3.39508056640625	10.308235247802735	-0.23642741394042968	-0.37289690856933594	3.35693359375	-4.886627197265625	-2.0904541015625	
201	0.804	0.0	0.0	0.0	0.0	0.003	0.003	0.003	0.006	9.663596450805663	0.2041056915283203	0.3806780639648437	1.850128173828125	-3.040313720703125	-1.186370849609375	9.560047229003906	0.5297171173095703	0.3387795349121094	1.056671142578125	-4.85992431640625	-3.284454345703125	9.91498762512207	0.36272155151367186	-0.06404489440917968	3.70025634765625	-4.489898681640625	-2.777099609375	
202	0.808	0.0	0.0	0.0	0.0	0.006	0.003	0.003	0.006	9.764152920532226	0.32561142578124996	0.22505495605468748	0.35858154296875	-2.399444580078125	-0.774383544921875	9.80665	0.7092822418212891	-0.023343466186523436	1.079559326171875	-4.901885986328125	-2.75421142578125	9.928754284667969	0.11133037719726561	-0.39803602600097654	3.4027099609375	-4.947662353515625	-1.96075439453125	
203	0.812	0.0	0.0	0.0	0.0	0.006	0.003	0.003	0.003	9.935338339233398	-0.08918401184082031	-0.05985504150390625	1.312255859375	-2.8533935546875	-0.8087158203125	9.769539874267577	0.3190273712158203	0.3716998077392578	0.42724609375	-4.833221435546875	-3.116607666015625	9.858723886108399	0.2932897033691406	0.11611878051757812	3.650665283203125	-4.547119140625	-2.72369384765625	
204	0.8160000000000001	0.0	0.0	0.0	0.0	0.003	0.003	0.006	0.006	9.92217023010254	0.044292730712890624	0.05985504150390625	0.019073486328125	-2.071380615234375	-1.194000244140625	9.980229620361328	0.3555389465332031	-0.11552023010253906	0.75531005859375	-5.30242919921875	-3.04412841796875	10.262745416259765	-0.21428104858398436	-0.5422866760253906	3.63922119140625	-4.669189453125	-2.41851806640625	
205	0.8200000000000001	0.0	0.0	0.0	0.0	0.003	0.003	0.006	0.006	9.827000714111328	0.23882161560058593	0.05566518859863281	1.949310302734375	-3.2806396484375	-0.881195068359375	9.533711010742186	0.6973112335205077	0.2765302917480469	0.797271728515625	-4.913330078125	-3.376007080078125	9.56363853149414	0.4560954162597656	-0.028131869506835935	3.734588623046875	-4.46319580078125	-2.57110595703125	
206	0.8240000000000001	0.0	0.0	0.0	0.0	0.003	0.003	0.003	0.006	9.934739788818359	0.3363853332519531	-0.10893617553710937	3.96728515625	-4.8675537109375	-0.80108642578125	9.717465988159178	0.2902969512939453	0.18734627990722655	0.911712646484375	-5.157470703125	-2.384185791015625	9.690531219482422	0.27832594299316404	0.12150573425292968	3.459930419921875	-4.512786865234375	-1.96075439453125	
207	0.8280000000000001	0.0	0.0	0.0	0.0	0.003	0.006	0.006	0.003	9.919177478027343	-0.014963760375976562	0.016759411621093748	3.177642822265625	-3.9215087890625	-1.041412353515625	9.871293444824218	0.2723404388427734	0.23104046020507812	1.03759765625	-4.901885986328125	-3.30352783203125	10.08078609008789	0.00718260498046875	-0.0652419952392578	3.85284423828125	-4.669189453125	-2.9449462890625	
208	0.8320000000000001	0.0	0.0	0.0	0.0	0.003	0.006	0.003	0.009000000000000001	9.911994873046874	0.39803602600097654	-0.19632453613281248	4.2572021484375	-4.73785400390625	-1.06048583984375	9.664195001220703	0.488417138671875	0.044292730712890624	0.89263916015625	-5.05828857421875	-3.231048583984375	9.686939916992188	0.3495534423828125	-0.028131869506835935	3.57818603515625	-4.82177734375	-2.239227294921875	
209	0.836	0.0	0.0	0.0	0.0	0.003	0.003	0.003	0.006	9.721057290649414	0.2825157958984375	0.2262520568847656	3.1280517578125	-3.711700439453125	-0.881195068359375	9.592368951416015	0.49679684448242184	0.28431144714355466	1.0528564453125	-4.909515380859375	-3.01361083984375	9.696516723632811	0.1897404815673828	-0.028730419921875	3.742218017578125	-4.032135009765625	-2.38037109375	
210	0.84	0.0	0.0	0.0	0.0	0.006	0.003	0.003	0.006	10.08078609008789	-0.06883329772949218	-0.22385785522460935	4.001617431640625	-4.7607421875	-0.7171630859375	10.001777435302733	0.14245499877929688	0.0005985504150390625	1.129150390625	-5.218505859375	-3.0517578125	10.186130963134765	0.044891281127929686	-0.08678981018066406	3.8299560546875	-4.825592041015625	-2.208709716796875	
211	0.844	0.0	0.0	0.0	0.0	1.389	4.605	4.611	4.533	10.078391888427733	0.016759411621093748	-0.29089550170898437	6.00433349609375	-5.870819091796875	-1.087188720703125	9.720458740234374	0.42437224426269526	0.2316390106201172	0.8697509765625	-4.619598388671875	-3.265380859375	10.012551342773437	-0.12210428466796874	-0.20709844360351562	3.6773681640625	-4.596710205078125	-3.040313720703125	
212	0.848	0.0	0.0	0.0	0.0	4.566	4.614	4.611	4.533	9.910797772216796	0.5626373901367188	-0.07122749938964844	4.817962646484375	-5.18798828125	-0.92315673828125	9.60194575805664	0.5297171173095703	0.2711433380126953	0.34332275390625	-4.917144775390625	-2.422332763671875	9.783905084228515	0.5829881042480468	-0.1131260284423828	3.85284423828125	-4.413604736328125	-1.903533935546875	
213	0.852	0.0	0.0	0.0	0.0	4.569	4.605	4.614	4.557	9.994594830322265	-0.12868833923339842	-0.06045359191894531	6.069183349609375	-6.137847900390625	-0.820159912109375	9.83777462158203	0.30047230834960936	0.26396073303222656	0.942230224609375	-4.78363037109375	-2.960205078125	10.153809240722655	-0.21428104858398436	-0.11192892761230468	3.719329833984375	-4.55474853515625	-2.407073974609375	
214	0.856	0.0	0.0	0.0	0.0	4.563	4.614	4.617	4.5600000000000005	10.101136804199218	0.1005564697265625	-0.27174188842773433	4.67681884765625	-4.92095947265625	-0.9613037109375	9.973645565795898	0.2501940734863281	0.09337386474609374	0.537872314453125	-5.14984130859375	-2.93731689453125	10.29865844116211	0.13287819213867186	-0.21308394775390624	3.688812255859375	-4.451751708984375	-2.185821533203125	
215	0.86	0.0	0.0	0.0	0.0	4.563	4.614	4.614	4.563	9.884461553955077	0.373495458984375	-0.09157821350097656	5.4931640625	-5.344390869140625	-0.67138671875	9.80665	0.6572083557128906	-0.09816226806640624	1.39617919921875	-4.70733642578125	-2.834320068359375	9.644442837524414	0.14125789794921875	-0.06763619689941405	3.749847412109375	-4.4708251953125	-2.166748046875	
216	0.864	0.0	0.0	0.0	0.0	4.551	4.611	4.6080000000000005	4.569	9.643844287109374	0.21188684692382811	0.5123591552734374	4.611968994140625	-5.153656005859375	-0.54931640625	9.813832604980469	0.354341845703125	0.31004911499023435	0.35858154296875	-5.2490234375	-2.3345947265625	10.036493359375	0.3286041778564453	-0.040102877807617184	3.326416015625	-4.78363037109375	-1.67083740234375	
217	0.868	0.0	0.0	0.0	0.0	4.569	4.614	4.617	4.539	10.05564697265625	-0.04908113403320312	-0.2041056915283203	5.924224853515625	-5.51605224609375	-0.904083251953125	10.172962854003906	0.34237083740234375	-0.22864625854492185	1.468658447265625	-4.711151123046875	-3.070831298828125	10.569203228759765	-0.18614917907714842	-0.6661866119384765	3.6773681640625	-4.78363037109375	-2.197265625	
218	0.872	0.0	0.0	0.0	0.0	4.572	4.617	4.614	4.527	9.778518130493163	0.17956512451171874	0.14784195251464843	4.261016845703125	-4.5928955078125	-0.988006591796875	9.629479077148437	0.6889315277099609	0.10594342346191406	0.545501708984375	-5.039215087890625	-2.902984619140625	9.943119494628906	0.4572925170898437	-0.26336218261718747	3.757476806640625	-4.38690185546875	-2.384185791015625	
219	0.876	0.0	0.0	0.0	0.0	4.572	4.614	4.614	4.542	9.77492682800293	-0.055066638183593745	0.09935936889648436	-0.286102294921875	-1.735687255859375	-0.84686279296875	9.791087689208984	0.5315127685546874	0.09636661682128905	1.384735107421875	-5.01251220703125	-2.72369384765625	10.045471615600585	0.16160861206054686	-0.5237316131591797	3.772735595703125	-4.66156005859375	-1.827239990234375	
220	0.88	0.0	0.0	0.0	0.0	4.569	4.617	4.617	4.557	9.822212310791015	-0.005985504150390624	0.2376245147705078	5.268096923828125	-5.60760498046875	-0.789642333984375	9.805452899169921	0.5243301635742187	0.181959326171875	0.682830810546875	-5.4931640625	-2.758026123046875	10.187328063964843	0.11791443176269531	-0.1927332336425781	3.44085693359375	-4.5623779296875	-2.105712890625	
221	0.884	0.0	0.0	0.0	0.0	4.566	4.617	3.003	0.003	9.973047015380859	-0.26396073303222656	-0.15502455749511718	0.072479248046875	-2.0751953125	-1.216888427734375	10.028113653564452	0.38187516479492184	-0.13946224670410157	1.407623291015625	-4.970550537109375	-3.5400390625	10.331578713989257	0.06284779357910156	-0.7254431030273437	3.559112548828125	-4.3792724609375	-2.323150634765625	
222	0.888	0.0	0.0	0.0	0.0	0.006	0.003	0.003	0.003	9.580397943115234	0.22445640563964842	0.4896142395019531	4.03594970703125	-4.489898681640625	-0.946044921875	9.473855969238281	0.6667851623535156	0.41359833679199215	0.6866455078125	-4.932403564453125	-2.681732177734375	9.803058697509766	0.38247371520996093	-0.1131260284423828	3.33404541015625	-4.657745361328125	-2.025604248046875	
223	0.892	0.0	0.0	0.0	0.0	0.003	0.003	0.003	0.003	9.865307940673828	-0.23582886352539062	0.10354922180175781	-0.934600830078125	-1.819610595703125	-0.80108642578125	9.926360083007811	0.48722003784179685	0.07302315063476562	1.190185546875	-5.199432373046875	-2.96783447265625	10.119691867065429	0.3124433166503906	-0.33518823242187495	3.566741943359375	-5.035400390625	-1.781463623046875	
224	0.896	0.0	0.0	0.0	0.0	0.003	0.003	0.003	0.006	9.97244846496582	-0.13467384338378904	-0.06823474731445311	0.0	-1.94549560546875	-1.1749267578125	9.82460651245117	0.5518634826660156	0.1322796417236328	1.01470947265625	-5.130767822265625	-3.39508056640625	10.317812054443358	0.13766659545898435	-0.35015199279785153	3.582000732421875	-4.67681884765625	-2.35748291015625	
225	0.9	0.0	0.0	0.0	0.0	0.003	0.006	0.003	0.003	9.764751470947266	0.09038111267089843	0.12629413757324218	-0.652313232421875	-1.537322998046875	-1.125335693359375	9.765948571777344	0.5686228942871093	0.08978256225585937	1.312255859375	-4.985809326171875	-3.50189208984375	9.909600671386718	0.38845921936035155	-0.19333178405761717	3.414154052734375	-4.467010498046875	-1.834869384765625	
226	0.904	0.0	0.0	0.0	0.0	0.003	0.006	0.003	0.006	9.728239895629882	0.018555062866210937	0.32022447204589843	-0.89263916015625	-1.40380859375	-0.858306884765625	9.610325463867188	0.565031591796875	0.3136404174804687	0.67138671875	-5.13458251953125	-2.895355224609375	9.97903251953125	0.2723404388427734	0.2280477081298828	4.03594970703125	-4.43267822265625	-2.574920654296875	
227	0.908	0.0	0.0	0.0	0.0	0.006	0.006	0.003	0.003	9.973047015380859	-0.2041056915283203	-0.06045359191894531	2.34222412109375	-3.505706787109375	-0.946044921875	10.077194787597655	0.4531026641845703	-0.047884033203124995	1.2054443359375	-4.978179931640625	-3.2196044921875	10.363301885986328	0.1083376251220703	-0.6452373474121094	3.421783447265625	-4.528045654296875	-2.34222412109375	
228	0.912	0.0	0.0	0.0	0.0	0.006	0.006	0.003	0.003	9.920374578857421	0.09516951599121093	-0.04967968444824218	-0.152587890625	-1.77001953125	-1.209259033203125	9.75517466430664	0.45549686584472654	0.1322796417236328	0.942230224609375	-4.978179931640625	-3.47137451171875	9.854534033203125	0.16220716247558592	-0.15382745666503905	3.734588623046875	-4.383087158203125	-2.643585205078125	
229	0.916	0.0	0.0	0.0	0.0	0.006	0.003	0.003	0.006	9.81862100830078	0.46148236999511716	0.08319850769042968	2.384185791015625	-3.76129150390625	-0.644683837890625	9.491812481689452	0.6165069274902344	0.37289690856933594	0.55694580078125	-5.077362060546875	-2.8076171875	9.890447058105469	0.3968389251708984	-0.39324762268066404	3.570556640625	-4.913330078125	-2.0751953125	
230	0.92	0.0	0.0	0.0	0.0	0.006	0.006	0.003	0.006	9.97244846496582	-0.07721300354003906	-0.0718260498046875	-0.705718994140625	-1.865386962890625	-1.049041748046875	9.852738381958007	0.5770026000976562	0.15861585998535155	0.827789306640625	-4.95147705078125	-3.448486328125	9.93354268798828	0.14963760375976562	-0.06943184814453125	3.360748291015625	-4.566192626953125	-2.15911865234375	
231	0.924	0.0	0.0	0.0	0.0	0.006	0.003	0.006	0.006	10.08078609008789	0.4644751220703125	-0.3363853332519531	3.74603271484375	-4.528045654296875	-1.132965087890625	9.868899243164062	0.20949264526367187	0.07541735229492187	0.396728515625	-5.04302978515625	-2.910614013671875	10.058041174316406	0.040701428222656245	-0.24899697265624998	3.56292724609375	-4.436492919921875	-2.52532958984375	
232	0.928	0.0	0.0	0.0	0.0	0.006	0.003	0.003	0.003	9.909600671386718	0.5105635040283203	0.11731588134765625	6.519317626953125	-6.122589111328125	-0.568389892578125	9.500790737915038	0.6661866119384765	0.2765302917480469	0.6866455078125	-4.3792724609375	-3.3111572265625	9.553463174438477	0.40940848388671874	0.08439560852050781	3.704071044921875	-4.512786865234375	-2.429962158203125	
233	0.932	0.0	0.0	0.0	0.0	0.009000000000000001	0.003	0.006	0.006	9.963470208740233	0.5141548065185546	-0.26695348510742184	3.734588623046875	-4.856109619140625	-0.720977783203125	9.744999307250977	0.26276363220214843	0.25318682556152344	0.225067138671875	-5.10406494140625	-2.681732177734375	9.770138424682617	0.1693897674560547	-0.03651157531738281	3.51715087890625	-4.60052490234375	-2.166748046875	
234	0.936	0.0	0.0	0.0	0.0	0.006	0.003	0.003	0.009000000000000001	10.102333905029296	0.3280056274414062	-0.13587094421386717	7.732391357421875	-6.98089599609375	-0.514984130859375	9.850344180297851	0.44891281127929683	0.07362170104980469	0.89263916015625	-5.05828857421875	-3.04412841796875	10.242394702148436	0.1514332550048828	-0.3136404174804687	3.77655029296875	-4.474639892578125	-2.28118896484375	
235	0.9400000000000001	0.0	0.0	0.0	0.0	0.003	0.006	0.006	0.003	9.989806427001952	0.670975015258789	-0.3393780853271484	5.584716796875	-5.40924072265625	-1.1444091796875	9.72943699645996	0.38307226562499996	0.025139117431640625	0.90789794921875	-4.993438720703125	-2.811431884765625	9.732429748535155	0.11911153259277343	-0.13826514587402344	3.814697265625	-4.46319580078125	-2.559661865234375	
236	0.9440000000000001	0.0	0.0	0.0	0.0	0.012	0.003	0.003	0.003	9.900023864746093	0.28969840087890625	-0.025737667846679687	7.099151611328125	-6.816864013671875	-0.67138671875	9.526528405761718	0.5722141967773438	0.23702596435546874	0.690460205078125	-4.886627197265625	-2.574920654296875	9.781510882568359	0.4560954162597656	-0.07302315063476562	3.604888916015625	-4.241943359375	-2.246856689453125	
237	0.9480000000000001	0.0	0.0	0.0	0.0	0.003	0.006	0.003	0.006	9.937732540893554	-0.3220201232910156	0.017956512451171875	5.31768798828125	-5.59234619140625	-0.736236572265625	9.84435867614746	0.2855085479736328	0.006584054565429687	0.789642333984375	-5.176544189453125	-2.83050537109375	10.235212097167969	-0.022744915771484374	-0.181959326171875	3.742218017578125	-4.848480224609375	-1.987457275390625	
238	0.9520000000000001	0.0	0.0	0.0	0.0	0.003	0.003	0.003	0.003	10.047267266845703	0.14245499877929688	-0.19033903198242186	7.251739501953125	-6.664276123046875	-0.720977783203125	9.982623822021484	0.5973533142089843	-0.015562310791015624	2.140045166015625	-5.008697509765625	-3.2196044921875	10.077793338012695	0.3315969299316406	-0.2292448089599609	3.509521484375	-4.150390625	-2.307891845703125	
239	0.9560000000000001	0.0	0.0	0.0	0.0	0.006	0.003	0.003	0.006	9.724050042724608	-0.20350714111328125	0.3226186737060547	3.72314453125	-4.505157470703125	-1.064300537109375	9.542689266967773	0.5279214660644531	0.25139117431640623	1.1138916015625	-5.01251220703125	-3.24249267578125	9.898228213500976	0.14604630126953125	-0.04369418029785156	3.3721923828125	-4.39453125	-1.796722412109375	
240	0.96	0.0	0.0	0.0	0.0	0.006	0.003	0.006	0.006	9.962871658325195	-0.06344634399414062	0.016759411621093748	-1.018524169921875	-1.346588134765625	-0.8392333984375	9.892841259765625	0.5578489868164063	0.14425065002441406	1.819610595703125	-4.9896240234375	-2.99072265625	10.038887561035155	0.3178302703857422	-0.11073182678222655	3.631591796875	-4.3792724609375	-2.11334228515625	
241	0.964	0.0	0.0	0.0	0.0	0.009000000000000001	0.006	0.006	0.006	9.873687646484374	-0.5033808990478515	0.277727392578125	2.09808349609375	-3.47900390625	-0.919342041015625	9.979631069946288	0.26755203552246093	0.3393780853271484	0.6866455078125	-5.126953125	-3.12042236328125	10.384849700927735	-0.11731588134765625	-0.30346506042480464	3.543853759765625	-4.596710205078125	-2.193450927734375	
242	0.968	0.0	0.0	0.0	0.0	0.006	0.006	0.003	0.003	9.784503634643555	0.06943184814453125	0.18435352783203124	-1.186370849609375	-0.988006591796875	-0.89263916015625	9.787496386718749	0.6069301208496093	0.12509703674316405	1.4190673828125	-4.779815673828125	-3.147125244140625	10.114903463745117	0.2699462371826172	-0.5967547637939453	3.879547119140625	-4.486083984375	-2.658843994140625	
243	0.972	0.0	0.0	0.0	0.0	0.003	0.003	0.006	0.003	9.76774422302246	-0.1514332550048828	0.3591302490234375	1.743316650390625	-3.143310546875	-0.736236572265625	9.689334118652344	0.4537012145996093	0.43514615173339843	0.141143798828125	-5.054473876953125	-2.4261474609375	10.047865817260742	0.143652099609375	-0.19093758239746092	3.71551513671875	-4.535675048828125	-1.758575439453125	
244	0.976	0.0	0.0	0.0	0.0	0.003	0.003	0.003	0.003	10.001777435302733	-0.21487959899902342	-0.19512743530273435	0.232696533203125	-2.09808349609375	-0.8544921875	10.057442623901366	0.36810850524902344	0.001197100830078125	1.140594482421875	-5.07354736328125	-2.758026123046875	10.412383020019531	-0.006584054565429687	-0.7104793426513671	3.7994384765625	-4.512786865234375	-2.69317626953125	
245	0.98	0.0	0.0	0.0	0.0	0.006	0.003	0.006	0.003	9.775525378417969	0.28311434631347654	0.16460136413574217	2.422332763671875	-3.452301025390625	-0.751495361328125	9.733626849365233	0.38247371520996093	0.3651157531738281	0.3204345703125	-5.039215087890625	-2.95257568359375	10.136451278686522	0.30526071166992186	-0.3058592620849609	3.34930419921875	-4.61578369140625	-2.00653076171875	
246	0.984	0.0	0.0	0.0	0.0	0.006	0.006	0.006	0.003	9.8311905670166	-0.03591302490234375	-0.06464344482421874	0.70953369140625	-2.7313232421875	-0.774383544921875	9.721655841064452	0.6769605194091797	0.034715924072265626	1.38092041015625	-5.092620849609375	-2.964019775390625	9.989207876586914	0.25258827514648435	-0.46806642456054687	3.803253173828125	-4.44793701171875	-2.307891845703125	
247	0.988	0.0	0.0	0.0	0.0	0.012	0.003	0.003	0.003	9.715670336914062	0.2651578338623047	0.25737667846679685	2.9754638671875	-3.894805908203125	-0.949859619140625	9.889848507690429	0.25737667846679685	0.3345896820068359	0.8697509765625	-4.9591064453125	-2.685546875	10.19570776977539	0.3076549133300781	-0.26216508178710934	3.31878662109375	-4.695892333984375	-1.8310546875	
248	0.992	0.0	0.0	0.0	0.0	0.003	0.003	0.006	0.006	9.904812268066406	-0.04548983154296875	-0.11611878051757812	2.044677734375	-2.971649169921875	-1.079559326171875	9.975441217041014	0.5590460876464843	-0.11073182678222655	1.5716552734375	-4.665374755859375	-3.398895263671875	10.294468588256835	-0.1406593475341797	-0.44592005920410155	3.475189208984375	-4.703521728515625	-2.18963623046875	
249	0.996	0.0	0.0	0.0	0.0	0.006	0.003	0.003	0.003	9.6013472076416	0.2567781280517578	0.3902548706054687	1.361846923828125	-2.796173095703125	-1.4190673828125	9.55645592651367	0.5153519073486328	0.39983167724609375	0.583648681640625	-4.55474853515625	-3.12042236328125	9.900023864746093	0.4997895965576172	-0.17417817077636719	3.45611572265625	-4.901885986328125	-2.00653076171875	
250	1.0	0.0	0.0	0.0	0.0	0.003	0.003	0.003	0.003	9.840767373657226	0.15562310791015624	0.25438392639160157	-0.400543212890625	-1.895904541015625	-0.400543212890625	9.976039767456054	0.6314706878662109	-0.1131260284423828	1.54876708984375	-5.157470703125	-3.009796142578125	10.087968695068358	0.03651157531738281	-0.3555389465332031	3.688812255859375	-5.0506591796875	-2.109527587890625	
251	1.004	0.0	0.0	0.0	0.0	0.006	0.003	0.006	0.006	9.830592016601562	-0.0718260498046875	0.051475335693359374	-0.213623046875	-2.1820068359375	-1.125335693359375	9.877877499389648	0.26695348510742184	0.25797522888183594	0.4119873046875	-4.791259765625	-3.147125244140625	10.293870037841796	0.25318682556152344	-0.36272155151367186	3.4332275390625	-4.802703857421875	-2.597808837890625	
252	1.008	0.0	0.0	0.0	0.0	0.003	0.003	0.006	0.003	9.919177478027343	0.20231004028320312	-0.0017956512451171875	0.125885009765625	-2.38037109375	-1.068115234375	9.767145672607422	0.49021278991699213	0.07302315063476562	1.026153564453125	-5.031585693359375	-3.082275390625	10.026916552734374	0.0796072052001953	-0.43574470214843747	3.635406494140625	-4.92095947265625	-2.353668212890625	
253	1.012	0.0	0.0	0.0	0.0	0.003	0.003	0.003	0.006	9.747393508911133	0.11911153259277343	0.16998831787109375	3.711700439453125	-4.344940185546875	-0.90789794921875	9.603142858886718	0.6177040283203125	0.412401235961914	0.335693359375	-5.08880615234375	-2.941131591796875	9.642647186279296	0.37888241271972656	0.011372457885742187	3.60870361328125	-4.7607421875	-2.37274169921875	
254	1.016	0.0	0.0	0.0	0.0	0.009000000000000001	4.356	4.6080000000000005	4.5600000000000005	9.964068759155273	-0.10474632263183593	-0.016160861206054686	1.03759765625	-2.429962158203125	-0.81634521484375	9.963470208740233	0.19931728820800781	0.05327098693847656	0.69427490234375	-4.878997802734375	-2.964019775390625	10.235212097167969	-0.08738836059570312	-0.3459621398925781	3.85284423828125	-4.680633544921875	-2.017974853515625	
255	1.02	0.0	0.0	0.0	0.0	4.557	4.611	4.614	4.563	9.834183319091796	0.2855085479736328	0.09277531433105468	3.814697265625	-4.184722900390625	-1.01470947265625	9.612121115112304	0.47644613037109373	0.3220201232910156	1.07574462890625	-4.61578369140625	-3.551483154296875	9.842563024902343	0.18315642700195311	-0.05566518859863281	3.70025634765625	-4.459381103515625	-2.69317626953125	
256	1.024	0.0	0.0	0.0	0.0	4.563	4.611	4.605	4.566	9.811438403320311	0.32920272827148434	0.1131260284423828	0.247955322265625	-2.246856689453125	-0.7171630859375	9.69771382446289	0.35134909362792965	0.1897404815673828	1.148223876953125	-4.94384765625	-3.025054931640625	9.67856021118164	0.36691140441894526	0.020949264526367185	3.60870361328125	-4.5318603515625	-2.063751220703125	
257	1.028	0.0	0.0	0.0	0.0	4.566	4.614	4.614	4.533	9.828796365356444	0.2597708801269531	0.0939724151611328	4.150390625	-4.451751708984375	-0.9613037109375	9.625289224243163	0.526125814819336	0.33518823242187495	0.43487548828125	-4.72259521484375	-3.21197509765625	9.916783276367187	0.11133037719726561	-0.08439560852050781	3.63922119140625	-4.581451416015625	-2.44140625	
258	1.032	0.0	0.0	0.0	0.0	4.569	4.614	4.614	4.527	10.104129556274414	0.055066638183593745	-0.18435352783203124	4.627227783203125	-4.974365234375	-0.79345703125	9.922768780517577	0.181959326171875	0.04369418029785156	0.652313232421875	-5.0506591796875	-2.74658203125	10.039486111450195	0.21128829650878905	-0.17896657409667968	3.681182861328125	-4.6844482421875	-2.37274169921875	
259	1.036	0.0	0.0	0.0	0.0	4.569	4.611	4.614	4.548	9.777919580078125	0.3507505432128906	0.16819266662597654	3.360748291015625	-3.92913818359375	-0.766754150390625	9.469067565917967	0.5704185455322265	0.4171896392822265	0.701904296875	-4.9285888671875	-3.2501220703125	9.886257205200195	0.01975216369628906	-0.1879448303222656	3.513336181640625	-4.14276123046875	-2.532958984375	
260	1.04	0.0	0.0	0.0	0.0	4.5600000000000005	4.614	4.617	4.554	9.975441217041014	0.3112462158203125	-0.06344634399414062	4.360198974609375	-5.001068115234375	-0.67138671875	9.750386260986328	0.3854664672851562	0.14125789794921875	1.163482666015625	-4.970550537109375	-2.4871826171875	9.790489138793944	0.41060558471679687	-0.06105214233398437	3.650665283203125	-4.608154296875	-2.25830078125	
261	1.044	0.0	0.0	0.0	0.0	4.566	4.617	4.617	4.557	9.94072529296875	0.11432312927246092	0.0053869537353515625	3.68499755859375	-4.0435791015625	-0.949859619140625	9.962273107910155	0.36212300109863277	0.012569558715820313	1.194000244140625	-4.8065185546875	-3.093719482421875	10.231022244262695	-0.18255787658691405	-0.3447650390625	3.650665283203125	-4.497528076171875	-2.178192138671875	
262	1.048	0.0	0.0	0.0	0.0	4.554	4.614	4.614	3.201	10.031106405639648	0.24779987182617186	-0.19393033447265623	4.283905029296875	-4.81414794921875	-0.99945068359375	9.76894132385254	0.4010287780761719	0.08918401184082031	0.51116943359375	-4.9591064453125	-2.964019775390625	9.75517466430664	0.4321533996582031	-0.06105214233398437	3.360748291015625	-4.375457763671875	-2.201080322265625	
263	1.052	0.0	0.0	0.0	0.0	3.201	0.003	0.003	0.003	9.852738381958007	0.3268085266113281	0.01975216369628906	5.62286376953125	-5.36346435546875	-0.682830810546875	9.701305126953125	0.5638344909667968	0.17298106994628906	1.140594482421875	-5.1422119140625	-2.864837646484375	9.991003527832031	0.07062894897460938	-0.32082302246093747	3.787994384765625	-4.695892333984375	-1.956939697265625	
264	1.056	0.0	0.0	0.0	0.0	0.003	0.003	0.003	0.006	10.097545501708984	0.16220716247558592	-0.2813186950683594	4.329681396484375	-5.054473876953125	-0.92315673828125	9.903615167236328	0.258573779296875	0.025139117431640625	0.659942626953125	-5.260467529296875	-2.819061279296875	10.155006341552733	0.2561795776367187	-0.21188684692382811	3.56292724609375	-4.5928955078125	-2.216339111328125	
265	1.06	0.0	0.0	0.0	0.0	0.0	0.003	0.003	0.006	9.973645565795898	0.12629413757324218	-0.15083470458984374	5.83648681640625	-5.580902099609375	-0.91552734375	9.82460651245117	0.49260699157714843	0.08978256225585937	0.965118408203125	-4.82940673828125	-3.337860107421875	10.12567737121582	-0.025737667846679687	-0.4177881896972656	3.665924072265625	-4.497528076171875	-2.124786376953125	
266	1.064	0.0	0.0	0.0	0.0	0.003	0.003	0.003	0.003	9.968857162475585	0.2292448089599609	-0.17597382202148437	2.838134765625	-3.88336181640625	-0.720977783203125	9.767145672607422	0.546476528930664	0.1657984649658203	0.84686279296875	-4.894256591796875	-2.689361572265625	9.871293444824218	0.4291606475830078	-0.15861585998535155	3.551483154296875	-4.46319580078125	-2.38037109375	
267	1.068	0.0	0.0	0.0	0.0	0.0	0.003	0.006	0.006	9.919177478027343	-0.011372457885742187	-0.13467384338378904	4.787445068359375	-5.153656005859375	-0.60272216796875	9.840168823242188	0.44113165588378905	0.02154781494140625	1.247406005859375	-5.0506591796875	-2.788543701171875	10.290278735351562	0.23044190979003906	-0.8038532073974609	3.627777099609375	-4.73785400390625	-1.99127197265625	
268	1.072	0.0	0.0	0.0	0.0	0.006	0.003	0.003	0.006	9.740210903930663	-0.003591302490234375	0.15203180541992187	2.994537353515625	-4.085540771484375	-0.995635986328125	9.991003527832031	0.4381389038085937	-0.012569558715820313	0.988006591796875	-4.940032958984375	-2.483367919921875	10.213664282226562	0.1292868896484375	-0.4082113830566406	3.719329833984375	-4.81414794921875	-2.29644775390625	
269	1.076	0.0	0.0	0.0	0.0	0.006	0.003	0.003	0.006	9.912593423461914	0.08379705810546874	-0.2328361114501953	5.0506591796875	-5.2490234375	-1.079559326171875	9.809044201660155	0.5835866546630859	-0.11851298217773437	1.46484375	-5.153656005859375	-3.124237060546875	10.174159954833984	0.2663549346923828	-0.632667788696289	3.6163330078125	-4.520416259765625	-2.246856689453125	
270	1.08	0.0	0.0	0.0	0.0	0.006	0.006	0.006	0.003	9.572616787719726	-0.08918401184082031	0.3806780639648437	2.170562744140625	-3.650665283203125	-0.86212158203125	9.77432827758789	0.5069722015380859	0.2088940948486328	0.728607177734375	-5.21087646484375	-2.490997314453125	9.950302099609374	0.3064578125	-0.19812018737792966	3.650665283203125	-4.94384765625	-2.208709716796875	
271	1.084	0.0	0.0	0.0	0.0	0.003	0.003	0.003	0.006	9.771934075927733	-0.12090718383789062	0.17357962036132812	-2.32696533203125	-0.530242919921875	-0.804901123046875	9.951499200439452	0.48662148742675776	-0.11731588134765625	1.659393310546875	-5.054473876953125	-3.253936767578125	10.34833812561035	0.18136077575683593	-0.6278793853759765	3.459930419921875	-4.283905029296875	-2.2735595703125	
272	1.088	0.0	0.0	0.0	0.0	0.006	0.006	0.003	0.006	9.648632690429688	-0.13108254089355467	0.31004911499023435	0.74005126953125	-2.38037109375	-0.972747802734375	9.756371765136718	0.5823895538330078	0.13766659545898435	0.885009765625	-4.909515380859375	-3.475189208984375	10.083180291748047	0.2041056915283203	-0.20829554443359374	3.65447998046875	-4.497528076171875	-2.208709716796875	
273	1.092	0.0	0.0	0.0	0.0	0.006	0.003	0.003	0.003	9.704297879028319	0.20350714111328125	0.22685060729980466	-1.8463134765625	-0.5645751953125	-1.06048583984375	9.78031378173828	0.6015431671142578	0.0718260498046875	1.373291015625	-5.008697509765625	-3.261566162109375	10.17056865234375	0.2998737579345703	-0.594959112548828	3.772735595703125	-4.772186279296875	-2.407073974609375	
274	1.096	0.0	0.0	0.0	0.0	0.003	0.003	0.003	0.003	9.655216744995117	-0.17298106994628906	0.3746925598144531	0.354766845703125	-2.231597900390625	-0.9307861328125	9.792284790039062	0.5602431884765625	0.17956512451171874	0.835418701171875	-4.856109619140625	-3.05938720703125	10.158597644042969	0.21128829650878905	-0.2741360900878906	3.42559814453125	-4.84466552734375	-1.903533935546875	
275	1.1	0.0	0.0	0.0	0.0	0.006	0.003	0.006	0.003	9.810839852905273	0.06883329772949218	0.14305354919433594	-1.934051513671875	-0.621795654296875	-1.049041748046875	9.884461553955077	0.37409400939941406	0.1466448516845703	0.522613525390625	-4.901885986328125	-3.093719482421875	10.140042581176758	0.08918401184082031	-0.5434837768554687	3.498077392578125	-4.718780517578125	-2.349853515625	
276	1.104	0.0	0.0	0.0	0.0	0.003	0.003	0.003	0.003	9.950302099609374	0.3220201232910156	-0.08738836059570312	0.415802001953125	-2.1209716796875	-1.0528564453125	9.67856021118164	0.6177040283203125	0.24361001892089842	0.850677490234375	-4.955291748046875	-3.131866455078125	9.945513696289062	0.3280056274414062	-0.16460136413574217	3.475189208984375	-4.7760009765625	-1.995086669921875	
277	1.108	0.0	0.0	0.0	0.0	0.006	0.006	0.003	0.003	9.80665	0.2609679809570312	0.12868833923339842	-2.11334228515625	-0.675201416015625	-1.049041748046875	9.760561618041992	0.4632780212402344	0.22206220397949217	0.598907470703125	-4.840850830078125	-2.681732177734375	9.983820922851562	0.14903905334472656	-0.4261678955078125	3.376007080078125	-4.741668701171875	-2.071380615234375	
278	1.112	0.0	0.0	0.0	0.0	0.003	0.006	0.006	0.006	10.084377392578125	0.15203180541992187	-0.2825157958984375	2.017974853515625	-3.192901611328125	-0.8392333984375	9.805452899169921	0.32620997619628905	0.07841010437011718	0.4425048828125	-4.638671875	-2.99835205078125	9.880870251464843	0.3112462158203125	-0.007781155395507812	3.76129150390625	-4.58526611328125	-2.613067626953125	
279	1.116	0.0	0.0	0.0	0.0	0.003	0.003	0.003	0.006	9.887454306030273	0.3016694091796875	-0.033518823242187495	6.8359375	-6.557464599609375	-0.9613037109375	9.788693487548828	0.5057751007080078	0.023942016601562498	0.09918212890625	-4.909515380859375	-2.9144287109375	9.945513696289062	0.03950432739257812	-0.3190273712158203	3.520965576171875	-4.57000732421875	-2.35748291015625	
280	1.12	0.0	0.0	0.0	0.0	0.003	0.003	0.003	0.006	9.995791931152343	0.3082534637451172	-0.15382745666503905	3.44085693359375	-4.730224609375	-1.06048583984375	9.606135610961914	0.4423287567138672	0.3016694091796875	0.6256103515625	-4.718780517578125	-3.0059814453125	9.718663088989258	0.46627077331542965	0.061650692749023434	3.65447998046875	-4.428863525390625	-2.49481201171875	
281	1.124	0.0	0.0	0.0	0.0	0.003	0.003	0.003	0.003	9.95389340209961	0.25797522888183594	-0.1466448516845703	6.549835205078125	-6.435394287109375	-0.885009765625	9.777321029663085	0.3597287994384765	0.13646949462890623	1.483917236328125	-5.168914794921875	-3.24249267578125	9.880271701049804	-0.03890577697753906	-0.018555062866210937	3.56292724609375	-4.669189453125	-2.353668212890625	
282	1.1280000000000001	0.0	0.0	0.0	0.0	0.003	0.003	0.006	0.003	9.97184991455078	0.09696516723632811	-0.13287819213867186	3.627777099609375	-4.421234130859375	-0.9765625	9.6917283203125	0.4082113830566406	0.22685060729980466	1.598358154296875	-4.94384765625	-3.387451171875	9.80724855041504	0.35134909362792965	0.13946224670410157	3.7689208984375	-4.3182373046875	-2.834320068359375	
283	1.1320000000000001	0.0	0.0	0.0	0.0	0.003	0.003	0.006	0.006	9.83777462158203	0.258573779296875	0.1227028350830078	4.680633544921875	-5.023956298828125	-0.988006591796875	9.662997900390625	0.45190556335449217	0.3573345977783203	1.102447509765625	-4.985809326171875	-2.93731689453125	9.68514426574707	0.058657940673828124	0.15023615417480468	3.60107421875	-4.2572021484375	-2.197265625	
284	1.1360000000000001	0.0	0.0	0.0	0.0	0.006	0.003	0.006	0.003	9.898826763916015	0.10235212097167969	0.18435352783203124	4.00543212890625	-4.428863525390625	-0.86212158203125	9.658209497070311	0.41060558471679687	0.25917232971191406	1.068115234375	-4.695892333984375	-3.032684326171875	9.791087689208984	0.412401235961914	0.21607669982910155	3.53240966796875	-4.37164306640625	-2.197265625	
285	1.1400000000000001	0.0	0.0	0.0	0.0	0.006	0.003	0.006	0.006	9.962871658325195	0.21248539733886718	-0.08379705810546874	3.60870361328125	-4.245758056640625	-1.16729736328125	9.83777462158203	0.33578678283691404	0.1801636749267578	1.071929931640625	-5.046844482421875	-3.1280517578125	9.900023864746093	-0.076614453125	0.1484405029296875	3.7078857421875	-4.627227783203125	-2.231597900390625	
286	1.1440000000000001	0.0	0.0	0.0	0.0	0.003	0.003	0.006	0.006	9.976039767456054	0.11432312927246092	0.09816226806640624	4.940032958984375	-5.2337646484375	-0.789642333984375	9.744400756835937	0.3920505218505859	0.35793314819335936	0.743865966796875	-4.7760009765625	-2.986907958984375	9.890447058105469	0.22565350646972654	0.03411737365722656	3.50189208984375	-4.23431396484375	-2.559661865234375	
287	1.1480000000000001	0.0	0.0	0.0	0.0	0.0	0.003	0.003	0.003	9.99220062866211	0.086191259765625	-0.1945288848876953	2.750396728515625	-4.047393798828125	-0.823974609375	9.756970315551758	0.37409400939941406	0.17896657409667968	0.728607177734375	-5.115509033203125	-2.788543701171875	9.75517466430664	0.06404489440917968	0.18614917907714842	3.42559814453125	-4.482269287109375	-1.964569091796875	
288	1.1520000000000001	0.0	0.0	0.0	0.0	0.003	0.003	0.006	0.003	10.032303506469725	0.09576806640624999	0.0	5.79833984375	-5.50079345703125	-0.69427490234375	9.836577520751952	0.3076549133300781	0.27353753967285155	1.117706298828125	-4.573822021484375	-3.0670166015625	10.095151300048828	0.05087678527832031	-0.08379705810546874	3.757476806640625	-4.474639892578125	-2.452850341796875	
289	1.156	0.0	0.0	0.0	0.0	0.003	0.006	0.006	0.003	9.836577520751952	0.018555062866210937	0.5057751007080078	5.420684814453125	-5.14984130859375	-0.8697509765625	9.855731134033203	0.38786066894531246	0.37409400939941406	0.797271728515625	-5.100250244140625	-2.826690673828125	10.10652375793457	0.2424129180908203	-0.09816226806640624	3.7078857421875	-4.611968994140625	-2.0294189453125	
290	1.16	0.0	0.0	0.0	0.0	0.003	0.003	0.003	0.006	9.928155734252929	0.03950432739257812	0.08978256225585937	5.31005859375	-5.18798828125	-0.621795654296875	9.722254391479492	0.43514615173339843	0.3435679382324219	1.277923583984375	-4.894256591796875	-3.154754638671875	9.89523546142578	0.17238251953125	-0.03232172241210937	3.875732421875	-4.489898681640625	-2.4871826171875	
291	1.164	0.0	0.0	0.0	0.0	0.003	0.003	1.983	4.524	9.777919580078125	0.19393033447265623	0.546476528930664	4.96673583984375	-5.0506591796875	-0.77056884765625	9.839570272827148	0.3525461944580078	0.4369418029785156	0.23651123046875	-4.82940673828125	-2.50244140625	10.144232434082031	0.3064578125	-0.10654197387695312	3.6468505859375	-4.52423095703125	-1.827239990234375	
292	1.168	0.0	0.0	0.0	0.0	4.563	4.611	4.611	4.539	9.999383233642577	0.12030863342285156	-0.06823474731445311	0.3204345703125	-2.079010009765625	-1.064300537109375	10.012551342773437	0.5015852478027344	-0.10474632263183593	1.8768310546875	-4.8675537109375	-3.147125244140625	10.358513482666016	-0.08978256225585937	-0.4590881683349609	3.62396240234375	-4.512786865234375	-2.38037109375	
293	1.172	0.0	0.0	0.0	0.0	4.563	4.617	4.614	4.551	9.76774422302246	0.08140285644531249	0.3920505218505859	3.9215087890625	-4.650115966796875	-0.698089599609375	9.783905084228515	0.41898529052734373	0.2932897033691406	0.42724609375	-5.2337646484375	-2.574920654296875	10.025719451904296	0.47165772705078124	-0.1610100616455078	3.749847412109375	-4.573822021484375	-1.918792724609375	
294	1.176	0.0	0.0	0.0	0.0	4.563	4.617	4.617	4.557	9.82460651245117	-0.028730419921875	0.16879121704101563	0.598907470703125	-2.74658203125	-0.89263916015625	9.919776028442381	0.5608417388916015	0.023942016601562498	1.59454345703125	-4.924774169921875	-3.01361083984375	10.178948358154296	-0.05985504150390625	-0.3435679382324219	3.5552978515625	-4.425048828125	-2.15911865234375	
295	1.18	0.0	0.0	0.0	0.0	4.554	4.614	4.614	4.566	9.811438403320311	0.08858546142578125	0.2902969512939453	4.791259765625	-4.93621826171875	-0.762939453125	9.738415252685547	0.5392939239501953	0.2519897247314453	0.7781982421875	-4.932403564453125	-2.735137939453125	10.269928021240235	0.3842693664550781	-0.36631285400390623	3.70025634765625	-4.764556884765625	-2.44140625	
296	1.184	0.0	0.0	0.0	0.0	4.566	4.611	4.605	4.557	9.886257205200195	-0.12090718383789062	0.016759411621093748	0.354766845703125	-2.3651123046875	-1.251220703125	9.865307940673828	0.6171054779052734	0.025139117431640625	1.60980224609375	-4.848480224609375	-3.11279296875	10.104728106689452	-0.0143652099609375	-0.2950853546142578	3.83758544921875	-4.543304443359375	-2.43377685546875	
297	1.188	0.0	0.0	0.0	0.0	4.563	4.614	4.617	4.533	9.749787710571288	-0.06344634399414062	0.21966800231933592	0.301361083984375	-2.208709716796875	-1.224517822265625	9.597157354736327	0.6057330200195312	0.3094505645751953	0.583648681640625	-5.107879638671875	-2.8533935546875	9.894038360595703	0.4950011932373047	-0.037110125732421874	3.368377685546875	-4.535675048828125	-2.00653076171875	
298	1.192	0.0	0.0	0.0	0.0	4.569	4.611	4.614	4.533	9.91498762512207	-0.24959552307128904	-0.09756371765136718	0.232696533203125	-2.277374267578125	-0.988006591796875	9.861118087768554	0.4417302062988281	0.029328970336914062	1.194000244140625	-4.932403564453125	-3.0975341796875	10.21486138305664	-0.08080430603027343	-0.4321533996582031	3.765106201171875	-4.5318603515625	-2.300262451171875	
299	1.196	0.0	0.0	0.0	0.0	4.569	4.611	0.003	0.006	9.753379013061522	-0.10654197387695312	0.18136077575683593	-0.54931640625	-2.040863037109375	-1.02996826171875	9.667786303710937	0.6554127044677734	0.1484405029296875	0.804901123046875	-5.123138427734375	-2.819061279296875	10.218452685546874	0.3752911102294922	-0.5895721588134766	3.337860107421875	-4.711151123046875	-2.09808349609375	
300	1.2	0.0	0.0	0.0	0.0	0.006	0.003	0.003	0.003	9.802460147094726	-0.13646949462890623	0.02693476867675781	0.072479248046875	-2.18963623046875	-0.911712646484375	9.779116680908203	0.45190556335449217	0.020350714111328123	0.957489013671875	-4.878997802734375	-3.1890869140625	10.058041174316406	0.24121581726074218	-0.556053335571289	3.582000732421875	-4.92095947265625	-2.185821533203125	
301	1.204	0.0	0.0	0.0	0.0	0.006	0.006	0.003	0.009000000000000001	9.74799205932617	-0.181959326171875	0.14125789794921875	-1.09100341796875	-1.4495849609375	-0.934600830078125	9.75517466430664	0.5458779785156249	0.05985504150390625	1.12152099609375	-5.107879638671875	-3.459930419921875	10.10652375793457	0.3220201232910156	-0.40402153015136716	3.6163330078125	-4.467010498046875	-2.34222412109375	
302	1.208	0.0	0.0	0.0	0.0	0.003	0.003	0.003	0.003	9.922768780517577	0.16759411621093748	-0.09516951599121093	0.09918212890625	-1.964569091796875	-1.09100341796875	9.871891995239258	0.4704606262207031	-0.06105214233398437	1.007080078125	-5.2337646484375	-3.368377685546875	10.17056865234375	0.14903905334472656	-0.6105214233398437	3.559112548828125	-4.772186279296875	-2.002716064453125	
303	1.212	0.0	0.0	0.0	0.0	0.003	0.006	0.003	0.003	9.776722479248047	-0.008379705810546874	0.0047884033203125	-1.140594482421875	-1.499176025390625	-1.178741455078125	9.715071786499022	0.5315127685546874	0.07541735229492187	0.9307861328125	-5.05828857421875	-3.28826904296875	9.822810861206055	0.13287819213867186	-0.18375497741699218	3.4637451171875	-4.718780517578125	-2.38800048828125	
304	1.216	0.0	0.0	0.0	0.0	0.006	0.006	0.006	0.003	9.89583401184082	0.36272155151367186	-0.09816226806640624	1.407623291015625	-2.964019775390625	-0.823974609375	9.73602105102539	0.4321533996582031	0.05327098693847656	1.1138916015625	-4.955291748046875	-2.7923583984375	10.083180291748047	0.2280477081298828	-0.6314706878662109	3.448486328125	-4.8065185546875	-2.170562744140625	
305	1.22	0.0	0.0	0.0	0.0	0.006	0.006	0.003	0.006	9.858723886108399	0.059256491088867186	-0.014963760375976562	4.5623779296875	-5.008697509765625	-0.95367431640625	9.823409411621093	0.5321113189697265	-0.001197100830078125	0.850677490234375	-4.863739013671875	-3.2806396484375	9.886855755615233	0.12090718383789062	-0.25139117431640623	3.543853759765625	-4.50897216796875	-2.4566650390625	
306	1.224	0.0	0.0	0.0	0.0	0.006	0.003	0.003	0.006	9.962273107910155	0.24899697265624998	-0.3178302703857422	1.68609619140625	-3.0670166015625	-0.965118408203125	9.708487731933593	0.35015199279785153	0.028730419921875	0.6103515625	-4.93621826171875	-3.002166748046875	9.88386300354004	0.24301146850585936	-0.2747346405029297	3.353118896484375	-4.711151123046875	-2.307891845703125	
