	time	dac1	dac2	dac3	dac4	adc1.3	adc2.3	adc3.3	adc4.3	imu1accx	imu1accy	imu1accz	imu1gyrox	imu1gyroy	imu1gyroz	imu2accx	imu2accy	imu2accz	imu2gyrox	imu2gyroy	imu2gyroz	imu3accx	imu3accy	imu3accz	imu3gyrox	imu3gyroy	imu3gyroz	log
0	0.0	0.0	0.0	0.0	0.0	0.003	0.006	0.003	0.003	9.878476049804688	0.10235212097167969	0.055066638183593745	2.719879150390625	-3.917694091796875	-0.86212158203125	9.783905084228515	0.4734533782958984	0.16759411621093748	1.007080078125	-4.87518310546875	-3.08990478515625	10.017938296508788	0.19931728820800781	-0.2316390106201172	3.368377685546875	-4.512786865234375	-2.124786376953125	Estabilizou em 10s, 2087  rpm
1	0.004	0.0	0.0	0.0	0.0	0.003	0.006	0.006	0.003	9.87608184814453	0.10594342346191406	0.04908113403320312	2.506256103515625	-3.643035888671875	-1.01470947265625	9.782707983398437	0.469862075805664	0.16639701538085935	0.84686279296875	-5.191802978515625	-2.849578857421875	10.01015714111328	0.20171148986816406	-0.23104046020507812	3.574371337890625	-4.34112548828125	-2.1209716796875	Started
2	0.008	0.0	0.0	0.0	0.0	0.006	0.006	0.003	0.006	9.877877499389648	0.10175357055664062	0.05327098693847656	2.620697021484375	-3.719329833984375	-1.026153564453125	9.783905084228515	0.46806642456054687	0.16280571289062498	0.690460205078125	-4.673004150390625	-3.047943115234375	10.014945544433592	0.19512743530273435	-0.23582886352539062	3.5552978515625	-4.49371337890625	-2.197265625	IMU1|LSM6DS3|0x6A|I2C-1|±2g (±19,6m/s²)|±125º/s|400Hz
3	0.012	0.0	0.0	0.0	0.0	0.006	0.003	0.006	0.006	9.873089096069336	0.1005564697265625	0.05626373901367187	2.50244140625	-3.387451171875	-0.86212158203125	9.787496386718749	0.469862075805664	0.1753752716064453	1.0223388671875	-4.894256591796875	-2.872467041015625	10.016142645263672	0.1879448303222656	-0.2376245147705078	3.650665283203125	-4.619598388671875	-2.1514892578125	IMU2|LSM6DS3|0x6B|I2C-1|±2g (±19,6m/s²)|±125º/s|400Hz
4	0.016	0.0	0.0	0.0	0.0	0.003	0.003	0.003	0.003	9.87727894897461	0.09995791931152344	0.05626373901367187	2.4566650390625	-3.753662109375	-0.904083251953125	9.791087689208984	0.46806642456054687	0.16759411621093748	1.087188720703125	-5.008697509765625	-2.9296875	10.014945544433592	0.18614917907714842	-0.23223756103515625	3.326416015625	-4.383087158203125	-2.124786376953125	IMU3|LSM6DS3|0x6B|I2C-2|±2g (±19,6m/s²)|±125º/s|400Hz
5	0.02	0.0	0.0	0.0	0.0	0.003	0.003	0.003	0.003	9.867702142333984	0.10714052429199218	0.05985504150390625	2.38800048828125	-3.551483154296875	-0.80108642578125	9.788693487548828	0.45190556335449217	0.17178396911621094	0.9307861328125	-4.871368408203125	-2.719879150390625	10.013748443603514	0.19033903198242186	-0.22864625854492185	3.467559814453125	-4.611968994140625	-2.17437744140625	ADC|ADS1015|0|0|1|0|±6,144 V|2400 SPS
6	0.024	0.0	0.0	0.0	0.0	0.003	0.003	0.003	0.0	9.867702142333984	0.09157821350097656	0.05805939025878906	2.819061279296875	-3.749847412109375	-1.0833740234375	9.787496386718749	0.45489831542968745	0.17238251953125	0.732421875	-5.21087646484375	-2.99835205078125	10.026916552734374	0.19931728820800781	-0.22266075439453123	3.383636474609375	-4.711151123046875	-2.227783203125	Gen1|Disabled
7	0.028	0.0	0.0	0.0	0.0	0.009000000000000001	0.003	0.006	0.006	9.865307940673828	0.08499415893554688	0.06763619689941405	2.410888671875	-3.986358642578125	-0.812530517578125	9.782707983398437	0.45489831542968745	0.17776947326660156	1.0528564453125	-5.11932373046875	-2.92205810546875	10.022726699829102	0.1927332336425781	-0.22744915771484372	3.513336181640625	-4.46319580078125	-2.071380615234375	Gen2|Enabled|Noise|0.0|10.0|1668
8	0.032	0.0	0.0	0.0	0.0	0.003	0.003	0.003	0.006	9.874884747314452	0.09756371765136718	0.06823474731445311	2.628326416015625	-3.814697265625	-0.804901123046875	9.779116680908203	0.4638765716552734	0.16998831787109375	1.1749267578125	-5.092620849609375	-2.819061279296875	10.011354241943359	0.1867477294921875	-0.22026655273437498	3.631591796875	-4.547119140625	-1.995086669921875	Gen3|Enabled|Noise|0.0|10.0|128
9	0.036000000000000004	0.0	0.0	0.0	0.0	0.006	0.003	0.003	0.003	9.868899243164062	0.1005564697265625	0.05746083984375	2.605438232421875	-3.51715087890625	-0.87738037109375	9.784503634643555	0.47165772705078124	0.17118541870117188	0.84686279296875	-4.848480224609375	-3.017425537109375	10.022726699829102	0.20231004028320312	-0.21966800231933592	3.70025634765625	-4.69207763671875	-2.117156982421875	Gen4|Enabled|Noise|0.0|10.0|128
10	0.04	0.0	0.0	0.0	0.0	0.003	0.006	0.003	0.006	9.874286196899414	0.10414777221679687	0.05746083984375	2.60162353515625	-3.8909912109375	-0.919342041015625	9.777321029663085	0.46806642456054687	0.16998831787109375	1.056671142578125	-4.962921142578125	-2.872467041015625	10.012551342773437	0.18734627990722655	-0.2262520568847656	3.757476806640625	-4.79888916015625	-2.0599365234375	Ctrl|Disabled
11	0.044	0.0	0.0	0.0	0.0	0.003	0.003	0.006	0.003	9.873687646484374	0.09696516723632811	0.06943184814453125	2.6397705078125	-3.711700439453125	-1.911163330078125	9.778518130493163	0.4734533782958984	0.17238251953125	0.77056884765625	-5.0506591796875	-2.9754638671875	10.016142645263672	0.19393033447265623	-0.2154781494140625	3.566741943359375	-4.73785400390625	-2.2125244140625	
12	0.048	0.0	0.0	0.0	0.0	0.006	0.003	0.003	0.003	9.868899243164062	0.09935936889648436	0.05985504150390625	2.620697021484375	-3.570556640625	-0.89263916015625	9.776722479248047	0.4656722229003906	0.16998831787109375	0.881195068359375	-4.871368408203125	-3.02886962890625	10.001777435302733	0.19931728820800781	-0.22565350646972654	3.635406494140625	-4.6539306640625	-2.105712890625	
13	0.052000000000000005	0.0	0.0	0.0	0.0	0.006	0.006	0.003	0.003	9.873687646484374	0.10714052429199218	0.0718260498046875	2.567291259765625	-3.70025634765625	-1.041412353515625	9.777919580078125	0.4638765716552734	0.16041151123046873	0.87738037109375	-5.046844482421875	-3.11279296875	10.00955859069824	0.1897404815673828	-0.23343466186523437	3.5400390625	-4.550933837890625	-2.00653076171875	
14	0.056	0.0	0.0	0.0	0.0	0.003	0.003	0.003	0.006	9.865906491088866	0.10414777221679687	0.05746083984375	2.620697021484375	-3.681182861328125	-0.743865966796875	9.782707983398437	0.4782417816162109	0.16280571289062498	0.92315673828125	-4.95147705078125	-3.08990478515625	10.008960040283203	0.20051438903808594	-0.23523031311035156	3.475189208984375	-4.627227783203125	-2.178192138671875	
15	0.06	0.0	0.0	0.0	0.0	0.0	0.003	0.003	0.003	9.866505041503906	0.09935936889648436	0.058657940673828124	2.51007080078125	-3.467559814453125	-1.09100341796875	9.789890588378906	0.47285482788085936	0.17178396911621094	1.064300537109375	-5.096435546875	-3.231048583984375	10.003573086547851	0.19093758239746092	-0.23523031311035156	3.810882568359375	-4.730224609375	-2.1209716796875	
16	0.064	0.0	0.0	0.0	0.0	0.003	0.003	0.003	0.006	9.867103591918944	0.09576806640624999	0.06584054565429687	2.54058837890625	-3.658294677734375	-0.89263916015625	9.789890588378906	0.46627077331542965	0.16460136413574217	0.881195068359375	-4.863739013671875	-2.941131591796875	10.01015714111328	0.19213468322753904	-0.229843359375	3.59344482421875	-4.50897216796875	-2.277374267578125	
17	0.068	0.0	0.0	0.0	0.0	0.003	0.006	0.006	0.003	9.874884747314452	0.09816226806640624	0.06105214233398437	2.559661865234375	-3.726959228515625	-0.759124755859375	9.787496386718749	0.46627077331542965	0.16998831787109375	0.9307861328125	-5.2337646484375	-2.9296875	10.018536846923828	0.2041056915283203	-0.2328361114501953	3.627777099609375	-4.5318603515625	-2.147674560546875	
18	0.07200000000000001	0.0	0.0	0.0	0.0	0.006	0.006	0.006	0.006	9.879074600219726	0.09816226806640624	0.05327098693847656	2.74658203125	-3.726959228515625	-0.957489013671875	9.787496386718749	0.4644751220703125	0.17597382202148437	1.0986328125	-5.1116943359375	-3.063201904296875	10.011354241943359	0.1927332336425781	-0.23642741394042968	3.50189208984375	-4.589080810546875	-2.0904541015625	
19	0.076	0.0	0.0	0.0	0.0	0.003	0.006	0.003	0.003	9.880870251464843	0.1083376251220703	0.06883329772949218	2.6397705078125	-3.704071044921875	-0.9765625	9.77492682800293	0.47165772705078124	0.18555062866210936	1.01470947265625	-4.894256591796875	-2.8839111328125	10.018536846923828	0.19033903198242186	-0.23343466186523437	3.536224365234375	-4.70733642578125	-2.140045166015625	
20	0.08	0.0	0.0	0.0	0.0	0.006	0.006	0.006	0.006	9.877877499389648	0.10714052429199218	0.05087678527832031	2.6397705078125	-3.665924072265625	-1.041412353515625	9.776722479248047	0.45968671875	0.17597382202148437	0.865936279296875	-4.9285888671875	-3.070831298828125	10.01015714111328	0.19393033447265623	-0.23223756103515625	3.5858154296875	-4.7149658203125	-2.338409423828125	
21	0.084	0.0	0.0	0.0	0.0	0.003	0.006	0.003	0.0	9.875483297729492	0.10474632263183593	0.05327098693847656	2.582550048828125	-3.520965576171875	-0.96893310546875	9.782109432983399	0.46627077331542965	0.1640028137207031	0.797271728515625	-5.04302978515625	-2.9296875	10.018536846923828	0.201112939453125	-0.2442085693359375	3.662109375	-4.5928955078125	-1.94549560546875	
22	0.088	0.0	0.0	0.0	0.0	0.003	0.003	0.003	0.003	9.867702142333984	0.09756371765136718	0.05327098693847656	2.574920654296875	-3.7078857421875	-1.003265380859375	9.78031378173828	0.4608838195800781	0.16519991455078123	0.812530517578125	-5.031585693359375	-3.05938720703125	10.013748443603514	0.18854338073730467	-0.2328361114501953	3.51715087890625	-4.49371337890625	-2.162933349609375	
23	0.092	0.0	0.0	0.0	0.0	0.003	0.006	0.003	0.006	9.874884747314452	0.09576806640624999	0.04668693237304687	2.716064453125	-3.72314453125	-1.094818115234375	9.783306533813477	0.46686932373046874	0.16340426330566404	0.99945068359375	-5.08880615234375	-3.0975341796875	10.01674119567871	0.18614917907714842	-0.2454056701660156	3.620147705078125	-4.444122314453125	-2.010345458984375	
24	0.096	0.0	0.0	0.0	0.0	0.003	0.003	0.006	0.006	9.868899243164062	0.09157821350097656	0.051475335693359374	2.58636474609375	-3.68499755859375	-0.96893310546875	9.779116680908203	0.46806642456054687	0.17238251953125	1.201629638671875	-5.130767822265625	-2.895355224609375	10.016142645263672	0.1897404815673828	-0.22744915771484372	3.5552978515625	-4.5166015625	-2.1514892578125	
25	0.1	0.0	0.0	0.0	0.0	0.003	0.006	0.003	0.003	9.868899243164062	0.09516951599121093	0.04548983154296875	2.64739990234375	-3.978729248046875	-0.888824462890625	9.775525378417969	0.4638765716552734	0.16340426330566404	0.9765625	-4.817962646484375	-2.99835205078125	10.017938296508788	0.19153613281249998	-0.2214636535644531	3.57818603515625	-4.680633544921875	-1.99127197265625	
26	0.10400000000000001	0.0	0.0	0.0	0.0	0.009000000000000001	0.003	0.006	0.009000000000000001	9.87668039855957	0.09756371765136718	0.05027823486328125	2.3956298828125	-3.54766845703125	-0.904083251953125	9.78629928588867	0.4560954162597656	0.15442600708007811	1.033782958984375	-4.852294921875	-3.070831298828125	10.008960040283203	0.18136077575683593	-0.2424129180908203	3.5552978515625	-4.47845458984375	-2.166748046875	
27	0.108	0.0	0.0	0.0	0.0	0.006	0.006	0.003	0.006	9.882067352294921	0.1005564697265625	0.033518823242187495	2.628326416015625	-3.631591796875	-0.820159912109375	9.773131176757811	0.4608838195800781	0.15741875915527342	0.820159912109375	-4.8675537109375	-2.899169921875	10.02332525024414	0.1867477294921875	-0.24600422058105467	3.559112548828125	-4.451751708984375	-2.26593017578125	
28	0.112	0.0	0.0	0.0	0.0	0.003	0.003	0.006	0.006	9.87727894897461	0.09816226806640624	0.044891281127929686	2.5634765625	-3.56292724609375	-1.06048583984375	9.779116680908203	0.4608838195800781	0.16879121704101563	1.117706298828125	-5.153656005859375	-3.124237060546875	10.011354241943359	0.1975216369628906	-0.23343466186523437	3.50189208984375	-4.764556884765625	-2.31170654296875	
29	0.116	0.0	0.0	0.0	0.0	0.003	0.003	0.006	0.003	9.872490545654296	0.09935936889648436	0.03950432739257812	2.796173095703125	-3.787994384765625	-0.972747802734375	9.782707983398437	0.46208092041015625	0.15083470458984374	1.155853271484375	-5.126953125	-3.0670166015625	10.008960040283203	0.18435352783203124	-0.23882161560058593	3.71551513671875	-4.558563232421875	-2.18963623046875	
30	0.12	0.0	0.0	0.0	0.0	0.003	0.003	0.006	0.006	9.880271701049804	0.09935936889648436	0.0430956298828125	2.47955322265625	-3.51715087890625	-0.896453857421875	9.785102185058593	0.4632780212402344	0.14963760375976562	1.09100341796875	-5.176544189453125	-3.215789794921875	10.020931048583984	0.19812018737792966	-0.24181436767578124	3.406524658203125	-4.4708251953125	-2.14385986328125	
31	0.124	0.0	0.0	0.0	0.0	0.003	0.006	0.003	0.006	9.873687646484374	0.0987608184814453	0.05327098693847656	2.5787353515625	-3.406524658203125	-0.946044921875	9.785102185058593	0.4632780212402344	0.15562310791015624	0.8544921875	-4.978179931640625	-2.99835205078125	10.012551342773437	0.18555062866210936	-0.2454056701660156	3.681182861328125	-4.547119140625	-1.979827880859375	
32	0.128	0.0	0.0	0.0	0.0	0.006	0.006	0.003	0.003	9.87608184814453	0.1005564697265625	0.05626373901367187	2.689361572265625	-3.582000732421875	-0.995635986328125	9.783306533813477	0.46806642456054687	0.16280571289062498	0.8087158203125	-5.0811767578125	-2.948760986328125	10.019733947753906	0.19093758239746092	-0.24361001892089842	3.47137451171875	-4.535675048828125	-2.094268798828125	
33	0.132	0.0	0.0	0.0	0.0	0.006	0.003	0.003	0.006	9.868300692749022	0.09576806640624999	0.05686228942871093	2.47955322265625	-3.48663330078125	-0.91552734375	9.787496386718749	0.47165772705078124	0.15203180541992187	1.0223388671875	-4.924774169921875	-3.021240234375	10.01015714111328	0.18914193115234373	-0.23822306518554687	3.604888916015625	-4.695892333984375	-2.13623046875	
34	0.136	0.0	0.0	0.0	0.0	0.003	0.003	0.003	0.003	9.866505041503906	0.08798691101074219	0.05626373901367187	2.61688232421875	-4.02069091796875	-1.079559326171875	9.783306533813477	0.45968671875	0.16699556579589842	1.93023681640625	-5.08880615234375	-2.964019775390625	10.00955859069824	0.1771709228515625	-0.23403321228027343	3.513336181640625	-4.657745361328125	-2.1514892578125	
35	0.14	0.0	0.0	0.0	0.0	0.006	0.003	0.003	0.003	9.885658654785155	0.08798691101074219	0.05566518859863281	2.468109130859375	-3.62396240234375	-0.93841552734375	9.787496386718749	0.45010991210937495	0.16819266662597654	1.06048583984375	-4.87518310546875	-2.9754638671875	10.01015714111328	0.17836802368164062	-0.23044190979003906	3.833770751953125	-4.421234130859375	-2.185821533203125	
36	0.14400000000000002	0.0	0.0	0.0	0.0	0.003	0.006	0.003	0.006	9.871891995239258	0.08499415893554688	0.059256491088867186	2.407073974609375	-3.48663330078125	-0.885009765625	9.789890588378906	0.4495113616943359	0.17357962036132812	0.888824462890625	-5.18798828125	-3.204345703125	10.011354241943359	0.17238251953125	-0.2154781494140625	3.66973876953125	-4.6844482421875	-2.20489501953125	
37	0.148	0.0	0.0	0.0	0.0	0.003	0.003	0.003	0.006	9.873687646484374	0.08559270935058594	0.07422025146484375	2.72369384765625	-4.749298095703125	-1.079559326171875	9.781510882568359	0.45070846252441404	0.17597382202148437	0.8697509765625	-4.955291748046875	-3.082275390625	10.007762939453125	0.16819266662597654	-0.2280477081298828	3.60107421875	-4.444122314453125	-2.254486083984375	
38	0.152	0.0	0.0	0.0	0.0	0.003	0.003	0.003	0.003	9.8694977935791	0.07601590270996093	0.06105214233398437	2.445220947265625	-3.7078857421875	-0.873565673828125	9.784503634643555	0.4333505004882812	0.18315642700195311	0.92315673828125	-4.833221435546875	-3.021240234375	10.011354241943359	0.16819266662597654	-0.22206220397949217	3.68499755859375	-4.550933837890625	-2.170562744140625	
39	0.156	0.0	0.0	0.0	0.0	0.0	0.003	0.003	0.003	9.865307940673828	0.07900865478515624	0.0718260498046875	2.7008056640625	-3.5247802734375	-0.67901611328125	9.785700735473633	0.4429273071289062	0.18555062866210936	0.91552734375	-4.9896240234375	-3.154754638671875	10.01075569152832	0.16998831787109375	-0.20769699401855468	3.528594970703125	-4.665374755859375	-2.17437744140625	
40	0.16	0.0	0.0	0.0	0.0	0.0	0.003	0.003	0.006	9.874286196899414	0.08200140686035155	0.06823474731445311	2.468109130859375	-3.559112548828125	-1.01470947265625	9.785700735473633	0.4465186096191406	0.1867477294921875	0.823974609375	-4.718780517578125	-3.147125244140625	10.013149893188476	0.16460136413574217	-0.21009119567871093	3.559112548828125	-4.37164306640625	-2.117156982421875	
41	0.164	0.0	0.0	0.0	0.0	0.003	0.006	0.006	0.003	9.865307940673828	0.08080430603027343	0.0652419952392578	2.712249755859375	-3.757476806640625	-0.988006591796875	9.783306533813477	0.45190556335449217	0.18375497741699218	1.0833740234375	-5.008697509765625	-2.86102294921875	10.01733974609375	0.16879121704101563	-0.20829554443359374	3.570556640625	-4.57000732421875	-2.025604248046875	
42	0.168	0.0	0.0	0.0	0.0	0.003	0.003	0.006	0.006	9.87608184814453	0.08559270935058594	0.05746083984375	2.788543701171875	-3.765106201171875	-0.86212158203125	9.782707983398437	0.46028526916503903	0.17836802368164062	0.8697509765625	-4.92095947265625	-2.895355224609375	10.011952792358398	0.17657237243652343	-0.21128829650878905	3.765106201171875	-4.741668701171875	-2.12860107421875	
43	0.17200000000000001	0.0	0.0	0.0	0.0	0.006	0.003	0.003	0.006	9.877877499389648	0.10175357055664062	0.055066638183593745	2.658843994140625	-3.765106201171875	-1.056671142578125	9.782109432983399	0.4686649749755859	0.16998831787109375	1.033782958984375	-5.428314208984375	-3.170013427734375	10.017938296508788	0.17836802368164062	-0.21188684692382811	3.498077392578125	-4.72259521484375	-2.22015380859375	
44	0.176	0.0	0.0	0.0	0.0	0.003	0.003	0.003	0.003	9.877877499389648	0.09576806640624999	0.06344634399414062	2.4871826171875	-3.841400146484375	-0.972747802734375	9.787496386718749	0.4656722229003906	0.17238251953125	0.850677490234375	-4.810333251953125	-3.147125244140625	10.020931048583984	0.18555062866210936	-0.21487959899902342	3.7689208984375	-4.512786865234375	-2.040863037109375	
45	0.18	0.0	0.0	0.0	0.0	0.009000000000000001	0.003	0.003	0.003	9.873089096069336	0.105344873046875	0.04848258361816406	2.742767333984375	-3.60107421875	-0.87738037109375	9.782707983398437	0.47165772705078124	0.16519991455078123	1.01470947265625	-4.970550537109375	-3.170013427734375	10.016142645263672	0.19931728820800781	-0.22864625854492185	3.66973876953125	-4.60052490234375	-2.3651123046875	
46	0.184	0.0	0.0	0.0	0.0	0.006	0.006	0.003	0.006	9.866505041503906	0.11133037719726561	0.05327098693847656	2.704620361328125	-3.635406494140625	-0.98419189453125	9.788693487548828	0.479438882446289	0.16699556579589842	0.835418701171875	-5.054473876953125	-3.154754638671875	10.01015714111328	0.21428104858398436	-0.23882161560058593	3.83758544921875	-4.314422607421875	-2.002716064453125	
47	0.188	0.0	0.0	0.0	0.0	0.003	0.003	0.003	0.006	9.867103591918944	0.11432312927246092	0.06404489440917968	2.76947021484375	-3.84521484375	-1.09100341796875	9.788693487548828	0.47105917663574215	0.16340426330566404	0.873565673828125	-4.932403564453125	-2.918243408203125	10.013748443603514	0.20530279235839843	-0.2346317626953125	3.57818603515625	-4.680633544921875	-2.269744873046875	
48	0.192	0.0	0.0	0.0	0.0	0.003	0.003	0.006	0.006	9.874884747314452	0.11192892761230468	0.05626373901367187	2.666473388671875	-3.841400146484375	-1.056671142578125	9.789890588378906	0.469263525390625	0.14425065002441406	1.117706298828125	-5.382537841796875	-2.887725830078125	10.018536846923828	0.2088940948486328	-0.2424129180908203	3.459930419921875	-4.627227783203125	-2.033233642578125	
49	0.196	0.0	0.0	0.0	0.0	0.003	0.006	0.003	0.003	9.873687646484374	0.12689268798828124	0.04967968444824218	2.452850341796875	-3.44085693359375	-0.926971435546875	9.789890588378906	0.4836287353515625	0.14903905334472656	0.89263916015625	-4.8065185546875	-2.960205078125	10.028113653564452	0.2166752502441406	-0.25139117431640623	3.673553466796875	-4.489898681640625	-2.15911865234375	
50	0.2	0.0	0.0	0.0	0.0	0.003	0.003	0.006	0.003	9.874884747314452	0.11911153259277343	0.05805939025878906	2.605438232421875	-3.62396240234375	-0.84686279296875	9.777919580078125	0.47884033203125	0.15023615417480468	0.713348388671875	-4.924774169921875	-2.9754638671875	10.016142645263672	0.20709844360351562	-0.24779987182617186	3.62396240234375	-4.604339599609375	-2.269744873046875	
51	0.20400000000000001	0.0	0.0	0.0	0.0	0.003	0.006	0.006	0.006	9.87608184814453	0.1227028350830078	0.044891281127929686	2.61688232421875	-3.5552978515625	-0.9002685546875	9.78629928588867	0.49380409240722656	0.15562310791015624	0.8392333984375	-4.940032958984375	-3.078460693359375	10.013748443603514	0.2088940948486328	-0.24001871643066405	3.604888916015625	-4.53948974609375	-2.185821533203125	
52	0.20800000000000002	0.0	0.0	0.0	0.0	0.009000000000000001	0.006	0.003	0.009000000000000001	9.873089096069336	0.1292868896484375	0.05087678527832031	2.37274169921875	-3.4637451171875	-0.9613037109375	9.787496386718749	0.49859249572753905	0.17058686828613281	0.637054443359375	-4.8980712890625	-2.9144287109375	10.014945544433592	0.2214636535644531	-0.23882161560058593	3.41796875	-4.611968994140625	-2.338409423828125	
53	0.212	0.0	0.0	0.0	0.0	0.006	0.006	0.003	0.006	9.871891995239258	0.11372457885742186	0.047285482788085934	2.552032470703125	-3.875732421875	-1.056671142578125	9.777321029663085	0.4800374328613281	0.16998831787109375	0.926971435546875	-5.1116943359375	-3.01361083984375	10.001178884887695	0.20769699401855468	-0.23343466186523437	3.4332275390625	-4.58526611328125	-2.109527587890625	
54	0.216	0.0	0.0	0.0	0.0	0.006	0.003	0.006	0.006	9.871891995239258	0.11252747802734374	0.04129997863769531	2.76947021484375	-3.5552978515625	-1.110076904296875	9.777919580078125	0.48243163452148435	0.16220716247558592	0.8697509765625	-5.01251220703125	-3.19671630859375	10.01015714111328	0.20709844360351562	-0.22445640563964842	3.772735595703125	-4.70733642578125	-2.216339111328125	
55	0.22	0.0	0.0	0.0	0.0	0.003	0.006	0.003	0.003	9.879074600219726	0.12569558715820311	0.033518823242187495	2.841949462890625	-3.742218017578125	-0.67138671875	9.780912332153319	0.48183308410644526	0.16759411621093748	0.972747802734375	-4.913330078125	-2.895355224609375	10.005967288208007	0.21308394775390624	-0.23642741394042968	3.513336181640625	-4.45556640625	-2.1209716796875	
56	0.224	0.0	0.0	0.0	0.0	0.003	0.003	0.006	0.006	9.871293444824218	0.11911153259277343	0.04848258361816406	2.4871826171875	-3.665924072265625	-1.0833740234375	9.787496386718749	0.4746504791259765	0.15322890625	0.80108642578125	-4.810333251953125	-2.99835205078125	10.018536846923828	0.201112939453125	-0.22685060729980466	3.444671630859375	-4.35638427734375	-2.094268798828125	
57	0.228	0.0	0.0	0.0	0.0	0.006	0.003	0.003	0.006	9.86411083984375	0.11252747802734374	0.04189852905273437	2.628326416015625	-3.612518310546875	-0.751495361328125	9.778518130493163	0.4734533782958984	0.15502455749511718	1.079559326171875	-5.184173583984375	-3.063201904296875	10.028113653564452	0.20051438903808594	-0.22385785522460935	3.692626953125	-4.566192626953125	-2.239227294921875	
58	0.232	0.0	0.0	0.0	0.0	0.006	0.003	0.003	0.006	9.86411083984375	0.11671733093261719	0.04608838195800781	2.384185791015625	-3.6163330078125	-0.74005126953125	9.779116680908203	0.48183308410644526	0.16699556579589842	0.957489013671875	-5.0811767578125	-3.12042236328125	10.025719451904296	0.20649989318847656	-0.22744915771484372	3.62396240234375	-4.550933837890625	-1.80816650390625	
59	0.23600000000000002	0.0	0.0	0.0	0.0	0.0	0.003	0.003	0.006	9.862315188598632	0.1083376251220703	0.052073886108398436	2.552032470703125	-3.56292724609375	-0.9765625	9.784503634643555	0.47704468078613277	0.15741875915527342	1.049041748046875	-5.1422119140625	-3.11279296875	10.01733974609375	0.19692308654785154	-0.23403321228027343	3.72314453125	-4.520416259765625	-2.044677734375	
60	0.24	0.0	0.0	0.0	0.0	0.006	0.003	0.006	0.006	9.85752678527832	0.10953472595214843	0.04848258361816406	2.67791748046875	-3.84521484375	-0.957489013671875	9.773131176757811	0.47704468078613277	0.1592144104003906	0.89263916015625	-5.084991455078125	-2.994537353515625	10.020931048583984	0.20051438903808594	-0.24839842224121092	3.498077392578125	-4.67681884765625	-2.040863037109375	
61	0.244	0.0	0.0	0.0	0.0	0.006	0.003	0.006	0.006	9.866505041503906	0.11552023010253906	0.04189852905273437	2.40325927734375	-3.51715087890625	-0.86212158203125	9.771934075927733	0.4848258361816406	0.15322890625	0.90789794921875	-5.1727294921875	-3.0517578125	10.018536846923828	0.20949264526367187	-0.24779987182617186	3.60870361328125	-4.67681884765625	-2.1820068359375	
62	0.248	0.0	0.0	0.0	0.0	0.003	0.003	0.003	0.003	9.872490545654296	0.11013327636718749	0.04189852905273437	2.61688232421875	-3.448486328125	-0.949859619140625	9.779116680908203	0.4740519287109375	0.1592144104003906	1.12152099609375	-5.1422119140625	-3.204345703125	10.012551342773437	0.20231004028320312	-0.24779987182617186	3.65447998046875	-4.627227783203125	-2.132415771484375	
63	0.252	0.0	0.0	0.0	0.0	0.003	0.003	0.003	0.003	9.867702142333984	0.10953472595214843	0.0526724365234375	2.35748291015625	-3.665924072265625	-1.003265380859375	9.783905084228515	0.47584757995605464	0.15682020874023436	0.9765625	-5.084991455078125	-3.139495849609375	10.02332525024414	0.21248539733886718	-0.24361001892089842	3.77655029296875	-4.741668701171875	-2.2125244140625	
64	0.256	0.0	0.0	0.0	0.0	0.003	0.003	0.003	0.006	9.864709390258788	0.1149216796875	0.04548983154296875	2.5177001953125	-3.925323486328125	-0.8087158203125	9.773131176757811	0.4830301849365234	0.15442600708007811	0.896453857421875	-4.78363037109375	-3.231048583984375	10.011952792358398	0.21068974609375	-0.2454056701660156	3.53240966796875	-4.69207763671875	-1.834869384765625	
65	0.26	0.0	0.0	0.0	0.0	0.009000000000000001	0.003	0.003	0.006	9.861118087768554	0.1197100830078125	0.031124621582031248	2.655029296875	-3.99017333984375	-1.10626220703125	9.76116016845703	0.48243163452148435	0.12988544006347655	0.86212158203125	-4.7454833984375	-3.143310546875	10.004770187377929	0.2154781494140625	-0.2699462371826172	3.662109375	-4.638671875	-2.1209716796875	
66	0.264	0.0	0.0	0.0	0.0	0.006	0.006	0.006	0.006	9.883264453125	0.12389993591308593	0.06703764648437499	2.593994140625	-3.89862060546875	-0.9765625	9.788693487548828	0.48183308410644526	0.15322890625	0.759124755859375	-4.878997802734375	-3.08990478515625	10.005368737792969	0.21009119567871093	-0.2549824768066406	3.5247802734375	-4.550933837890625	-2.002716064453125	
67	0.268	0.0	0.0	0.0	0.0	0.006	0.003	0.003	0.003	9.909600671386718	0.08319850769042968	0.086191259765625	2.471923828125	-3.681182861328125	-1.10626220703125	9.80665	0.4584896179199218	0.16819266662597654	0.881195068359375	-5.008697509765625	-3.0059814453125	10.028712203979492	0.18255787658691405	-0.2346317626953125	3.604888916015625	-4.486083984375	-2.254486083984375	
68	0.272	0.0	0.0	0.0	0.0	0.006	0.006	0.003	0.0	9.909600671386718	0.040701428222656245	0.08259995727539061	2.5634765625	-3.79180908203125	-0.90789794921875	9.815029705810547	0.42377369384765623	0.18734627990722655	0.78582763671875	-5.14984130859375	-3.13568115234375	10.032303506469725	0.13108254089355467	-0.22206220397949217	3.57818603515625	-4.673004150390625	-2.0599365234375	
69	0.276	0.0	0.0	0.0	0.0	0.003	0.003	0.003	0.006	9.865307940673828	0.04369418029785156	0.05985504150390625	2.658843994140625	-3.589630126953125	-0.8087158203125	9.770736975097655	0.4147954376220703	0.17657237243652343	0.67138671875	-4.817962646484375	-2.99835205078125	10.01733974609375	0.1580173095703125	-0.2376245147705078	3.47900390625	-4.67681884765625	-2.033233642578125	
70	0.28	0.0	0.0	0.0	0.0	0.006	0.003	0.006	0.003	9.847949978637695	0.02633621826171875	0.06344634399414062	2.35748291015625	-3.41033935546875	-0.743865966796875	9.769539874267577	0.39803602600097654	0.18136077575683593	0.96893310546875	-5.0201416015625	-3.192901611328125	9.988010775756836	0.12868833923339842	-0.20470424194335937	3.73077392578125	-4.6539306640625	-2.08282470703125	
71	0.28400000000000003	0.0	0.0	0.0	0.0	0.006	0.003	0.003	0.003	9.83238766784668	0.008978256225585938	0.1083376251220703	2.471923828125	-3.7994384765625	-0.934600830078125	9.76235726928711	0.36212300109863277	0.21727380065917967	0.9307861328125	-5.18035888671875	-2.87628173828125	10.000580334472655	0.1005564697265625	-0.15382745666503905	3.490447998046875	-4.535675048828125	-2.197265625	
72	0.28800000000000003	0.0	0.0	0.0	0.0	0.006	0.003	0.003	0.003	9.854534033203125	0.0047884033203125	0.06284779357910156	2.38037109375	-3.72314453125	-0.926971435546875	9.776722479248047	0.37289690856933594	0.19871873779296872	1.239776611328125	-5.191802978515625	-3.04412841796875	10.014945544433592	0.12090718383789062	-0.17477672119140625	3.757476806640625	-4.550933837890625	-2.03704833984375	
73	0.292	0.0	0.0	0.0	0.0	0.006	0.003	0.006	0.003	9.871293444824218	0.04189852905273437	0.06703764648437499	2.384185791015625	-3.711700439453125	-0.8544921875	9.779715231323241	0.40581718139648437	0.18914193115234373	0.766754150390625	-4.978179931640625	-2.9754638671875	10.011952792358398	0.143652099609375	-0.18854338073730467	3.5247802734375	-4.505157470703125	-2.197265625	
74	0.296	0.0	0.0	0.0	0.0	0.003	0.006	0.003	0.003	9.867702142333984	0.03651157531738281	0.06883329772949218	2.651214599609375	-3.753662109375	-0.69427490234375	9.788094937133788	0.4177881896972656	0.1897404815673828	1.07574462890625	-5.07354736328125	-3.238677978515625	10.034697708129881	0.1610100616455078	-0.17178396911621094	3.662109375	-4.547119140625	-1.9378662109375	
75	0.3	0.0	0.0	0.0	0.0	0.003	0.003	0.006	0.003	9.864709390258788	0.032920272827148434	0.058657940673828124	2.5634765625	-3.92913818359375	-0.911712646484375	9.787496386718749	0.3950432739257812	0.17597382202148437	0.843048095703125	-4.947662353515625	-2.99835205078125	10.015544094848632	0.1149216796875	-0.19871873779296872	3.72314453125	-4.566192626953125	-2.13623046875	
76	0.304	0.0	0.0	0.0	0.0	0.003	0.006	0.006	0.003	9.891045608520507	0.0939724151611328	0.03890577697753906	2.685546875	-3.65447998046875	-0.843048095703125	9.794678991699218	0.4674678741455078	0.16759411621093748	1.186370849609375	-4.82177734375	-3.131866455078125	10.016142645263672	0.20350714111328125	-0.229843359375	3.452301025390625	-4.486083984375	-1.972198486328125	
77	0.308	0.0	0.0	0.0	0.0	0.006	0.003	0.003	0.006	9.880271701049804	0.09217676391601562	0.08080430603027343	2.7618408203125	-3.910064697265625	-0.926971435546875	9.794678991699218	0.46686932373046874	0.19213468322753904	0.949859619140625	-4.947662353515625	-2.86865234375	10.020332498168944	0.229843359375	-0.20051438903808594	3.4332275390625	-4.558563232421875	-2.033233642578125	
78	0.312	0.0	0.0	0.0	0.0	0.003	0.006	0.006	0.003	9.889249957275391	0.047884033203124995	0.061650692749023434	2.5634765625	-3.749847412109375	-0.774383544921875	9.792284790039062	0.4010287780761719	0.17357962036132812	1.041412353515625	-4.8065185546875	-3.11279296875	10.02990930480957	0.11073182678222655	-0.23702596435546874	3.63922119140625	-4.32586669921875	-2.00653076171875	
79	0.316	0.0	0.0	0.0	0.0	0.003	0.006	0.003	0.003	9.884461553955077	0.11133037719726561	0.03651157531738281	2.643585205078125	-3.566741943359375	-1.148223876953125	9.783905084228515	0.4656722229003906	0.13467384338378904	1.01470947265625	-4.901885986328125	-3.192901611328125	10.00955859069824	0.18614917907714842	-0.2723404388427734	3.536224365234375	-4.58526611328125	-2.13623046875	
80	0.32	0.0	0.0	0.0	0.0	0.003	0.003	0.003	0.003	9.841365924072266	0.12090718383789062	0.03890577697753906	2.582550048828125	-3.589630126953125	-0.858306884765625	9.74859060974121	0.4944026428222656	0.14245499877929688	1.224517822265625	-5.1116943359375	-2.986907958984375	9.981426721191406	0.2603694305419922	-0.25438392639160157	3.398895263671875	-4.57763671875	-2.0599365234375	
81	0.324	0.0	0.0	0.0	0.0	0.006	0.006	0.003	0.006	9.82580361328125	0.07781155395507812	0.032920272827148434	2.803802490234375	-3.80706787109375	-1.04522705078125	9.752181912231444	0.42497079467773435	0.14125789794921875	0.9307861328125	-4.8065185546875	-2.8839111328125	9.981426721191406	0.14724340209960937	-0.2609679809570312	3.8299560546875	-4.642486572265625	-2.0751953125	
82	0.328	0.0	0.0	0.0	0.0	0.006	0.003	0.003	0.006	9.88266590270996	0.1274912384033203	0.016759411621093748	2.689361572265625	-3.841400146484375	-1.0223388671875	9.788693487548828	0.4955997436523437	0.11791443176269531	0.965118408203125	-4.9896240234375	-2.941131591796875	10.02332525024414	0.20649989318847656	-0.2867056488037109	3.665924072265625	-4.512786865234375	-2.25830078125	
83	0.332	0.0	0.0	0.0	0.0	0.006	0.003	0.003	0.006	9.888052856445311	0.15382745666503905	0.018555062866210937	2.79998779296875	-3.6468505859375	-0.911712646484375	9.79946739501953	0.5446808776855468	0.1304839904785156	0.804901123046875	-5.001068115234375	-3.223419189453125	10.038887561035155	0.2825157958984375	-0.28311434631347654	3.56292724609375	-4.70733642578125	-2.201080322265625	
84	0.336	0.0	0.0	0.0	0.0	0.006	0.003	0.003	0.003	9.871891995239258	0.1370680450439453	0.030526071166992186	2.384185791015625	-3.5552978515625	-0.957489013671875	9.780912332153319	0.4782417816162109	0.13168109130859373	0.896453857421875	-5.0506591796875	-2.98309326171875	10.013149893188476	0.201112939453125	-0.277727392578125	3.650665283203125	-4.7454833984375	-2.079010009765625	
85	0.34	0.0	0.0	0.0	0.0	0.003	0.006	0.003	0.003	9.891045608520507	0.15981296081542967	0.011372457885742187	2.54058837890625	-3.810882568359375	-1.0223388671875	9.782707983398437	0.5285200164794922	0.11731588134765625	0.858306884765625	-5.14984130859375	-3.204345703125	10.019733947753906	0.23642741394042968	-0.2980781066894531	3.520965576171875	-4.520416259765625	-2.117156982421875	
86	0.34400000000000003	0.0	0.0	0.0	0.0	0.003	0.006	0.003	0.006	9.884461553955077	0.1771709228515625	0.017956512451171875	2.559661865234375	-3.787994384765625	-0.789642333984375	9.777321029663085	0.5536591339111328	0.12090718383789062	0.881195068359375	-5.06591796875	-2.9754638671875	10.00417163696289	0.28431144714355466	-0.2819172454833984	3.604888916015625	-4.657745361328125	-2.01416015625	
87	0.34800000000000003	0.0	0.0	0.0	0.0	0.003	0.003	0.006	0.006	9.87668039855957	0.16160861206054686	0.05805939025878906	2.346038818359375	-3.6773681640625	-0.911712646484375	9.772532626342773	0.49320554199218747	0.15741875915527342	0.83160400390625	-4.92095947265625	-3.143310546875	10.001777435302733	0.21128829650878905	-0.2424129180908203	3.543853759765625	-4.741668701171875	-2.11334228515625	
88	0.352	0.0	0.0	0.0	0.0	0.006	0.003	0.003	0.003	9.888052856445311	0.1592144104003906	0.03651157531738281	2.410888671875	-3.757476806640625	-0.888824462890625	9.792284790039062	0.5159504577636719	0.15981296081542967	0.5645751953125	-4.909515380859375	-2.87628173828125	10.024522351074218	0.2376245147705078	-0.24061726684570311	3.5552978515625	-4.6844482421875	-1.983642578125	
89	0.356	0.0	0.0	0.0	0.0	0.003	0.003	0.003	0.006	9.8694977935791	0.1466448516845703	0.020949264526367185	2.513885498046875	-3.482818603515625	-0.84686279296875	9.791087689208984	0.5243301635742187	0.14604630126953125	1.15966796875	-4.940032958984375	-2.918243408203125	10.018536846923828	0.2454056701660156	-0.2346317626953125	3.551483154296875	-4.718780517578125	-2.079010009765625	
90	0.36	0.0	0.0	0.0	0.0	0.006	0.003	0.003	0.006	9.848548529052733	0.12330138549804687	0.04908113403320312	2.52532958984375	-3.765106201171875	-0.820159912109375	9.764751470947266	0.469862075805664	0.17417817077636719	0.865936279296875	-4.89044189453125	-3.170013427734375	9.99220062866211	0.18854338073730467	-0.20949264526367187	3.627777099609375	-4.680633544921875	-2.239227294921875	
91	0.364	0.0	0.0	0.0	0.0	0.006	0.003	0.003	0.006	9.834183319091796	0.12808978881835936	0.06404489440917968	2.47955322265625	-3.574371337890625	-0.865936279296875	9.744400756835937	0.49799394531249996	0.17477672119140625	1.0528564453125	-5.107879638671875	-2.986907958984375	9.984419473266602	0.21248539733886718	-0.20231004028320312	3.620147705078125	-4.5166015625	-2.147674560546875	
92	0.368	0.0	0.0	0.0	0.0	0.003	0.006	0.006	0.003	9.861716638183593	0.1388636962890625	0.04249707946777344	2.79998779296875	-3.83758544921875	-0.843048095703125	9.785700735473633	0.49859249572753905	0.16879121704101563	0.64849853515625	-5.062103271484375	-3.021240234375	10.018536846923828	0.23044190979003906	-0.20949264526367187	3.536224365234375	-4.497528076171875	-2.178192138671875	
93	0.372	0.0	0.0	0.0	0.0	0.006	0.006	0.006	0.006	9.873089096069336	0.12629413757324218	0.05746083984375	2.55584716796875	-3.53240966796875	-0.95367431640625	9.785700735473633	0.4704606262207031	0.17417817077636719	0.919342041015625	-5.07354736328125	-2.99072265625	10.019135397338866	0.19333178405761717	-0.1945288848876953	3.8299560546875	-4.608154296875	-2.079010009765625	
94	0.376	0.0	0.0	0.0	0.0	0.003	0.006	0.003	0.003	9.880271701049804	0.14006079711914063	0.06344634399414062	2.658843994140625	-3.6163330078125	-0.881195068359375	9.788693487548828	0.5069722015380859	0.18255787658691405	1.0528564453125	-4.955291748046875	-3.253936767578125	10.006565838623047	0.2292448089599609	-0.20530279235839843	3.528594970703125	-4.55474853515625	-2.29644775390625	
95	0.38	0.0	0.0	0.0	0.0	0.003	0.006	0.003	0.003	9.880271701049804	0.13826514587402344	0.05985504150390625	2.719879150390625	-3.7384033203125	-1.003265380859375	9.788094937133788	0.5153519073486328	0.17118541870117188	1.02996826171875	-4.985809326171875	-3.021240234375	10.014945544433592	0.23582886352539062	-0.2214636535644531	3.482818603515625	-4.638671875	-2.086639404296875	
96	0.384	0.0	0.0	0.0	0.0	0.003	0.003	0.003	0.006	9.868899243164062	0.1227028350830078	0.06105214233398437	2.4871826171875	-3.88336181640625	-0.972747802734375	9.779116680908203	0.47764323120117186	0.17298106994628906	0.91552734375	-4.955291748046875	-3.047943115234375	10.016142645263672	0.19931728820800781	-0.22744915771484372	3.635406494140625	-4.638671875	-2.18963623046875	
97	0.388	0.0	0.0	0.0	0.0	0.003	0.003	0.006	0.003	9.868300692749022	0.1149216796875	0.09277531433105468	2.590179443359375	-3.7689208984375	-0.9613037109375	9.779116680908203	0.4878185882568359	0.20171148986816406	0.850677490234375	-5.1422119140625	-3.002166748046875	10.006565838623047	0.2088940948486328	-0.21487959899902342	3.795623779296875	-4.825592041015625	-2.147674560546875	
98	0.392	0.0	0.0	0.0	0.0	0.003	0.006	0.003	0.003	9.880870251464843	0.11013327636718749	0.07721300354003906	2.521514892578125	-3.574371337890625	-0.96893310546875	9.791686239624022	0.4860229370117187	0.18375497741699218	0.942230224609375	-4.924774169921875	-3.002166748046875	10.018536846923828	0.22206220397949217	-0.2328361114501953	3.429412841796875	-4.45556640625	-2.14385986328125	
99	0.396	0.0	0.0	0.0	0.0	0.0	0.006	0.003	0.003	9.87668039855957	0.09516951599121093	0.06404489440917968	2.460479736328125	-3.7841796875	-0.827789306640625	9.789890588378906	0.4531026641845703	0.1867477294921875	1.007080078125	-5.123138427734375	-2.95257568359375	10.02332525024414	0.17956512451171874	-0.22266075439453123	3.635406494140625	-4.467010498046875	-2.262115478515625	
100	0.4	0.0	0.0	0.0	0.0	0.003	0.003	0.006	0.006	9.85692823486328	0.07422025146484375	0.0939724151611328	2.3040771484375	-3.452301025390625	-0.904083251953125	9.775525378417969	0.44113165588378905	0.1927332336425781	0.89263916015625	-4.791259765625	-3.01361083984375	10.00417163696289	0.15741875915527342	-0.20051438903808594	3.582000732421875	-4.474639892578125	-2.147674560546875	
101	0.404	0.0	0.0	0.0	0.0	0.003	0.003	0.006	0.006	9.847351428222655	0.07601590270996093	0.08140285644531249	2.41851806640625	-3.814697265625	-0.865936279296875	9.767145672607422	0.44592005920410155	0.17956512451171874	0.946044921875	-5.01251220703125	-3.0517578125	10.00417163696289	0.15502455749511718	-0.20829554443359374	3.60107421875	-4.764556884765625	-2.407073974609375	
102	0.40800000000000003	0.0	0.0	0.0	0.0	0.009000000000000001	0.006	0.003	0.003	9.86411083984375	0.06464344482421874	0.08200140686035155	2.6397705078125	-3.658294677734375	-0.759124755859375	9.775525378417969	0.4225765930175781	0.19153613281249998	0.888824462890625	-4.92095947265625	-2.960205078125	10.006565838623047	0.15382745666503905	-0.20829554443359374	3.5247802734375	-4.5318603515625	-2.277374267578125	
103	0.41200000000000003	0.0	0.0	0.0	0.0	0.003	0.006	0.006	0.003	9.872490545654296	0.055066638183593745	0.08559270935058594	2.4871826171875	-3.643035888671875	-0.946044921875	9.794678991699218	0.4165910888671875	0.20290859069824219	0.881195068359375	-4.703521728515625	-3.143310546875	10.020931048583984	0.1466448516845703	-0.19572598571777342	3.60107421875	-4.547119140625	-1.903533935546875	
104	0.41600000000000004	0.0	0.0	0.0	0.0	0.006	0.003	0.006	0.003	9.880870251464843	0.05386953735351562	0.08918401184082031	2.471923828125	-3.76129150390625	-0.774383544921875	9.79348189086914	0.41419688720703124	0.20350714111328125	1.216888427734375	-5.096435546875	-2.941131591796875	10.026916552734374	0.14903905334472656	-0.18614917907714842	3.4942626953125	-4.3487548828125	-2.094268798828125	
105	0.42	0.0	0.0	0.0	0.0	0.003	0.003	0.003	0.003	9.882067352294921	0.05087678527832031	0.0652419952392578	2.532958984375	-3.749847412109375	-0.782012939453125	9.803058697509766	0.4165910888671875	0.18255787658691405	1.003265380859375	-4.8675537109375	-2.933502197265625	10.020931048583984	0.1466448516845703	-0.20051438903808594	3.631591796875	-4.680633544921875	-2.094268798828125	
106	0.424	0.0	0.0	0.0	0.0	0.006	0.003	0.003	0.003	9.872490545654296	0.03651157531738281	0.07422025146484375	2.685546875	-3.631591796875	-0.86212158203125	9.789890588378906	0.39145197143554683	0.19632453613281248	0.675201416015625	-4.871368408203125	-2.79998779296875	10.014945544433592	0.1274912384033203	-0.19153613281249998	3.604888916015625	-4.5166015625	-2.208709716796875	
107	0.428	0.0	0.0	0.0	0.0	0.003	0.003	0.003	0.006	9.866505041503906	0.011372457885742187	0.07302315063476562	2.788543701171875	-3.77655029296875	-1.02996826171875	9.779116680908203	0.3872621185302734	0.1927332336425781	0.934600830078125	-4.871368408203125	-3.116607666015625	10.011952792358398	0.11731588134765625	-0.17836802368164062	3.566741943359375	-4.5928955078125	-2.105712890625	
108	0.432	0.0	0.0	0.0	0.0	0.003	0.006	0.003	0.006	9.877877499389648	0.044891281127929686	0.062249243164062495	2.62451171875	-3.559112548828125	-0.7171630859375	9.78031378173828	0.41898529052734373	0.18136077575683593	0.843048095703125	-4.89044189453125	-2.96783447265625	10.008361489868163	0.13946224670410157	-0.1945288848876953	3.803253173828125	-4.638671875	-2.323150634765625	
109	0.436	0.0	0.0	0.0	0.0	0.003	0.003	0.003	0.003	9.871891995239258	0.04608838195800781	0.05626373901367187	2.735137939453125	-3.90625	-0.789642333984375	9.789890588378906	0.4082113830566406	0.17776947326660156	1.09100341796875	-4.764556884765625	-3.05938720703125	10.012551342773437	0.13108254089355467	-0.201112939453125	3.391265869140625	-4.52423095703125	-1.895904541015625	
110	0.44	0.0	0.0	0.0	0.0	0.003	0.006	0.003	0.006	9.867702142333984	0.04608838195800781	0.04189852905273437	2.620697021484375	-3.620147705078125	-0.8392333984375	9.789292037963866	0.39923312683105466	0.17417817077636719	1.25885009765625	-5.13458251953125	-3.12042236328125	10.01015714111328	0.12629413757324218	-0.21906945190429686	3.6163330078125	-4.604339599609375	-2.140045166015625	
111	0.444	0.0	0.0	0.0	0.0	0.006	0.003	0.006	0.003	9.86351228942871	0.062249243164062495	0.040102877807617184	2.788543701171875	-3.82232666015625	-0.919342041015625	9.789890588378906	0.42317514343261714	0.15263035583496093	0.934600830078125	-4.89044189453125	-2.99835205078125	10.011354241943359	0.15083470458984374	-0.2454056701660156	3.673553466796875	-4.6539306640625	-2.00653076171875	
112	0.448	0.0	0.0	0.0	0.0	0.003	0.003	0.003	0.003	9.868899243164062	0.07422025146484375	0.031124621582031248	2.475738525390625	-3.536224365234375	-0.820159912109375	9.780912332153319	0.43933600463867184	0.13946224670410157	0.797271728515625	-4.932403564453125	-2.93731689453125	10.02392380065918	0.1610100616455078	-0.2501940734863281	3.44085693359375	-4.543304443359375	-2.033233642578125	
113	0.452	0.0	0.0	0.0	0.0	0.003	0.003	0.003	0.003	9.883264453125	0.08858546142578125	0.033518823242187495	2.658843994140625	-3.856658935546875	-0.91552734375	9.79348189086914	0.44113165588378905	0.13108254089355467	0.9613037109375	-5.023956298828125	-3.131866455078125	10.014346994018554	0.16220716247558592	-0.25917232971191406	3.490447998046875	-4.474639892578125	-2.0294189453125	
114	0.456	0.0	0.0	0.0	0.0	0.006	0.003	0.003	0.006	9.879673150634765	0.09756371765136718	0.020350714111328123	2.49481201171875	-3.4942626953125	-0.995635986328125	9.79408044128418	0.46806642456054687	0.11252747802734374	1.0528564453125	-5.1727294921875	-3.032684326171875	10.025719451904296	0.1975216369628906	-0.2861070983886719	3.574371337890625	-4.75311279296875	-2.124786376953125	
115	0.46	0.0	0.0	0.0	0.0	0.003	0.003	0.006	0.003	9.879673150634765	0.10773907470703124	0.009576806640625	2.727508544921875	-3.6468505859375	-0.980377197265625	9.788693487548828	0.47884033203125	0.11073182678222655	0.98419189453125	-4.932403564453125	-3.0670166015625	10.01674119567871	0.20290859069824219	-0.30526071166992186	3.604888916015625	-4.60052490234375	-2.2125244140625	
116	0.464	0.0	0.0	0.0	0.0	0.003	0.003	0.006	0.006	9.874286196899414	0.10893617553710937	0.015562310791015624	2.620697021484375	-3.635406494140625	-0.858306884765625	9.78629928588867	0.47105917663574215	0.13168109130859373	0.98419189453125	-5.008697509765625	-3.15093994140625	10.013748443603514	0.18914193115234373	-0.29927520751953124	3.4027099609375	-4.512786865234375	-2.13623046875	
117	0.468	0.0	0.0	0.0	0.0	0.003	0.003	0.003	0.003	9.866505041503906	0.11192892761230468	0.012569558715820313	2.685546875	-3.66973876953125	-0.8392333984375	9.765948571777344	0.4746504791259765	0.11911153259277343	0.095367431640625	-5.02777099609375	-3.0670166015625	10.003573086547851	0.2059013427734375	-0.2920926025390625	3.66973876953125	-4.486083984375	-2.3040771484375	
118	0.47200000000000003	0.0	0.0	0.0	0.0	0.003	0.003	0.003	0.003	9.855731134033203	0.12629413757324218	0.00718260498046875	2.49481201171875	-3.4027099609375	-0.96893310546875	9.77492682800293	0.4836287353515625	0.09636661682128905	0.9765625	-4.8065185546875	-3.223419189453125	10.00417163696289	0.21607669982910155	-0.2920926025390625	3.635406494140625	-4.581451416015625	-2.1209716796875	
119	0.47600000000000003	0.0	0.0	0.0	0.0	0.003	0.006	0.003	0.003	9.86291373901367	0.12988544006347655	0.013766659545898436	2.54058837890625	-3.631591796875	-1.068115234375	9.77492682800293	0.4914098907470703	0.11372457885742186	0.865936279296875	-5.062103271484375	-3.093719482421875	10.011354241943359	0.229843359375	-0.2765302917480469	3.70025634765625	-4.47845458984375	-2.0751953125	
120	0.48	0.0	0.0	0.0	0.0	0.006	0.003	0.003	0.006	9.88266590270996	0.1322796417236328	0.015562310791015624	2.63214111328125	-3.589630126953125	-0.885009765625	9.777919580078125	0.49380409240722656	0.12569558715820311	0.888824462890625	-5.02777099609375	-3.093719482421875	10.011952792358398	0.22685060729980466	-0.2753331909179687	3.391265869140625	-4.47845458984375	-2.08282470703125	
121	0.484	0.0	0.0	0.0	0.0	0.006	0.006	0.003	0.003	9.874884747314452	0.14484920043945312	0.011971008300781249	2.69317626953125	-3.635406494140625	-0.90789794921875	9.788094937133788	0.5117606048583984	0.12150573425292968	0.713348388671875	-4.58526611328125	-3.0670166015625	10.01015714111328	0.229843359375	-0.2771288421630859	3.330230712890625	-4.486083984375	-2.223968505859375	
122	0.488	0.0	0.0	0.0	0.0	0.006	0.003	0.003	0.006	9.880870251464843	0.14425065002441406	0.025737667846679687	2.674102783203125	-3.59344482421875	-0.8697509765625	9.787496386718749	0.5093664031982421	0.1514332550048828	0.75531005859375	-5.02777099609375	-3.02886962890625	10.008960040283203	0.23403321228027343	-0.24480711975097655	3.47900390625	-4.4708251953125	-2.26593017578125	
123	0.492	0.0	0.0	0.0	0.0	0.006	0.003	0.006	0.006	9.862315188598632	0.13168109130859373	0.052073886108398436	2.628326416015625	-3.597259521484375	-0.843048095703125	9.777919580078125	0.5003881469726562	0.16041151123046873	0.8697509765625	-5.039215087890625	-3.11279296875	10.01015714111328	0.22206220397949217	-0.2214636535644531	3.54766845703125	-4.619598388671875	-2.246856689453125	
124	0.496	0.0	0.0	0.0	0.0	0.003	0.006	0.003	0.003	9.867702142333984	0.13347674255371092	0.058657940673828124	2.655029296875	-3.597259521484375	-0.93841552734375	9.782109432983399	0.5033808990478515	0.15861585998535155	1.132965087890625	-5.18035888671875	-3.025054931640625	10.011952792358398	0.22206220397949217	-0.2088940948486328	3.635406494140625	-4.680633544921875	-2.048492431640625	
125	0.5	0.0	0.0	0.0	0.0	0.006	0.006	0.003	0.006	9.874286196899414	0.12868833923339842	0.06643909606933593	2.643585205078125	-3.589630126953125	-0.80108642578125	9.784503634643555	0.49859249572753905	0.17178396911621094	0.690460205078125	-4.90570068359375	-3.025054931640625	10.008960040283203	0.22445640563964842	-0.21248539733886718	3.551483154296875	-4.467010498046875	-2.1514892578125	
126	0.504	0.0	0.0	0.0	0.0	0.003	0.006	0.006	0.003	9.86291373901367	0.1197100830078125	0.07122749938964844	2.574920654296875	-3.6773681640625	-0.93841552734375	9.78031378173828	0.488417138671875	0.1867477294921875	1.129150390625	-4.924774169921875	-2.941131591796875	10.013149893188476	0.21487959899902342	-0.19692308654785154	3.70025634765625	-4.58526611328125	-2.12860107421875	
127	0.508	0.0	0.0	0.0	0.0	0.006	0.003	0.003	0.003	9.868899243164062	0.1227028350830078	0.04908113403320312	2.460479736328125	-3.505706787109375	-1.018524169921875	9.77432827758789	0.4991910461425781	0.18375497741699218	1.117706298828125	-5.084991455078125	-2.99072265625	10.008361489868163	0.2136824981689453	-0.19213468322753904	3.452301025390625	-4.50897216796875	-2.071380615234375	
128	0.512	0.0	0.0	0.0	0.0	0.006	0.003	0.006	0.003	9.867103591918944	0.1274912384033203	0.07541735229492187	2.658843994140625	-3.662109375	-1.026153564453125	9.770736975097655	0.49739539489746093	0.18734627990722655	1.056671142578125	-5.069732666015625	-3.021240234375	10.01075569152832	0.2184709014892578	-0.19033903198242186	3.631591796875	-4.505157470703125	-1.89971923828125	
129	0.516	0.0	0.0	0.0	0.0	0.006	0.003	0.003	0.003	9.874286196899414	0.13287819213867186	0.09696516723632811	2.6397705078125	-3.8299560546875	-0.896453857421875	9.77492682800293	0.48063598327636714	0.201112939453125	0.91552734375	-4.947662353515625	-3.055572509765625	10.015544094848632	0.21009119567871093	-0.1867477294921875	3.6468505859375	-4.528045654296875	-2.162933349609375	
130	0.52	0.0	0.0	0.0	0.0	0.003	0.003	0.003	0.003	9.87009634399414	0.13168109130859373	0.10354922180175781	2.552032470703125	-3.574371337890625	-0.84686279296875	9.77492682800293	0.4782417816162109	0.20470424194335937	1.018524169921875	-5.138397216796875	-3.0670166015625	10.017938296508788	0.2232593048095703	-0.19812018737792966	3.6163330078125	-4.505157470703125	-1.99127197265625	
131	0.524	0.0	0.0	0.0	0.0	0.006	0.003	0.003	0.003	9.882067352294921	0.12509703674316405	0.09516951599121093	2.529144287109375	-3.71551513671875	-0.957489013671875	9.791087689208984	0.49021278991699213	0.19153613281249998	0.896453857421875	-4.909515380859375	-2.9144287109375	10.016142645263672	0.22026655273437498	-0.20649989318847656	3.658294677734375	-4.550933837890625	-2.361297607421875	
132	0.528	0.0	0.0	0.0	0.0	0.0	0.003	0.006	0.003	9.87069489440918	0.1083376251220703	0.09935936889648436	2.361297607421875	-3.4332275390625	-1.0223388671875	9.788693487548828	0.4878185882568359	0.19153613281249998	1.003265380859375	-4.974365234375	-3.204345703125	10.01733974609375	0.20051438903808594	-0.19692308654785154	3.681182861328125	-4.730224609375	-2.105712890625	
133	0.532	0.0	0.0	0.0	0.0	0.003	0.006	0.003	0.006	9.8694977935791	0.11731588134765625	0.10474632263183593	2.54058837890625	-3.73077392578125	-0.896453857421875	9.784503634643555	0.47884033203125	0.19333178405761717	0.81634521484375	-4.795074462890625	-3.002166748046875	10.011354241943359	0.19572598571777342	-0.19572598571777342	3.559112548828125	-4.535675048828125	-2.13623046875	
134	0.536	0.0	0.0	0.0	0.0	0.003	0.003	0.003	0.003	9.865307940673828	0.10893617553710937	0.0987608184814453	2.74658203125	-3.643035888671875	-0.873565673828125	9.78031378173828	0.4746504791259765	0.19333178405761717	0.896453857421875	-5.04302978515625	-2.9754638671875	10.013748443603514	0.1975216369628906	-0.18914193115234373	3.505706787109375	-4.428863525390625	-2.079010009765625	
135	0.54	0.0	0.0	0.0	0.0	0.0	0.003	0.003	0.003	9.868899243164062	0.09696516723632811	0.10235212097167969	2.613067626953125	-3.787994384765625	-1.06048583984375	9.779116680908203	0.45968671875	0.19632453613281248	0.888824462890625	-4.947662353515625	-2.8839111328125	10.019135397338866	0.18914193115234373	-0.18734627990722655	3.4332275390625	-4.673004150390625	-2.00653076171875	
136	0.544	0.0	0.0	0.0	0.0	0.003	0.003	0.003	0.006	9.86411083984375	0.086191259765625	0.10474632263183593	2.6702880859375	-3.742218017578125	-0.904083251953125	9.783905084228515	0.4656722229003906	0.19991583862304688	0.93841552734375	-5.3558349609375	-2.956390380859375	10.004770187377929	0.1867477294921875	-0.19572598571777342	3.421783447265625	-4.528045654296875	-2.109527587890625	
137	0.548	0.0	0.0	0.0	0.0	0.006	0.003	0.003	0.006	9.866505041503906	0.08439560852050781	0.0909796630859375	2.60162353515625	-3.925323486328125	-0.92315673828125	9.789890588378906	0.4477157104492187	0.1975216369628906	0.8544921875	-5.062103271484375	-3.05938720703125	10.013748443603514	0.1753752716064453	-0.1927332336425781	3.650665283203125	-4.70733642578125	-2.132415771484375	
138	0.552	0.0	0.0	0.0	0.0	0.006	0.003	0.006	0.0	9.865906491088866	0.076614453125	0.07900865478515624	2.4566650390625	-3.887176513671875	-1.155853271484375	9.78629928588867	0.44592005920410155	0.18734627990722655	1.094818115234375	-5.22613525390625	-3.02886962890625	10.005967288208007	0.16340426330566404	-0.1927332336425781	3.35693359375	-4.57000732421875	-2.08282470703125	
139	0.556	0.0	0.0	0.0	0.0	0.006	0.003	0.003	0.006	9.871891995239258	0.0652419952392578	0.08020575561523437	2.635955810546875	-3.692626953125	-0.72479248046875	9.782707983398437	0.4423287567138672	0.19153613281249998	0.789642333984375	-4.940032958984375	-2.89154052734375	10.005967288208007	0.15442600708007811	-0.19333178405761717	3.559112548828125	-4.566192626953125	-2.0904541015625	
140	0.56	0.0	0.0	0.0	0.0	0.0	0.003	0.003	0.009000000000000001	9.871293444824218	0.062249243164062495	0.08200140686035155	2.44140625	-3.894805908203125	-0.9918212890625	9.791087689208984	0.43155484924316406	0.18614917907714842	0.83160400390625	-4.848480224609375	-3.025054931640625	10.011952792358398	0.16160861206054686	-0.19931728820800781	3.582000732421875	-4.57000732421875	-2.17437744140625	
141	0.5640000000000001	0.0	0.0	0.0	0.0	0.006	0.003	0.003	0.003	9.87608184814453	0.058657940673828124	0.06703764648437499	2.422332763671875	-3.833770751953125	-0.919342041015625	9.787496386718749	0.42018239135742186	0.18555062866210936	1.0223388671875	-5.062103271484375	-2.98309326171875	10.014945544433592	0.1514332550048828	-0.1945288848876953	3.570556640625	-4.627227783203125	-2.101898193359375	
142	0.5680000000000001	0.0	0.0	0.0	0.0	0.006	0.003	0.003	0.0	9.86411083984375	0.061650692749023434	0.06703764648437499	2.429962158203125	-3.833770751953125	-0.77056884765625	9.783905084228515	0.4273649963378906	0.17178396911621094	1.155853271484375	-5.2337646484375	-2.99072265625	10.00955859069824	0.14963760375976562	-0.20530279235839843	3.383636474609375	-4.5318603515625	-1.861572265625	
143	0.5720000000000001	0.0	0.0	0.0	0.0	0.0	0.003	0.003	0.003	9.86411083984375	0.062249243164062495	0.04189852905273437	2.536773681640625	-3.448486328125	-0.83160400390625	9.783905084228515	0.42975919799804685	0.1610100616455078	0.9918212890625	-5.031585693359375	-3.231048583984375	10.021529598999022	0.15562310791015624	-0.22505495605468748	3.620147705078125	-4.58526611328125	-2.0599365234375	
144	0.5760000000000001	0.0	0.0	0.0	0.0	0.003	0.003	0.003	0.006	9.87009634399414	0.06464344482421874	0.03651157531738281	2.38800048828125	-3.47137451171875	-0.96893310546875	9.791087689208984	0.4339490509033203	0.1514332550048828	1.056671142578125	-5.04302978515625	-3.173828125	10.008361489868163	0.15741875915527342	-0.2292448089599609	3.72314453125	-4.6234130859375	-2.079010009765625	
145	0.58	0.0	0.0	0.0	0.0	0.003	0.003	0.003	0.003	9.86291373901367	0.06404489440917968	0.02693476867675781	2.437591552734375	-3.673553466796875	-0.957489013671875	9.791686239624022	0.43155484924316406	0.143652099609375	1.0986328125	-5.18035888671875	-2.933502197265625	10.008960040283203	0.15203180541992187	-0.24181436767578124	3.604888916015625	-4.207611083984375	-2.277374267578125	
146	0.584	0.0	0.0	0.0	0.0	0.003	0.006	0.006	0.006	9.86351228942871	0.08200140686035155	0.022744915771484374	2.6702880859375	-3.5552978515625	-1.026153564453125	9.776722479248047	0.43993455505371093	0.12689268798828124	1.1138916015625	-5.05828857421875	-2.98309326171875	10.005967288208007	0.16280571289062498	-0.26276363220214843	3.7078857421875	-4.5928955078125	-1.995086669921875	
147	0.588	0.0	0.0	0.0	0.0	0.006	0.003	0.003	0.003	9.87608184814453	0.09157821350097656	0.013766659545898436	2.597808837890625	-3.528594970703125	-0.91552734375	9.79348189086914	0.45070846252441404	0.12449848632812499	0.8697509765625	-4.802703857421875	-2.895355224609375	10.01733974609375	0.17657237243652343	-0.2645592834472656	3.60870361328125	-4.58526611328125	-2.216339111328125	
148	0.592	0.0	0.0	0.0	0.0	0.006	0.003	0.003	0.003	9.873687646484374	0.08319850769042968	-0.001197100830078125	2.681732177734375	-3.749847412109375	-1.071929931640625	9.789292037963866	0.46028526916503903	0.1131260284423828	1.0223388671875	-4.89044189453125	-3.13568115234375	10.025120901489258	0.17896657409667968	-0.2807201446533203	3.80706787109375	-4.680633544921875	-1.926422119140625	
149	0.596	0.0	0.0	0.0	0.0	0.006	0.006	0.003	0.003	9.872490545654296	0.08559270935058594	0.017357962036132813	2.76947021484375	-3.73077392578125	-0.926971435546875	9.791087689208984	0.4578910675048828	0.10474632263183593	0.9002685546875	-5.2642822265625	-2.9296875	10.018536846923828	0.1927332336425781	-0.29388825378417965	3.566741943359375	-4.535675048828125	-2.117156982421875	
150	0.6	0.0	0.0	0.0	0.0	0.003	0.006	0.006	0.006	9.877877499389648	0.11073182678222655	0.013766659545898436	2.44903564453125	-3.650665283203125	-0.919342041015625	9.78689783630371	0.4644751220703125	0.08918401184082031	1.026153564453125	-5.05828857421875	-3.12042236328125	10.019733947753906	0.19991583862304688	-0.296881005859375	3.528594970703125	-4.49371337890625	-2.08282470703125	
151	0.604	0.0	0.0	0.0	0.0	0.0	0.003	0.006	0.003	9.873687646484374	0.11073182678222655	0.012569558715820313	2.410888671875	-3.528594970703125	-0.934600830078125	9.788693487548828	0.4638765716552734	0.09995791931152344	0.762939453125	-4.8370361328125	-2.971649169921875	10.019733947753906	0.20649989318847656	-0.28730419921875	3.44085693359375	-4.38690185546875	-2.063751220703125	
152	0.608	0.0	0.0	0.0	0.0	0.003	0.003	0.003	0.003	9.8694977935791	0.1131260284423828	0.016160861206054686	2.4871826171875	-3.948211669921875	-0.8697509765625	9.78689783630371	0.4626794708251953	0.09516951599121093	0.732421875	-5.008697509765625	-3.143310546875	10.015544094848632	0.19572598571777342	-0.296881005859375	3.665924072265625	-4.64630126953125	-2.246856689453125	
153	0.612	0.0	0.0	0.0	0.0	0.003	0.003	0.006	0.003	9.87727894897461	0.11073182678222655	0.004189852905273437	2.6702880859375	-3.66973876953125	-0.934600830078125	9.785102185058593	0.469862075805664	0.12509703674316405	1.049041748046875	-5.123138427734375	-2.925872802734375	10.011952792358398	0.19812018737792966	-0.2771288421630859	3.589630126953125	-4.505157470703125	-1.99127197265625	
154	0.616	0.0	0.0	0.0	0.0	0.003	0.006	0.003	0.006	9.874884747314452	0.10175357055664062	0.0	2.681732177734375	-3.6163330078125	-0.8392333984375	9.775525378417969	0.4734533782958984	0.1292868896484375	1.190185546875	-4.947662353515625	-2.971649169921875	10.007762939453125	0.19512743530273435	-0.2657563842773437	3.719329833984375	-4.50897216796875	-2.216339111328125	
155	0.62	0.0	0.0	0.0	0.0	0.003	0.006	0.003	0.003	9.874884747314452	0.10414777221679687	0.013168109130859374	2.582550048828125	-3.45611572265625	-0.736236572265625	9.785700735473633	0.47165772705078124	0.14305354919433594	0.949859619140625	-4.9896240234375	-3.261566162109375	10.003573086547851	0.19333178405761717	-0.2537853759765625	3.482818603515625	-4.451751708984375	-2.1209716796875	
156	0.624	0.0	0.0	0.0	0.0	0.003	0.003	0.003	0.006	9.874884747314452	0.11731588134765625	0.016160861206054686	2.651214599609375	-3.70025634765625	-0.988006591796875	9.788094937133788	0.4746504791259765	0.15682020874023436	0.8697509765625	-5.039215087890625	-3.040313720703125	10.007762939453125	0.19572598571777342	-0.24839842224121092	3.665924072265625	-4.749298095703125	-2.0294189453125	
157	0.628	0.0	0.0	0.0	0.0	0.003	0.003	0.003	0.003	9.879074600219726	0.11192892761230468	0.02633621826171875	2.544403076171875	-3.780364990234375	-0.95367431640625	9.783306533813477	0.479438882446289	0.15502455749511718	0.835418701171875	-4.871368408203125	-3.021240234375	10.019135397338866	0.20051438903808594	-0.23882161560058593	3.631591796875	-4.596710205078125	-2.166748046875	
158	0.632	0.0	0.0	0.0	0.0	-0.006	0.003	0.003	0.006	9.87009634399414	0.10893617553710937	0.03651157531738281	2.460479736328125	-3.795623779296875	-0.797271728515625	9.789890588378906	0.4722562774658203	0.1562216583251953	0.66375732421875	-4.749298095703125	-2.9296875	10.022128149414062	0.1945288848876953	-0.23702596435546874	3.635406494140625	-4.6844482421875	-2.00653076171875	
159	0.636	0.0	0.0	0.0	0.0	0.003	0.003	0.003	0.006	9.872490545654296	0.11611878051757812	0.05686228942871093	2.605438232421875	-3.765106201171875	-1.033782958984375	9.787496386718749	0.47884033203125	0.16460136413574217	1.049041748046875	-4.90570068359375	-3.154754638671875	10.015544094848632	0.19991583862304688	-0.2088940948486328	3.5247802734375	-4.619598388671875	-2.178192138671875	
160	0.64	0.0	0.0	0.0	0.0	0.006	0.006	0.003	0.009000000000000001	9.873089096069336	0.11133037719726561	0.05985504150390625	2.63214111328125	-3.681182861328125	-0.8392333984375	9.76774422302246	0.4722562774658203	0.1771709228515625	1.09100341796875	-4.795074462890625	-3.055572509765625	10.007164389038085	0.19931728820800781	-0.19632453613281248	3.673553466796875	-4.558563232421875	-2.20489501953125	
161	0.644	0.0	0.0	0.0	0.0	0.006	0.006	0.003	0.003	9.860519537353515	0.11013327636718749	0.06703764648437499	2.498626708984375	-3.51715087890625	-0.9765625	9.767145672607422	0.4734533782958984	0.18914193115234373	1.03759765625	-5.01251220703125	-3.231048583984375	10.004770187377929	0.20290859069824219	-0.1945288848876953	3.711700439453125	-4.60052490234375	-2.0294189453125	
162	0.648	0.0	0.0	0.0	0.0	0.003	0.003	0.003	0.003	9.866505041503906	0.12090718383789062	0.062249243164062495	2.61688232421875	-3.948211669921875	-0.774383544921875	9.779715231323241	0.47884033203125	0.1897404815673828	1.155853271484375	-5.344390869140625	-3.173828125	10.00955859069824	0.2088940948486328	-0.2059013427734375	3.688812255859375	-4.84466552734375	-2.13623046875	
163	0.652	0.0	0.0	0.0	0.0	0.003	0.006	0.003	0.003	9.868899243164062	0.11073182678222655	0.0718260498046875	2.64739990234375	-3.742218017578125	-0.732421875	9.781510882568359	0.47764323120117186	0.19093758239746092	0.95367431640625	-5.25665283203125	-3.082275390625	10.01015714111328	0.20709844360351562	-0.20051438903808594	3.662109375	-4.52423095703125	-2.09808349609375	
164	0.656	0.0	0.0	0.0	0.0	0.006	0.006	0.006	0.006	9.873089096069336	0.10414777221679687	0.07900865478515624	2.582550048828125	-3.971099853515625	-1.010894775390625	9.781510882568359	0.488417138671875	0.19333178405761717	0.99945068359375	-4.802703857421875	-3.047943115234375	10.01733974609375	0.20171148986816406	-0.1975216369628906	3.56292724609375	-4.589080810546875	-1.956939697265625	
165	0.66	0.0	0.0	0.0	0.0	0.003	0.003	0.003	0.006	9.868300692749022	0.11013327636718749	0.10115502014160156	2.655029296875	-3.79180908203125	-0.812530517578125	9.783905084228515	0.4860229370117187	0.19512743530273435	1.068115234375	-4.7760009765625	-3.021240234375	10.008960040283203	0.20051438903808594	-0.2059013427734375	3.536224365234375	-4.4403076171875	-1.995086669921875	
166	0.664	0.0	0.0	0.0	0.0	0.006	0.006	0.003	0.003	9.868899243164062	0.11552023010253906	0.09157821350097656	2.70843505859375	-3.65447998046875	-0.926971435546875	9.775525378417969	0.479438882446289	0.20051438903808594	0.7171630859375	-5.08880615234375	-3.063201904296875	10.01015714111328	0.21068974609375	-0.20769699401855468	3.559112548828125	-4.535675048828125	-1.8310546875	
167	0.668	0.0	0.0	0.0	0.0	0.003	0.006	0.006	0.003	9.867103591918944	0.10953472595214843	0.10235212097167969	2.361297607421875	-3.620147705078125	-0.75531005859375	9.772532626342773	0.4722562774658203	0.19931728820800781	0.9765625	-5.0201416015625	-3.162384033203125	10.01015714111328	0.20769699401855468	-0.19991583862304688	3.57818603515625	-4.695892333984375	-1.922607421875	
168	0.672	0.0	0.0	0.0	0.0	0.006	0.003	0.003	0.003	9.873687646484374	0.11791443176269531	0.105344873046875	2.712249755859375	-3.589630126953125	-0.84686279296875	9.78689783630371	0.4704606262207031	0.21308394775390624	1.018524169921875	-4.73785400390625	-3.147125244140625	10.014945544433592	0.20231004028320312	-0.2041056915283203	3.48663330078125	-4.4403076171875	-2.056121826171875	
169	0.676	0.0	0.0	0.0	0.0	0.003	0.003	0.003	0.006	9.87727894897461	0.1149216796875	0.09337386474609374	2.674102783203125	-3.631591796875	-0.934600830078125	9.778518130493163	0.47105917663574215	0.2088940948486328	0.865936279296875	-4.795074462890625	-3.032684326171875	10.011952792358398	0.19393033447265623	-0.19333178405761717	3.688812255859375	-4.596710205078125	-2.06756591796875	
170	0.68	0.0	0.0	0.0	0.0	0.006	0.003	0.003	0.003	9.875483297729492	0.10474632263183593	0.08738836059570312	2.429962158203125	-3.772735595703125	-0.90789794921875	9.780912332153319	0.4656722229003906	0.2041056915283203	0.8544921875	-4.863739013671875	-2.918243408203125	10.011952792358398	0.19033903198242186	-0.19393033447265623	3.35693359375	-4.58526611328125	-2.216339111328125	
171	0.684	0.0	0.0	0.0	0.0	0.003	0.003	0.006	0.006	9.871293444824218	0.10115502014160156	0.09457096557617187	2.513885498046875	-3.47137451171875	-0.87738037109375	9.78629928588867	0.4626794708251953	0.2059013427734375	0.965118408203125	-5.046844482421875	-2.90679931640625	10.011354241943359	0.19333178405761717	-0.1879448303222656	3.68499755859375	-4.673004150390625	-1.873016357421875	
172	0.6880000000000001	0.0	0.0	0.0	0.0	-0.003	0.003	0.003	0.003	9.87668039855957	0.0939724151611328	0.07362170104980469	2.429962158203125	-3.650665283203125	-0.99945068359375	9.788094937133788	0.4608838195800781	0.201112939453125	0.698089599609375	-4.96673583984375	-3.154754638671875	10.008361489868163	0.181959326171875	-0.18255787658691405	3.387451171875	-4.57763671875	-2.13623046875	
173	0.6920000000000001	0.0	0.0	0.0	0.0	0.003	0.003	0.003	0.006	9.871293444824218	0.09816226806640624	0.07302315063476562	2.6702880859375	-3.84521484375	-0.850677490234375	9.789292037963866	0.4542997650146484	0.20051438903808594	0.843048095703125	-4.947662353515625	-2.99072265625	10.013748443603514	0.17896657409667968	-0.18854338073730467	3.42559814453125	-4.467010498046875	-1.9989013671875	
174	0.6960000000000001	0.0	0.0	0.0	0.0	0.0	0.003	0.003	0.006	9.8694977935791	0.09337386474609374	0.06823474731445311	2.49481201171875	-3.7841796875	-0.873565673828125	9.788693487548828	0.4513070129394531	0.19512743530273435	0.843048095703125	-5.138397216796875	-3.082275390625	10.013149893188476	0.1753752716064453	-0.18854338073730467	3.59344482421875	-4.688262939453125	-2.223968505859375	
175	0.7000000000000001	0.0	0.0	0.0	0.0	0.009000000000000001	0.006	0.003	0.006	9.874286196899414	0.0909796630859375	0.07721300354003906	2.44140625	-3.76129150390625	-0.98419189453125	9.788094937133788	0.4471171600341797	0.17896657409667968	0.751495361328125	-5.138397216796875	-3.04412841796875	10.020931048583984	0.17836802368164062	-0.19931728820800781	3.5552978515625	-4.63104248046875	-2.010345458984375	
176	0.704	0.0	0.0	0.0	0.0	0.006	0.003	0.006	0.003	9.879074600219726	0.08978256225585937	0.07062894897460938	2.735137939453125	-3.88336181640625	-0.858306884765625	9.777919580078125	0.4465186096191406	0.16819266662597654	1.117706298828125	-4.947662353515625	-3.307342529296875	10.01075569152832	0.17597382202148437	-0.19692308654785154	3.60870361328125	-4.528045654296875	-2.414703369140625	
177	0.708	0.0	0.0	0.0	0.0	0.006	0.006	0.003	0.006	9.872490545654296	0.09277531433105468	0.06883329772949218	2.529144287109375	-3.627777099609375	-0.957489013671875	9.787496386718749	0.4590881683349609	0.16759411621093748	0.9613037109375	-5.008697509765625	-3.021240234375	10.011354241943359	0.17298106994628906	-0.2166752502441406	3.60107421875	-4.6234130859375	-2.071380615234375	
178	0.712	0.0	0.0	0.0	0.0	0.003	0.006	0.003	0.003	9.87009634399414	0.09217676391601562	0.06284779357910156	2.60162353515625	-3.681182861328125	-0.911712646484375	9.782707983398437	0.4590881683349609	0.15981296081542967	0.957489013671875	-5.0048828125	-3.1280517578125	10.019733947753906	0.1801636749267578	-0.22685060729980466	3.635406494140625	-4.779815673828125	-2.1514892578125	
179	0.716	0.0	0.0	0.0	0.0	0.006	0.003	0.006	0.003	9.878476049804688	0.09157821350097656	0.04608838195800781	2.6092529296875	-3.74603271484375	-1.068115234375	9.787496386718749	0.4584896179199218	0.14245499877929688	0.865936279296875	-4.741668701171875	-3.002166748046875	10.017938296508788	0.18315642700195311	-0.2376245147705078	3.604888916015625	-4.703521728515625	-2.05230712890625	
180	0.72	0.0	0.0	0.0	0.0	0.0	0.006	0.003	0.003	9.87608184814453	0.09576806640624999	0.03651157531738281	2.67791748046875	-3.74603271484375	-1.04522705078125	9.785102185058593	0.47105917663574215	0.14544775085449219	0.774383544921875	-4.913330078125	-3.269195556640625	10.015544094848632	0.18136077575683593	-0.2549824768066406	3.635406494140625	-4.6844482421875	-2.185821533203125	
181	0.724	0.0	0.0	0.0	0.0	0.003	0.003	0.006	0.006	9.874884747314452	0.10175357055664062	0.022744915771484374	2.76947021484375	-3.753662109375	-0.850677490234375	9.77492682800293	0.4656722229003906	0.13347674255371092	0.873565673828125	-5.031585693359375	-3.147125244140625	10.016142645263672	0.18375497741699218	-0.26695348510742184	3.5552978515625	-4.49371337890625	-2.09808349609375	
182	0.728	0.0	0.0	0.0	0.0	0.003	0.006	0.006	0.003	9.873089096069336	0.11133037719726561	0.034715924072265626	2.597808837890625	-3.8909912109375	-0.99945068359375	9.785102185058593	0.46686932373046874	0.1322796417236328	1.041412353515625	-4.802703857421875	-3.082275390625	10.016142645263672	0.19213468322753904	-0.27353753967285155	3.63922119140625	-4.550933837890625	-2.147674560546875	
183	0.732	0.0	0.0	0.0	0.0	0.003	0.006	0.003	0.006	9.872490545654296	0.09995791931152344	0.017956512451171875	2.63214111328125	-3.574371337890625	-0.86212158203125	9.783905084228515	0.4746504791259765	0.11851298217773437	1.026153564453125	-4.791259765625	-3.200531005859375	10.013149893188476	0.19991583862304688	-0.26874913635253905	3.60107421875	-4.497528076171875	-1.9378662109375	
184	0.736	0.0	0.0	0.0	0.0	0.006	0.006	0.006	0.006	9.881468801879882	0.10594342346191406	0.022744915771484374	2.712249755859375	-3.849029541015625	-0.705718994140625	9.789292037963866	0.4752490295410156	0.12030863342285156	0.736236572265625	-5.126953125	-3.055572509765625	10.02392380065918	0.19692308654785154	-0.26815058593749996	3.6163330078125	-4.63104248046875	-2.231597900390625	
185	0.74	0.0	0.0	0.0	0.0	0.006	0.003	0.006	0.009000000000000001	9.880870251464843	0.1131260284423828	0.017357962036132813	2.277374267578125	-3.551483154296875	-1.018524169921875	9.792284790039062	0.4722562774658203	0.12808978881835936	0.80108642578125	-4.947662353515625	-3.017425537109375	10.014945544433592	0.19632453613281248	-0.2603694305419922	3.53240966796875	-4.57000732421875	-2.010345458984375	
186	0.744	0.0	0.0	0.0	0.0	0.003	0.006	0.006	0.006	9.879673150634765	0.11372457885742186	0.0143652099609375	2.658843994140625	-3.795623779296875	-0.8087158203125	9.789890588378906	0.4686649749755859	0.12509703674316405	0.988006591796875	-4.90570068359375	-3.032684326171875	10.01733974609375	0.19213468322753904	-0.26695348510742184	3.44085693359375	-4.53948974609375	-2.2430419921875	
187	0.748	0.0	0.0	0.0	0.0	0.003	0.003	0.006	0.006	9.878476049804688	0.105344873046875	0.028730419921875	2.574920654296875	-3.60107421875	-0.865936279296875	9.778518130493163	0.4704606262207031	0.12389993591308593	0.9613037109375	-5.04302978515625	-2.971649169921875	10.013748443603514	0.19991583862304688	-0.2603694305419922	3.437042236328125	-4.43267822265625	-1.9683837890625	
188	0.752	0.0	0.0	0.0	0.0	-0.003	0.006	0.003	0.003	9.874286196899414	0.10714052429199218	0.016759411621093748	2.552032470703125	-3.13568115234375	-1.117706298828125	9.788693487548828	0.46686932373046874	0.12449848632812499	0.90789794921875	-4.764556884765625	-2.933502197265625	10.006565838623047	0.18734627990722655	-0.27174188842773433	3.47137451171875	-4.67681884765625	-1.949310302734375	
189	0.756	0.0	0.0	0.0	0.0	0.003	0.003	0.006	0.006	9.8694977935791	0.09636661682128905	0.017956512451171875	2.521514892578125	-3.65447998046875	-0.942230224609375	9.789292037963866	0.46806642456054687	0.1370680450439453	0.675201416015625	-4.993438720703125	-3.13568115234375	10.01075569152832	0.1771709228515625	-0.25737667846679685	3.50189208984375	-4.665374755859375	-2.193450927734375	
190	0.76	0.0	0.0	0.0	0.0	0.006	0.003	0.003	0.006	9.874884747314452	0.10354922180175781	0.014963760375976562	2.368927001953125	-3.612518310546875	-0.95367431640625	9.785102185058593	0.47285482788085936	0.14185644836425781	0.77056884765625	-5.04302978515625	-3.025054931640625	10.007762939453125	0.18555062866210936	-0.2519897247314453	3.5400390625	-4.734039306640625	-2.12860107421875	
191	0.764	0.0	0.0	0.0	0.0	0.003	0.003	0.006	0.003	9.880870251464843	0.09636661682128905	0.028131869506835935	2.552032470703125	-3.787994384765625	-0.9307861328125	9.783306533813477	0.4656722229003906	0.14006079711914063	0.812530517578125	-4.878997802734375	-2.99072265625	10.01075569152832	0.1867477294921875	-0.23702596435546874	3.82232666015625	-4.53948974609375	-2.3040771484375	
192	0.768	0.0	0.0	0.0	0.0	0.006	0.003	0.006	0.006	9.878476049804688	0.0987608184814453	0.037708676147460936	2.681732177734375	-3.662109375	-0.78582763671875	9.783306533813477	0.4608838195800781	0.15442600708007811	1.056671142578125	-5.107879638671875	-3.2196044921875	10.01075569152832	0.18734627990722655	-0.23223756103515625	3.51715087890625	-4.73785400390625	-2.086639404296875	
193	0.772	0.0	0.0	0.0	0.0	0.003	0.003	0.006	0.003	9.873687646484374	0.10953472595214843	0.02154781494140625	2.838134765625	-3.841400146484375	-0.98419189453125	9.778518130493163	0.4477157104492187	0.14604630126953125	0.96893310546875	-5.2032470703125	-3.055572509765625	9.979631069946288	0.16759411621093748	-0.19333178405761717	3.50189208984375	-4.69207763671875	-2.185821533203125	
194	0.776	0.0	0.0	0.0	0.0	0.003	0.003	0.003	0.003	9.87009634399414	0.13826514587402344	0.05386953735351562	2.567291259765625	-3.5552978515625	-0.95367431640625	9.770736975097655	0.5129577056884765	0.16280571289062498	1.010894775390625	-4.85992431640625	-3.093719482421875	9.98501802368164	0.2567781280517578	-0.22086510314941404	3.53240966796875	-4.634857177734375	-2.193450927734375	
195	0.78	0.0	0.0	0.0	0.0	0.0	0.003	0.006	0.003	9.885658654785155	0.04129997863769531	0.02633621826171875	2.582550048828125	-3.77655029296875	-0.942230224609375	9.776722479248047	0.3950432739257812	0.14245499877929688	0.5950927734375	-4.79888916015625	-2.87628173828125	9.983222372436522	0.13347674255371092	-0.18136077575683593	3.448486328125	-4.55474853515625	-2.02178955078125	
196	0.784	0.0	0.0	0.0	0.0	0.003	0.006	0.006	0.009000000000000001	9.875483297729492	0.15322890625	0.07362170104980469	3.017425537109375	-3.80706787109375	-0.820159912109375	9.77492682800293	0.49021278991699213	0.17597382202148437	1.0986328125	-4.795074462890625	-3.1585693359375	10.029310754394531	0.16280571289062498	-0.22864625854492185	3.749847412109375	-4.608154296875	-2.216339111328125	
197	0.788	0.0	0.0	0.0	0.0	0.003	0.003	0.003	0.006	9.900023864746093	0.07781155395507812	0.02693476867675781	2.6397705078125	-3.841400146484375	-0.751495361328125	9.772532626342773	0.44053310546874996	0.15203180541992187	0.827789306640625	-5.06591796875	-2.819061279296875	9.967660061645507	0.2214636535644531	-0.1693897674560547	3.467559814453125	-4.64630126953125	-1.873016357421875	
198	0.792	0.0	0.0	0.0	0.0	0.003	0.003	0.003	0.006	9.871293444824218	0.14425065002441406	0.09337386474609374	2.536773681640625	-3.513336181640625	-0.957489013671875	9.776722479248047	0.41958384094238277	0.16759411621093748	1.0223388671875	-4.985809326171875	-3.200531005859375	10.016142645263672	0.12210428466796874	-0.2472013214111328	3.658294677734375	-4.61578369140625	-2.147674560546875	
199	0.796	0.0	0.0	0.0	0.0	0.003	0.003	0.003	0.003	9.886257205200195	0.054468087768554684	0.03950432739257812	2.452850341796875	-3.72314453125	-0.89263916015625	9.79348189086914	0.46627077331542965	0.18076222534179687	0.873565673828125	-5.199432373046875	-3.1890869140625	9.955090502929687	0.20231004028320312	-0.13467384338378904	3.5400390625	-4.3792724609375	-2.063751220703125	
200	0.8	0.0	0.0	0.0	0.0	0.009000000000000001	0.006	0.003	0.006	9.871891995239258	0.031124621582031248	0.012569558715820313	2.513885498046875	-3.864288330078125	-1.239776611328125	9.771934075927733	0.5039794494628906	0.16819266662597654	1.049041748046875	-4.791259765625	-3.093719482421875	10.036493359375	0.20709844360351562	-0.2472013214111328	3.627777099609375	-4.550933837890625	-2.216339111328125	
201	0.804	0.0	0.0	0.0	0.0	0.012	0.003	0.003	0.003	9.899425314331054	0.05985504150390625	0.029927520751953124	3.0059814453125	-4.11224365234375	-0.782012939453125	9.783905084228515	0.4495113616943359	0.17597382202148437	0.827789306640625	-4.78363037109375	-2.95257568359375	10.002974536132811	0.25258827514648435	-0.229843359375	3.6773681640625	-4.57000732421875	-2.017974853515625	
202	0.808	0.0	0.0	0.0	0.0	0.006	0.003	0.003	0.006	9.873687646484374	-0.022744915771484374	0.012569558715820313	2.384185791015625	-3.620147705078125	-1.148223876953125	9.82580361328125	0.35793314819335936	0.12509703674316405	1.316070556640625	-4.92095947265625	-2.979278564453125	10.056245523071288	0.12330138549804687	-0.24121581726074218	3.620147705078125	-4.680633544921875	-2.22015380859375	
203	0.812	0.0	0.0	0.0	0.0	0.006	0.003	0.003	0.003	9.785700735473633	0.10354922180175781	0.2166752502441406	2.346038818359375	-3.5400390625	-0.7781982421875	9.779715231323241	0.5267243652343749	0.1771709228515625	0.762939453125	-4.95147705078125	-2.880096435546875	10.034099157714843	0.32501287536621093	-0.2262520568847656	3.528594970703125	-4.47845458984375	-2.01416015625	
204	0.8160000000000001	0.0	0.0	0.0	0.0	0.006	0.006	0.006	0.003	9.87668039855957	-0.05626373901367187	0.00718260498046875	2.60162353515625	-3.780364990234375	-1.087188720703125	9.821015209960937	0.36391865234375	0.11911153259277343	0.80108642578125	-4.82177734375	-3.124237060546875	10.038887561035155	0.05626373901367187	-0.2376245147705078	3.448486328125	-4.497528076171875	-1.97601318359375	
205	0.8200000000000001	0.0	0.0	0.0	0.0	0.006	0.006	0.003	0.006	9.773131176757811	0.07721300354003906	0.23582886352539062	2.101898193359375	-3.467559814453125	-0.89263916015625	9.727641345214844	0.5734112976074218	0.2825157958984375	0.946044921875	-4.95147705078125	-3.025054931640625	10.026916552734374	0.2932897033691406	-0.2166752502441406	3.4637451171875	-4.764556884765625	-2.010345458984375	
206	0.8240000000000001	0.0	0.0	0.0	0.0	0.003	0.003	0.003	0.003	9.89583401184082	-0.10175357055664062	-0.013168109130859374	2.29644775390625	-3.566741943359375	-1.110076904296875	9.858125335693359	0.32920272827148434	0.10414777221679687	1.60980224609375	-4.917144775390625	-3.21197509765625	10.08078609008789	0.02693476867675781	-0.23642741394042968	3.780364990234375	-4.47845458984375	-2.09808349609375	
207	0.8280000000000001	0.0	0.0	0.0	0.0	0.006	0.003	0.003	0.006	9.764152920532226	0.08200140686035155	0.24779987182617186	1.972198486328125	-3.23486328125	-0.896453857421875	9.69771382446289	0.6194996795654296	0.29388825378417965	1.16729736328125	-5.039215087890625	-2.9449462890625	10.043675964355469	0.3333925811767578	-0.20051438903808594	3.971099853515625	-4.60052490234375	-1.995086669921875	
208	0.8320000000000001	0.0	0.0	0.0	0.0	0.006	0.003	0.006	0.006	9.85632968444824	-0.058657940673828124	0.1562216583251953	0.77056884765625	-2.620697021484375	-0.896453857421875	9.836577520751952	0.3178302703857422	0.15023615417480468	1.010894775390625	-5.218505859375	-3.0364990234375	10.06821653137207	0.01915361328125	-0.24121581726074218	3.528594970703125	-4.608154296875	-2.26593017578125	
209	0.836	0.0	0.0	0.0	0.0	0.006	0.003	0.003	0.003	9.756371765136718	0.054468087768554684	0.2501940734863281	2.094268798828125	-3.39508056640625	-0.926971435546875	9.70369932861328	0.6027402679443359	0.29269115295410153	0.93841552734375	-4.974365234375	-2.81524658203125	10.067019430541992	0.32441432495117184	-0.1945288848876953	3.704071044921875	-4.84466552734375	-2.2125244140625	
210	0.84	0.0	0.0	0.0	0.0	0.003	0.003	0.003	0.003	9.853336932373047	-0.05805939025878906	0.11611878051757812	0.67901611328125	-2.46429443359375	-0.78582763671875	9.840767373657226	0.2950853546142578	0.11851298217773437	0.9307861328125	-5.06591796875	-2.948760986328125	10.062829577636718	-0.009576806640625	-0.2567781280517578	3.437042236328125	-4.695892333984375	-2.132415771484375	
211	0.844	0.0	0.0	0.0	0.0	0.003	0.003	0.003	0.003	9.746196408081055	0.06464344482421874	0.25797522888183594	1.7852783203125	-3.35693359375	-1.033782958984375	9.773131176757811	0.6153098266601562	0.22086510314941404	1.178741455078125	-5.176544189453125	-3.1890869140625	10.034099157714843	0.36272155151367186	-0.1801636749267578	3.5247802734375	-4.638671875	-2.094268798828125	
212	0.848	0.0	0.0	0.0	0.0	0.003	0.003	0.003	0.003	9.837176071166992	-0.06284779357910156	0.12330138549804687	0.6103515625	-2.391815185546875	-0.820159912109375	9.855132583618163	0.2771288421630859	0.10594342346191406	1.087188720703125	-4.878997802734375	-3.162384033203125	10.06163247680664	0.061650692749023434	-0.34057518615722654	3.5400390625	-4.680633544921875	-1.743316650390625	
213	0.852	0.0	0.0	0.0	0.0	0.006	0.003	0.003	0.003	9.924564431762695	0.2280477081298828	-0.015562310791015624	2.048492431640625	-3.25775146484375	-1.15203857421875	9.783905084228515	0.6206967803955078	0.2328361114501953	1.110076904296875	-4.96673583984375	-3.1890869140625	10.053851321411132	0.354940396118164	-0.20769699401855468	3.681182861328125	-4.726409912109375	-2.132415771484375	
214	0.856	0.0	0.0	0.0	0.0	0.006	0.006	0.003	0.006	9.836577520751952	0.001197100830078125	0.1274912384033203	0.81634521484375	-2.338409423828125	-0.728607177734375	9.727641345214844	0.4417302062988281	0.21906945190429686	0.5645751953125	-5.0506591796875	-2.72369384765625	10.047865817260742	0.0652419952392578	-0.3597287994384765	3.662109375	-4.688262939453125	-2.056121826171875	
215	0.86	0.0	0.0	0.0	0.0	0.003	0.003	0.006	0.003	9.894038360595703	0.27952304382324217	-0.0017956512451171875	2.29644775390625	-3.1890869140625	-0.89263916015625	9.77492682800293	0.6476315490722656	0.2376245147705078	0.9613037109375	-4.92095947265625	-3.204345703125	9.884461553955077	0.29388825378417965	-0.12210428466796874	3.7384033203125	-4.314422607421875	-2.49481201171875	
216	0.864	0.0	0.0	0.0	0.0	0.003	0.003	0.003	0.006	9.928754284667969	0.4369418029785156	-0.08559270935058594	3.993988037109375	-4.6844482421875	-0.823974609375	9.744400756835937	0.42975919799804685	0.22505495605468748	0.431060791015625	-4.886627197265625	-2.864837646484375	10.053252770996092	0.07003039855957031	-0.37768531188964843	3.47900390625	-4.711151123046875	-1.96075439453125	
217	0.868	0.0	0.0	0.0	0.0	0.003	0.003	0.003	0.003	9.892841259765625	0.35673604736328124	-0.012569558715820313	2.513885498046875	-3.589630126953125	-1.190185546875	9.764152920532226	0.6440402465820312	0.1388636962890625	0.91552734375	-5.07354736328125	-3.5552978515625	9.891045608520507	0.29568390502929687	-0.13646949462890623	3.60870361328125	-4.444122314453125	-2.353668212890625	
218	0.872	0.0	0.0	0.0	0.0	0.003	0.003	0.006	0.006	9.924564431762695	0.4955997436523437	-0.07422025146484375	3.83758544921875	-4.589080810546875	-0.942230224609375	9.725845693969726	0.4159925384521484	0.22565350646972654	0.659942626953125	-4.98199462890625	-2.7008056640625	9.882067352294921	0.2867056488037109	-0.14604630126953125	3.505706787109375	-4.360198974609375	-1.82342529296875	
219	0.876	0.0	0.0	0.0	0.0	0.006	0.003	0.003	0.003	9.903615167236328	0.3429693878173828	-0.018555062866210937	2.735137939453125	-3.62396240234375	-0.9002685546875	9.770736975097655	0.46507367248535153	0.11013327636718749	1.07574462890625	-4.657745361328125	-3.47900390625	9.904812268066406	0.26815058593749996	-0.14963760375976562	3.810882568359375	-4.474639892578125	-2.4871826171875	
220	0.88	0.0	0.0	0.0	0.0	0.003	0.006	0.003	0.003	9.931747036743163	0.5129577056884765	-0.0987608184814453	4.161834716796875	-5.0048828125	-0.8544921875	9.74799205932617	0.41359833679199215	0.22026655273437498	0.942230224609375	-5.329132080078125	-2.63214111328125	9.898826763916015	0.2885013000488281	-0.1388636962890625	3.650665283203125	-4.5166015625	-1.880645751953125	
221	0.884	0.0	0.0	0.0	0.0	0.006	0.006	0.003	0.006	9.90840357055664	0.25737667846679685	-0.013168109130859374	4.7607421875	-5.4473876953125	-1.007080078125	9.745597857666015	0.4590881683349609	0.10235212097167969	1.041412353515625	-5.07354736328125	-3.589630126953125	9.891045608520507	0.2759317413330078	-0.13108254089355467	3.79180908203125	-4.53948974609375	-2.567291259765625	
222	0.888	0.0	0.0	0.0	0.0	0.003	0.003	0.006	0.003	9.945513696289062	0.5746083984375	-0.0987608184814453	4.84466552734375	-5.306243896484375	-0.804901123046875	9.702502227783203	0.594959112548828	0.09337386474609374	0.66375732421875	-5.0506591796875	-2.79998779296875	9.882067352294921	0.29867665710449215	-0.13168109130859373	3.631591796875	-4.779815673828125	-1.636505126953125	
223	0.892	0.0	0.0	0.0	0.0	0.003	0.006	0.003	0.003	9.928155734252929	0.2136824981689453	-0.00718260498046875	5.02777099609375	-5.100250244140625	-1.01470947265625	9.72943699645996	0.4704606262207031	0.14305354919433594	0.888824462890625	-5.0811767578125	-3.498077392578125	10.08737014465332	0.06584054565429687	-0.3806780639648437	3.749847412109375	-4.4708251953125	-2.483367919921875	
224	0.896	0.0	0.0	0.0	0.0	0.006	0.003	0.003	0.006	9.931148486328125	0.6667851623535156	-0.086191259765625	2.353668212890625	-3.627777099609375	-0.69427490234375	9.715670336914062	0.6183025787353515	0.12330138549804687	0.75531005859375	-5.2032470703125	-3.02886962890625	9.853336932373047	0.36930560607910157	-0.10893617553710937	3.692626953125	-4.64630126953125	-2.033233642578125	
225	0.9	0.0	0.0	0.0	0.0	0.003	0.003	0.003	0.006	9.925761532592773	0.11791443176269531	-0.010773907470703125	4.688262939453125	-5.237579345703125	-1.316070556640625	9.880870251464843	0.2998737579345703	0.013168109130859374	0.946044921875	-5.100250244140625	-3.2958984375	10.079588989257813	0.0909796630859375	-0.3507505432128906	3.719329833984375	-4.67681884765625	-2.407073974609375	
226	0.904	0.0	0.0	0.0	0.0	0.006	0.006	0.003	0.003	9.852738381958007	-0.30346506042480464	0.105344873046875	2.071380615234375	-3.742218017578125	-0.52642822265625	9.726444244384766	0.5231330627441406	0.09935936889648436	0.72479248046875	-5.031585693359375	-2.89154052734375	10.045471615600585	0.4447229583740234	-0.29568390502929687	3.673553466796875	-4.52423095703125	-2.117156982421875	
227	0.908	0.0	0.0	0.0	0.0	0.006	0.003	0.003	0.003	9.90900212097168	0.00239420166015625	-0.029927520751953124	4.31060791015625	-5.039215087890625	-1.056671142578125	9.874884747314452	0.21188684692382811	-0.006584054565429687	0.888824462890625	-4.85992431640625	-3.002166748046875	10.111910711669921	0.023343466186523436	-0.37768531188964843	3.612518310546875	-4.360198974609375	-2.658843994140625	
228	0.912	0.0	0.0	0.0	0.0	0.006	0.003	0.003	0.006	9.846154327392577	-0.34117373657226563	0.13407529296874998	1.93023681640625	-3.57818603515625	-0.72479248046875	9.725247143554688	0.642244595336914	0.2747346405029297	1.026153564453125	-5.05828857421875	-3.173828125	10.046070166015625	0.44891281127929683	-0.2825157958984375	3.467559814453125	-4.512786865234375	-1.979827880859375	
229	0.916	0.0	0.0	0.0	0.0	0.006	0.003	0.003	0.003	9.87668039855957	-0.5165490081787109	0.013168109130859374	-0.18310546875	-1.983642578125	-0.79345703125	9.865307940673828	0.2501940734863281	0.003591302490234375	0.93841552734375	-4.8370361328125	-3.131866455078125	10.127473022460936	-0.20171148986816406	-0.36691140441894526	3.574371337890625	-4.41741943359375	-2.056121826171875	
230	0.92	0.0	0.0	0.0	0.0	0.003	0.003	0.003	0.003	9.8449572265625	-0.3555389465332031	0.15083470458984374	1.750946044921875	-2.986907958984375	-0.850677490234375	9.750984811401366	0.6380547424316406	0.2663549346923828	1.125335693359375	-4.978179931640625	-3.223419189453125	10.058041174316406	0.4034229797363281	-0.26755203552246093	3.749847412109375	-4.749298095703125	-2.025604248046875	
231	0.924	0.0	0.0	0.0	0.0	0.003	0.003	0.003	0.003	9.874286196899414	-0.5363011718749999	0.03172317199707031	-0.164031982421875	-1.82342529296875	-0.701904296875	9.894038360595703	0.24660277099609373	0.04249707946777344	1.19781494140625	-5.054473876953125	-3.177642822265625	10.12507882080078	-0.258573779296875	-0.3842693664550781	3.74603271484375	-4.58526611328125	-2.048492431640625	
232	0.928	0.0	0.0	0.0	0.0	0.003	0.003	0.003	0.003	9.840767373657226	-0.4177881896972656	0.15023615417480468	1.434326171875	-2.960205078125	-0.701904296875	9.77492682800293	0.6446387969970703	0.2442085693359375	1.033782958984375	-5.168914794921875	-3.0975341796875	10.043675964355469	0.43933600463867184	-0.2561795776367187	3.41796875	-4.64630126953125	-2.05230712890625	
233	0.932	0.0	0.0	0.0	0.0	0.003	0.003	0.006	0.003	9.866505041503906	-0.5015852478027344	0.0526724365234375	-0.3509521484375	-1.880645751953125	-0.55694580078125	9.897629663085937	0.3124433166503906	0.04369418029785156	1.277923583984375	-5.199432373046875	-3.02886962890625	10.12507882080078	-0.23044190979003906	-0.38786066894531246	3.612518310546875	-4.53948974609375	-2.13623046875	
234	0.936	0.0	0.0	0.0	0.0	0.006	0.006	0.003	0.006	9.789890588378906	0.3537432952880859	0.27293898925781246	1.224517822265625	-2.544403076171875	-0.9613037109375	9.780912332153319	0.7128735443115234	0.20530279235839843	1.27410888671875	-5.153656005859375	-3.452301025390625	10.059238275146484	0.39863457641601563	-0.1693897674560547	3.42559814453125	-4.337310791015625	-1.926422119140625	
235	0.9400000000000001	0.0	0.0	0.0	0.0	0.003	0.003	0.003	0.003	9.865307940673828	-0.5153519073486328	0.076614453125	-0.507354736328125	-1.2969970703125	-0.70953369140625	9.898826763916015	0.31962592163085934	0.05746083984375	1.171112060546875	-5.10406494140625	-3.131866455078125	10.135852728271484	-0.28909985046386716	-0.39145197143554683	3.444671630859375	-4.436492919921875	-2.040863037109375	
236	0.9440000000000001	0.0	0.0	0.0	0.0	0.003	0.003	0.003	0.003	9.798270294189452	0.45549686584472654	0.23582886352539062	1.4190673828125	-2.712249755859375	-0.957489013671875	9.779116680908203	0.7960720520019531	0.19393033447265623	0.9307861328125	-4.856109619140625	-3.437042236328125	10.057442623901366	0.5051765502929687	-0.16699556579589842	3.421783447265625	-4.53948974609375	-1.6632080078125	
237	0.9480000000000001	0.0	0.0	0.0	0.0	0.003	0.006	0.003	0.006	9.849745629882811	-0.46627077331542965	0.0796072052001953	3.406524658203125	-4.15802001953125	-0.965118408203125	9.74200655517578	0.3938461730957031	0.31004911499023435	0.301361083984375	-4.978179931640625	-2.628326416015625	10.043675964355469	0.04908113403320312	-0.38786066894531246	3.513336181640625	-4.901885986328125	-1.796722412109375	
238	0.9520000000000001	0.0	0.0	0.0	0.0	0.006	0.006	0.003	0.006	9.82580361328125	0.48542438659667964	0.20171148986816406	1.422882080078125	-2.55584716796875	-0.93841552734375	9.789292037963866	0.7439981658935546	0.19572598571777342	0.888824462890625	-4.932403564453125	-3.345489501953125	10.078391888427733	0.4525041137695312	-0.14903905334472656	3.4942626953125	-4.634857177734375	-1.9378662109375	
239	0.9560000000000001	0.0	0.0	0.0	0.0	0.0	0.003	0.003	0.006	9.929951385498047	0.7188590484619141	-0.0053869537353515625	3.261566162109375	-4.29534912109375	-0.92315673828125	9.7545761138916	0.41958384094238277	0.316034619140625	0.423431396484375	-5.039215087890625	-2.712249755859375	10.046070166015625	0.08978256225585937	-0.3896563201904297	3.406524658203125	-4.7607421875	-1.911163330078125	
240	0.96	0.0	0.0	0.0	0.0	0.003	0.006	0.003	0.003	9.87009634399414	0.5135562561035156	0.13766659545898435	1.918792724609375	-3.154754638671875	-1.010894775390625	9.787496386718749	0.7445967163085937	0.16759411621093748	0.518798828125	-4.886627197265625	-3.032684326171875	9.803058697509766	0.4686649749755859	-0.05386953735351562	3.871917724609375	-4.611968994140625	-2.941131591796875	
241	0.964	0.0	0.0	0.0	0.0	0.0	0.003	0.003	0.009000000000000001	9.925761532592773	0.7547720733642578	-0.007781155395507812	3.971099853515625	-4.425048828125	-1.064300537109375	9.743203656005859	0.36571430358886714	0.3507505432128906	0.156402587890625	-5.016326904296875	-2.76947021484375	10.037091909790039	0.07601590270996093	-0.3752911102294922	3.73077392578125	-4.741668701171875	-1.903533935546875	
242	0.968	0.0	0.0	0.0	0.0	0.003	0.003	0.006	0.006	9.87009634399414	0.5201403106689453	0.06943184814453125	5.443572998046875	-5.47027587890625	-1.392364501953125	9.742605105590819	0.30705636291503907	0.24361001892089842	0.5645751953125	-4.932403564453125	-3.2806396484375	9.827000714111328	0.48662148742675776	-0.030526071166992186	3.795623779296875	-4.3182373046875	-3.047943115234375	
243	0.972	0.0	0.0	0.0	0.0	0.006	0.003	0.003	0.006	9.94072529296875	0.824802471923828	-0.04668693237304687	4.215240478515625	-4.726409912109375	-1.010894775390625	9.746794958496093	0.3962403747558593	0.3477577911376953	0.240325927734375	-5.008697509765625	-2.628326416015625	10.03050785522461	0.11911153259277343	-0.39444472351074217	3.631591796875	-4.46319580078125	-1.861572265625	
244	0.976	0.0	0.0	0.0	0.0	0.006	0.003	0.003	0.006	9.848548529052733	0.4950011932373047	0.11611878051757812	5.542755126953125	-5.68389892578125	-1.270294189453125	9.738415252685547	0.3537432952880859	0.2561795776367187	0.858306884765625	-4.665374755859375	-3.200531005859375	9.813234054565429	0.49859249572753905	-0.028730419921875	3.85284423828125	-4.512786865234375	-3.063201904296875	
245	0.98	0.0	0.0	0.0	0.0	0.003	0.003	0.006	0.003	9.932345587158203	0.805050308227539	-0.06703764648437499	4.34112548828125	-5.222320556640625	-0.99945068359375	9.702502227783203	0.3178302703857422	0.08259995727539061	0.86212158203125	-5.023956298828125	-2.44903564453125	9.890447058105469	0.2555810272216797	-0.08499415893554688	3.650665283203125	-4.894256591796875	-1.750946044921875	
246	0.984	0.0	0.0	0.0	0.0	0.003	0.006	0.006	0.006	9.851541281127929	0.4656722229003906	0.12150573425292968	5.37109375	-5.504608154296875	-1.21307373046875	9.752780462646484	0.3441664886474609	0.24061726684570311	0.80108642578125	-5.05828857421875	-3.353118896484375	9.812036953735351	0.4944026428222656	-0.05386953735351562	3.887176513671875	-4.38690185546875	-2.994537353515625	
247	0.988	0.0	0.0	0.0	0.0	0.003	0.003	0.003	0.006	9.925162982177733	-0.20231004028320312	-0.018555062866210937	2.620697021484375	-4.093170166015625	-0.766754150390625	9.690531219482422	0.3956418243408203	0.07242460021972656	1.010894775390625	-4.9591064453125	-2.50244140625	9.862315188598632	0.33698388366699217	-0.08439560852050781	3.79180908203125	-4.703521728515625	-1.74713134765625	
248	0.992	0.0	0.0	0.0	0.0	0.009000000000000001	0.003	0.003	0.003	9.849745629882811	0.39803602600097654	0.14724340209960937	5.527496337890625	-5.573272705078125	-1.132965087890625	9.840168823242188	0.29089550170898437	0.011372457885742187	0.919342041015625	-4.8980712890625	-3.18145751953125	10.150816488647461	-0.1867477294921875	-0.35673604736328124	3.62396240234375	-4.49371337890625	-2.346038818359375	
249	0.996	0.0	0.0	0.0	0.0	0.006	0.006	0.003	0.003	9.924564431762695	-0.3591302490234375	-0.020350714111328123	2.54058837890625	-3.993988037109375	-0.91552734375	9.70369932861328	0.2932897033691406	0.04967968444824218	0.843048095703125	-4.863739013671875	-2.544403076171875	9.891045608520507	0.20649989318847656	-0.09217676391601562	3.665924072265625	-4.756927490234375	-1.750946044921875	
250	1.0	0.0	0.0	0.0	0.0	0.003	0.003	0.006	0.003	9.849147079467773	0.3555389465332031	0.12569558715820311	1.056671142578125	-2.666473388671875	-0.881195068359375	9.83777462158203	0.2813186950683594	-0.010773907470703125	1.255035400390625	-4.749298095703125	-3.25775146484375	10.154407791137695	-0.15741875915527342	-0.3603273498535156	3.76129150390625	-4.261016845703125	-2.5787353515625	
251	1.004	0.0	0.0	0.0	0.0	0.003	0.006	0.003	0.006	9.923965881347655	-0.4159925384521484	0.0	2.3040771484375	-3.841400146484375	-0.61798095703125	9.797073193359374	0.7978677032470702	0.277727392578125	0.919342041015625	-5.1116943359375	-3.070831298828125	9.994594830322265	0.5877765075683593	-0.1657984649658203	3.871917724609375	-4.89044189453125	-1.91497802734375	
252	1.008	0.0	0.0	0.0	0.0	0.003	0.003	0.006	0.006	9.926958633422851	-0.8948328704833984	-0.14305354919433594	0.530242919921875	-2.513885498046875	-0.70953369140625	9.835380419921874	0.25258827514648435	-0.029927520751953124	1.308441162109375	-5.04302978515625	-3.2806396484375	10.129867224121092	-0.17657237243652343	-0.36391865234375	3.498077392578125	-4.49371337890625	-2.414703369140625	
253	1.012	0.0	0.0	0.0	0.0	0.006	0.003	0.006	0.003	9.925761532592773	-0.5488707305908203	-0.003591302490234375	1.70135498046875	-3.7841796875	-0.698089599609375	9.815029705810547	0.6931213806152343	0.2705447875976562	0.797271728515625	-5.0201416015625	-2.86865234375	10.034099157714843	0.49739539489746093	-0.17776947326660156	3.3111572265625	-4.55474853515625	-1.651763916015625	
254	1.016	0.0	0.0	0.0	0.0	0.003	0.003	0.006	0.003	9.911994873046874	-0.7553706237792969	-0.11013327636718749	0.431060791015625	-2.288818359375	-0.90789794921875	9.900023864746093	0.4471171600341797	0.025737667846679687	1.735687255859375	-5.283355712890625	-3.299713134765625	10.111910711669921	-0.16280571289062498	-0.34835634155273437	3.459930419921875	-4.558563232421875	-2.166748046875	
255	1.02	0.0	0.0	0.0	0.0	0.009000000000000001	0.006	0.006	0.006	9.674968908691406	0.3184288208007812	0.3968389251708984	1.220703125	-2.716064453125	-0.263214111328125	9.798868844604492	0.6165069274902344	0.29269115295410153	1.110076904296875	-5.023956298828125	-3.139495849609375	10.05564697265625	0.4955997436523437	-0.21487959899902342	3.780364990234375	-4.878997802734375	-1.842498779296875	
256	1.024	0.0	0.0	0.0	0.0	0.006	0.003	0.003	0.009000000000000001	9.896432562255859	-0.032920272827148434	-0.11013327636718749	2.498626708984375	-3.307342529296875	-0.90789794921875	9.874286196899414	0.5488707305908203	0.05985504150390625	1.667022705078125	-5.222320556640625	-3.22723388671875	10.192116467285155	-0.029927520751953124	-0.5219359619140624	3.31878662109375	-4.230499267578125	-2.124786376953125	
257	1.028	0.0	0.0	0.0	0.0	0.006	0.003	0.003	0.006	9.632471829223633	0.2154781494140625	0.4991910461425781	2.330780029296875	-3.11279296875	-1.155853271484375	9.713276135253906	0.9708487731933593	0.20769699401855468	1.087188720703125	-4.909515380859375	-3.177642822265625	10.052055670166014	0.5410895751953124	-0.19871873779296872	3.6163330078125	-4.550933837890625	-1.583099365234375	
258	1.032	0.0	0.0	0.0	0.0	0.006	0.003	0.006	0.003	9.827599264526366	-0.25917232971191406	-0.02154781494140625	1.621246337890625	-2.9144287109375	-1.129150390625	9.847949978637695	0.46686932373046874	0.07062894897460938	1.422882080078125	-5.218505859375	-3.208160400390625	10.220846887207031	-0.17417817077636719	-0.5542576843261718	3.5552978515625	-4.72259521484375	-1.918792724609375	
259	1.036	0.0	0.0	0.0	0.0	0.003	0.003	0.006	0.003	9.628880526733397	0.12330138549804687	0.49380409240722656	-0.29754638671875	-1.80816650390625	-0.782012939453125	9.689334118652344	0.9720458740234375	0.27892449340820313	1.07574462890625	-4.730224609375	-3.597259521484375	10.031704956054687	0.6015431671142578	-0.13467384338378904	3.505706787109375	-4.528045654296875	-2.349853515625	
260	1.04	0.0	0.0	0.0	0.0	0.006	0.003	0.003	0.003	9.872490545654296	0.45549686584472654	0.11133037719726561	0.392913818359375	-2.025604248046875	-0.90789794921875	9.873687646484374	0.3920505218505859	0.037708676147460936	0.1373291015625	-5.2642822265625	-2.79998779296875	10.245387454223632	-0.22445640563964842	-0.5859808563232421	3.498077392578125	-4.367828369140625	-1.888275146484375	
261	1.044	0.0	0.0	0.0	0.0	0.003	0.003	0.006	0.006	9.627084875488281	0.3028665100097656	0.4782417816162109	0.762939453125	-2.37274169921875	-1.049041748046875	9.672574707031249	0.9074024291992187	0.30406361083984373	1.33514404296875	-5.031585693359375	-3.299713134765625	9.982025271606444	0.6284779357910156	-0.11851298217773437	3.520965576171875	-4.650115966796875	-2.02178955078125	
262	1.048	0.0	0.0	0.0	0.0	0.009000000000000001	0.003	0.003	0.003	9.90840357055664	0.36272155151367186	0.0430956298828125	0.865936279296875	-2.384185791015625	-0.83160400390625	9.819219558715819	0.49859249572753905	0.2615665313720703	0.034332275390625	-4.856109619140625	-3.04412841796875	10.01015714111328	0.04369418029785156	-0.37828386230468747	3.70025634765625	-4.680633544921875	-2.170562744140625	
263	1.052	0.0	0.0	0.0	0.0	0.003	0.003	0.003	0.006	9.673771807861328	0.3507505432128906	0.40282442932128903	3.787994384765625	-4.50897216796875	-0.774383544921875	9.692925421142577	0.9738415252685546	0.2807201446533203	0.400543212890625	-4.89044189453125	-3.154754638671875	10.011354241943359	0.5734112976074218	-0.16519991455078123	3.337860107421875	-4.38690185546875	-2.292633056640625	
264	1.056	0.0	0.0	0.0	0.0	0.003	0.003	0.006	0.006	9.94012674255371	0.4267664459228515	-0.04189852905273437	1.552581787109375	-3.025054931640625	-0.766754150390625	9.792284790039062	0.594959112548828	0.23044190979003906	0.20599365234375	-4.73785400390625	-2.86102294921875	9.94730934753418	0.08200140686035155	-0.3699041564941406	3.383636474609375	-4.680633544921875	-1.705169677734375	
265	1.06	0.0	0.0	0.0	0.0	0.003	0.006	0.003	0.003	9.993397729492187	0.14125789794921875	-0.1867477294921875	4.322052001953125	-4.791259765625	-0.835418701171875	9.80724855041504	0.6362590911865234	0.09576806640624999	0.4425048828125	-4.69970703125	-3.131866455078125	10.06881508178711	0.33578678283691404	-0.17597382202148437	3.814697265625	-4.550933837890625	-2.40325927734375	
266	1.064	0.0	0.0	0.0	0.0	0.003	0.006	0.003	0.003	10.012551342773437	0.42377369384765623	-0.16340426330566404	2.361297607421875	-3.490447998046875	-0.90789794921875	9.832986218261718	0.3064578125	0.1753752716064453	0.049591064453125	-5.0201416015625	-2.777099609375	9.976039767456054	-0.029927520751953124	-0.35015199279785153	3.4027099609375	-4.638671875	-2.08282470703125	
267	1.068	0.0	0.0	0.0	0.0	0.006	0.003	0.006	0.003	9.974244116210937	0.21128829650878905	-0.19871873779296872	5.283355712890625	-5.5694580078125	-0.93841552734375	9.80066449584961	0.6063315704345703	0.0796072052001953	0.98419189453125	-4.87518310546875	-3.505706787109375	9.925162982177733	0.27293898925781246	-0.16460136413574217	3.711700439453125	-4.680633544921875	-2.99835205078125	
268	1.072	0.0	0.0	0.0	0.0	0.009000000000000001	0.003	0.003	0.006	9.847351428222655	0.01915361328125	-0.034715924072265626	5.42449951171875	-6.1492919921875	-0.919342041015625	9.690531219482422	0.6817489227294922	-0.011372457885742187	1.323699951171875	-5.2947998046875	-3.021240234375	9.952696301269532	0.1304839904785156	-0.3711012573242187	3.62396240234375	-4.734039306640625	-1.880645751953125	
269	1.076	0.0	0.0	0.0	0.0	0.006	0.003	0.003	0.003	9.913191973876952	0.025139117431640625	-0.08559270935058594	5.340576171875	-5.702972412109375	-1.010894775390625	9.747393508911133	0.729034405517578	0.08319850769042968	1.308441162109375	-4.89044189453125	-3.2958984375	9.92217023010254	0.3591302490234375	-0.12808978881835936	3.681182861328125	-4.459381103515625	-2.445220947265625	
270	1.08	0.0	0.0	0.0	0.0	0.003	0.006	0.003	0.003	9.840168823242188	-0.09995791931152344	0.037708676147460936	4.245758056640625	-4.940032958984375	-0.93841552734375	9.681552963256836	0.48123453369140623	0.017956512451171875	1.42669677734375	-5.191802978515625	-2.99072265625	9.859322436523437	0.12449848632812499	-0.09217676391601562	3.57818603515625	-4.66156005859375	-1.77001953125	
271	1.084	0.0	0.0	0.0	0.0	0.003	0.006	0.003	0.006	9.860519537353515	-0.023343466186523436	0.0005985504150390625	4.688262939453125	-5.1727294921875	-0.865936279296875	9.843760125732421	0.3848679168701172	0.16340426330566404	1.453399658203125	-5.14984130859375	-4.047393798828125	9.936535440063476	0.21428104858398436	-0.076614453125	3.749847412109375	-4.505157470703125	-2.95257568359375	
272	1.088	0.0	0.0	0.0	0.0	0.0	0.003	0.003	0.003	9.85752678527832	-0.08379705810546874	0.0652419952392578	3.5247802734375	-4.5166015625	-1.190185546875	9.589974749755859	1.102529864501953	0.07601590270996093	1.48773193359375	-5.096435546875	-1.918792724609375	9.827000714111328	0.4740519287109375	-0.02633621826171875	3.4637451171875	-4.581451416015625	-1.89971923828125	
273	1.092	0.0	0.0	0.0	0.0	0.0	0.003	0.003	0.003	9.888651406860351	-0.06284779357910156	0.051475335693359374	1.865386962890625	-3.1890869140625	-0.8087158203125	9.956287603759765	-0.40761283264160153	0.20769699401855468	1.064300537109375	-4.99725341796875	-4.657745361328125	10.06163247680664	-0.1753752716064453	-0.27353753967285155	3.41033935546875	-3.971099853515625	-2.410888671875	
274	1.096	0.0	0.0	0.0	0.0	0.003	0.003	0.003	0.003	9.855731134033203	-0.15682020874023436	0.1005564697265625	2.460479736328125	-3.86810302734375	-0.888824462890625	9.696516723632811	1.0079588989257813	0.40282442932128903	0.11444091796875	-4.9896240234375	-1.636505126953125	9.83178911743164	0.3854664672851562	0.04848258361816406	3.826141357421875	-4.505157470703125	-1.8310546875	
275	1.1	0.0	0.0	0.0	0.0	0.006	0.003	0.006	0.003	9.891045608520507	-0.002992752075195312	0.08140285644531249	2.38800048828125	-3.3721923828125	-0.9307861328125	9.751583361816406	1.0199299072265624	0.22445640563964842	1.62506103515625	-4.73785400390625	-4.505157470703125	10.065822329711914	-0.12210428466796874	-0.2549824768066406	3.490447998046875	-4.215240478515625	-2.346038818359375	
276	1.104	0.0	0.0	0.0	0.0	0.003	0.003	0.003	0.003	9.868899243164062	-0.16220716247558592	0.105344873046875	1.338958740234375	-2.75421142578125	-0.8544921875	9.837176071166992	-0.22206220397949217	0.31004911499023435	0.125885009765625	-4.93621826171875	-1.953125	10.077194787597655	0.46627077331542965	-0.2657563842773437	3.7078857421875	-4.833221435546875	-1.873016357421875	
277	1.108	0.0	0.0	0.0	0.0	0.003	0.003	0.003	0.006	9.903016616821288	0.03411737365722656	0.08379705810546874	2.140045166015625	-3.444671630859375	-0.659942626953125	9.880870251464843	1.064222637939453	0.047285482788085934	1.354217529296875	-4.93621826171875	-3.88336181640625	10.142436782836914	-0.14544775085449219	-0.28490999755859375	3.68499755859375	-4.314422607421875	-2.017974853515625	
278	1.112	0.0	0.0	0.0	0.0	0.006	0.003	0.003	0.003	9.792284790039062	0.13646949462890623	0.3286041778564453	2.777099609375	-3.387451171875	-0.873565673828125	9.900622415161132	-0.488417138671875	0.24480711975097655	0.835418701171875	-5.25665283203125	-3.3111572265625	10.101735354614258	0.3956418243408203	-0.3112462158203125	3.59344482421875	-4.6539306640625	-2.101898193359375	
279	1.116	0.0	0.0	0.0	0.0	0.003	0.006	0.003	0.003	9.890447058105469	0.09277531433105468	0.03411737365722656	2.78472900390625	-3.60870361328125	-0.80108642578125	9.813832604980469	1.3186065643310547	-0.047285482788085934	0.942230224609375	-4.852294921875	-2.3040771484375	10.1131078125	-0.03950432739257812	-0.4112041351318359	3.749847412109375	-4.550933837890625	-2.147674560546875	
280	1.12	0.0	0.0	0.0	0.0	0.003	0.006	0.006	0.006	9.783306533813477	0.16819266662597654	0.3321954803466797	3.326416015625	-3.856658935546875	-1.068115234375	9.853336932373047	0.18255787658691405	0.26815058593749996	0.54931640625	-4.932403564453125	-3.147125244140625	10.173561404418944	0.3848679168701172	-0.37888241271972656	3.665924072265625	-4.7149658203125	-2.06756591796875	
281	1.124	0.0	0.0	0.0	0.0	0.006	0.006	0.003	0.003	9.949104998779296	0.12629413757324218	-0.0987608184814453	1.5411376953125	-3.070831298828125	-0.858306884765625	9.888052856445311	0.6619967590332031	-0.059256491088867186	0.949859619140625	-5.04302978515625	-2.346038818359375	10.204087475585936	-0.025139117431640625	-0.6446387969970703	3.543853759765625	-4.70733642578125	-2.101898193359375	
282	1.1280000000000001	0.0	0.0	0.0	0.0	0.006	0.003	0.006	0.003	9.730035546875	0.28311434631347654	0.3842693664550781	4.11224365234375	-4.364013671875	-0.885009765625	9.636661682128906	0.46627077331542965	0.30346506042480464	1.033782958984375	-5.168914794921875	-3.681182861328125	10.087968695068358	0.4447229583740234	-0.38666356811523434	3.45611572265625	-4.69207763671875	-2.22015380859375	
283	1.1320000000000001	0.0	0.0	0.0	0.0	0.003	0.006	0.006	0.006	9.936535440063476	0.02454056701660156	-0.08080430603027343	0.949859619140625	-2.819061279296875	-0.988006591796875	9.962871658325195	0.15562310791015624	-0.0718260498046875	1.15203857421875	-5.306243896484375	-2.414703369140625	10.169371551513672	0.016160861206054686	-0.6051344696044921	3.6468505859375	-4.7760009765625	-2.147674560546875	
284	1.1360000000000001	0.0	0.0	0.0	0.0	0.0	0.003	0.006	0.003	9.719261639404296	0.32561142578124996	0.39863457641601563	3.719329833984375	-4.093170166015625	-0.896453857421875	9.624690673828125	0.9343371978759765	0.3321954803466797	0.79345703125	-5.16510009765625	-3.3416748046875	10.075997686767577	0.38307226562499996	-0.16041151123046873	3.31878662109375	-4.787445068359375	-2.178192138671875	
285	1.1400000000000001	0.0	0.0	0.0	0.0	0.003	0.003	0.006	0.006	9.936535440063476	-0.0005985504150390625	-0.08319850769042968	0.091552734375	-2.452850341796875	-1.1444091796875	9.925761532592773	0.14125789794921875	-0.06284779357910156	0.9918212890625	-4.901885986328125	-2.8839111328125	10.144232434082031	0.09217676391601562	-0.6171054779052734	3.711700439453125	-4.7607421875	-2.063751220703125	
286	1.1440000000000001	0.0	0.0	0.0	0.0	0.006	0.003	0.003	0.006	9.947907897949218	0.11372457885742186	-0.02633621826171875	2.025604248046875	-3.22723388671875	-1.251220703125	9.591171850585937	0.8403647827148437	0.3537432952880859	0.60272216796875	-5.023956298828125	-2.674102783203125	9.996989031982421	0.421978042602539	-0.13168109130859373	3.662109375	-4.94384765625	-1.8768310546875	
287	1.1480000000000001	0.0	0.0	0.0	0.0	0.003	0.006	0.006	0.003	9.95389340209961	0.013766659545898436	-0.05686228942871093	0.095367431640625	-2.227783203125	-1.079559326171875	9.983820922851562	0.3016694091796875	-0.1131260284423828	1.47247314453125	-5.11932373046875	-3.513336181640625	10.03050785522461	0.14724340209960937	-0.24839842224121092	3.265380859375	-4.72259521484375	-1.739501953125	
288	1.1520000000000001	0.0	0.0	0.0	0.0	0.003	0.003	0.003	0.003	9.97903251953125	0.08738836059570312	-0.07003039855957031	1.857757568359375	-2.98309326171875	-0.873565673828125	9.67856021118164	0.6739677673339843	0.30526071166992186	0.8392333984375	-4.7607421875	-2.96783447265625	10.079588989257813	0.3399766357421875	-0.19632453613281248	3.4942626953125	-4.87518310546875	-1.811981201171875	
289	1.156	0.0	0.0	0.0	0.0	0.006	0.003	0.003	0.0	9.897031112670899	0.15562310791015624	-0.017956512451171875	3.2501220703125	-4.4403076171875	-0.942230224609375	9.855731134033203	0.7248445526123046	-0.07362170104980469	1.5411376953125	-5.2032470703125	-3.27301025390625	9.976039767456054	0.19812018737792966	-0.2741360900878906	3.589630126953125	-4.993438720703125	-1.964569091796875	
290	1.16	0.0	0.0	0.0	0.0	0.0	0.006	0.003	0.003	9.98501802368164	-0.10654197387695312	-0.09816226806640624	1.171112060546875	-3.12042236328125	-0.9765625	9.713276135253906	0.3220201232910156	0.3429693878173828	0.682830810546875	-4.779815673828125	-2.979278564453125	10.060435375976562	0.3507505432128906	-0.19572598571777342	3.6163330078125	-4.062652587890625	-1.65557861328125	
291	1.164	0.0	0.0	0.0	0.0	0.003	0.006	0.003	0.003	9.853935482788085	0.43993455505371093	0.08678981018066406	3.7841796875	-4.364013671875	-0.873565673828125	9.743802206420899	0.6015431671142578	0.22505495605468748	1.125335693359375	-5.14984130859375	-3.631591796875	10.102932455444336	0.1610100616455078	-0.31184476623535157	3.71551513671875	-4.87518310546875	-1.644134521484375	
292	1.168	0.0	0.0	0.0	0.0	0.006	0.006	0.006	0.006	9.961674557495117	-0.0430956298828125	-0.12090718383789062	1.2054443359375	-2.87628173828125	-1.50299072265625	9.71028338317871	0.24361001892089842	0.24001871643066405	1.087188720703125	-4.840850830078125	-3.41033935546875	9.810839852905273	0.1370680450439453	0.0383072265625	3.932952880859375	-4.4708251953125	-2.460479736328125	
293	1.172	0.0	0.0	0.0	0.0	0.006	0.003	0.006	0.003	9.85692823486328	0.26755203552246093	0.01915361328125	2.25830078125	-3.60107421875	-0.675201416015625	9.68454571533203	0.7050923889160156	0.13108254089355467	0.90789794921875	-5.0506591796875	-2.933502197265625	9.996390481567381	0.22206220397949217	-0.3633201019287109	3.448486328125	-5.04302978515625	-1.941680908203125	
294	1.176	0.0	0.0	0.0	0.0	0.003	0.003	0.003	0.003	9.89523546142578	0.2136824981689453	0.15382745666503905	4.306793212890625	-4.528045654296875	-0.881195068359375	9.746794958496093	0.2645592834472656	0.2693476867675781	0.934600830078125	-4.390716552734375	-3.444671630859375	9.820416659545899	0.13168109130859373	0.1304839904785156	3.948211669921875	-4.38690185546875	-2.590179443359375	
295	1.18	0.0	0.0	0.0	0.0	0.003	0.003	0.003	0.003	9.888052856445311	0.1640028137207031	-0.040102877807617184	3.2196044921875	-3.97491455078125	-0.942230224609375	9.769539874267577	0.34536358947753903	0.12808978881835936	0.9765625	-5.0811767578125	-2.887725830078125	9.919177478027343	0.25917232971191406	0.02454056701660156	3.47137451171875	-4.4708251953125	-2.071380615234375	
296	1.184	0.0	0.0	0.0	0.0	0.003	0.003	0.006	0.003	9.861716638183593	0.38786066894531246	0.12030863342285156	4.9896240234375	-4.779815673828125	-0.728607177734375	9.619303720092773	0.6194996795654296	0.24839842224121092	1.04522705078125	-4.913330078125	-3.41796875	9.706093530273437	0.2232593048095703	0.08140285644531249	3.971099853515625	-4.2572021484375	-2.758026123046875	
297	1.188	0.0	0.0	0.0	0.0	0.003	0.003	0.003	0.003	9.894038360595703	0.5009866973876953	-0.10414777221679687	3.986358642578125	-4.638671875	-1.0223388671875	9.777919580078125	0.3238157745361328	0.21308394775390624	0.637054443359375	-5.11932373046875	-2.5177001953125	9.80605144958496	0.3447650390625	0.11192892761230468	3.551483154296875	-4.581451416015625	-1.918792724609375	
298	1.192	0.0	0.0	0.0	0.0	0.003	0.003	0.003	0.006	9.931148486328125	-0.09516951599121093	0.12090718383789062	5.191802978515625	-5.2032470703125	-1.010894775390625	9.686939916992188	0.5500678314208984	0.27293898925781246	1.010894775390625	-4.547119140625	-3.253936767578125	10.313023651123046	-0.040701428222656245	-0.4626794708251953	3.353118896484375	-4.421234130859375	-2.231597900390625	
299	1.196	0.0	0.0	0.0	0.0	0.006	0.006	0.006	0.006	9.89523546142578	0.15741875915527342	0.12449848632812499	3.82232666015625	-4.573822021484375	-0.705718994140625	9.727641345214844	0.37708676147460934	0.09576806640624999	1.01470947265625	-5.05828857421875	-3.139495849609375	9.739612353515625	0.41958384094238277	0.034715924072265626	3.551483154296875	-4.425048828125	-2.22015380859375	
300	1.2	0.0	0.0	0.0	0.0	0.006	0.003	0.003	0.003	9.9078050201416	0.4950011932373047	0.11133037719726561	5.603790283203125	-5.39398193359375	-0.759124755859375	9.810839852905273	0.6679822631835937	0.022744915771484374	1.42669677734375	-4.96673583984375	-2.7923583984375	10.104728106689452	0.13407529296874998	-0.4291606475830078	3.77655029296875	-4.58526611328125	-1.903533935546875	
301	1.204	0.0	0.0	0.0	0.0	0.003	0.003	0.006	0.006	9.944915145874022	-0.3633201019287109	0.20530279235839843	4.192352294921875	-4.66156005859375	-0.995635986328125	9.888651406860351	0.33578678283691404	0.10295067138671875	0.81634521484375	-5.53131103515625	-3.131866455078125	10.007164389038085	0.2088940948486328	0.005985504150390624	3.83758544921875	-4.5166015625	-2.38800048828125	
302	1.208	0.0	0.0	0.0	0.0	0.009000000000000001	0.006	0.003	0.006	9.944316595458984	-0.012569558715820313	0.010773907470703125	0.701904296875	-2.46429443359375	-0.827789306640625	9.909600671386718	0.4950011932373047	-0.055066638183593745	1.529693603515625	-4.993438720703125	-3.01361083984375	10.16338604736328	0.07900865478515624	-0.44053310546874996	3.66973876953125	-4.482269287109375	-1.995086669921875	
303	1.212	0.0	0.0	0.0	0.0	0.006	0.003	0.006	0.003	9.82520506286621	0.3597287994384765	0.26874913635253905	4.60052490234375	-5.0048828125	-0.77056884765625	9.679757312011718	0.517746109008789	0.19632453613281248	0.507354736328125	-4.932403564453125	-2.948760986328125	9.938331091308592	0.4578910675048828	-0.33399113159179683	3.570556640625	-4.390716552734375	-2.140045166015625	
304	1.216	0.0	0.0	0.0	0.0	0.003	0.003	0.003	0.003	9.886855755615233	-0.40880993347167965	-0.052073886108398436	1.1444091796875	-2.99072265625	-1.239776611328125	10.011354241943359	0.34656069030761716	-0.02454056701660156	1.312255859375	-4.75311279296875	-2.674102783203125	10.274716424560546	-0.02154781494140625	-0.39264907226562495	3.62396240234375	-4.367828369140625	-2.071380615234375	
305	1.22	0.0	0.0	0.0	0.0	0.006	0.006	0.003	0.003	9.891644158935547	-0.32022447204589843	0.2507926239013672	4.3487548828125	-4.734039306640625	-0.698089599609375	9.714473236083984	0.5147533569335937	0.4542997650146484	0.331878662109375	-5.07354736328125	-3.139495849609375	10.158597644042969	0.26874913635253905	-0.3555389465332031	3.79180908203125	-4.467010498046875	-2.193450927734375	
306	1.224	0.0	0.0	0.0	0.0	0.0	0.006	0.003	0.003	9.818022457885741	0.06763619689941405	-0.09217676391601562	0.61798095703125	-2.651214599609375	-0.804901123046875	9.798868844604492	0.4656722229003906	0.05087678527832031	1.506805419921875	-4.57763671875	-2.994537353515625	10.087968695068358	0.1753752716064453	-0.5925649108886718	3.42559814453125	-4.306793212890625	-1.922607421875	
307	1.228	0.0	0.0	0.0	0.0	0.009000000000000001	0.003	0.003	0.006	9.664793551635741	0.12449848632812499	0.20530279235839843	1.918792724609375	-3.429412841796875	-1.2969970703125	9.680355862426758	0.5153519073486328	0.5021837982177734	0.61798095703125	-5.3863525390625	-2.819061279296875	10.085574493408203	0.33518823242187495	-0.2711433380126953	3.650665283203125	-4.61578369140625	-1.83868408203125	
308	1.232	0.0	0.0	0.0	0.0	0.003	0.003	0.006	0.006	9.872490545654296	-0.4537012145996093	0.01915361328125	1.4495849609375	-2.99072265625	-1.46484375	10.079588989257813	0.31543606872558594	-0.1484405029296875	1.16729736328125	-4.96673583984375	-3.429412841796875	10.352527978515624	-0.01975216369628906	-0.5686228942871093	3.650665283203125	-4.81414794921875	-2.101898193359375	
