	time	dac1	dac2	dac3	dac4	adc1.3	adc2.3	adc3.3	adc4.3	imu1accx	imu1accy	imu1accz	imu1gyrox	imu1gyroy	imu1gyroz	imu2accx	imu2accy	imu2accz	imu2gyrox	imu2gyroy	imu2gyroz	imu3accx	imu3accy	imu3accz	imu3gyrox	imu3gyroy	imu3gyroz	log
0	0.0	0.0	0.0	0.0	0.0	0.006	0.003	0.006	0.003	9.868899243164062	0.11432312927246092	0.05027823486328125	2.40325927734375	-3.6163330078125	-0.7476806640625	9.785102185058593	0.4722562774658203	0.16998831787109375	0.522613525390625	-4.871368408203125	-3.15093994140625	10.012551342773437	0.20231004028320312	-0.2507926239013672	3.5400390625	-4.673004150390625	-2.330780029296875	Estabilizou em 10s, 2215  rpm
1	0.004	0.0	0.0	0.0	0.0	0.003	0.003	0.003	0.006	9.868300692749022	0.10295067138671875	0.05805939025878906	2.532958984375	-3.62396240234375	-0.81634521484375	9.789890588378906	0.4584896179199218	0.17896657409667968	0.762939453125	-4.703521728515625	-2.98309326171875	10.024522351074218	0.1879448303222656	-0.2442085693359375	3.65447998046875	-4.604339599609375	-2.0904541015625	Started
2	0.008	0.0	0.0	0.0	0.0	0.006	0.003	0.006	0.006	9.873687646484374	0.10235212097167969	0.054468087768554684	2.582550048828125	-3.749847412109375	-0.99945068359375	9.777919580078125	0.4584896179199218	0.17597382202148437	0.743865966796875	-4.99725341796875	-2.933502197265625	10.018536846923828	0.1849520782470703	-0.22445640563964842	3.711700439453125	-4.596710205078125	-2.0751953125	IMU1|LSM6DS3|0x6A|I2C-1|±2g (±19,6m/s²)|±125º/s|400Hz
3	0.012	0.0	0.0	0.0	0.0	0.006	0.003	0.003	0.009000000000000001	9.874884747314452	0.09516951599121093	0.06584054565429687	2.658843994140625	-3.520965576171875	-0.820159912109375	9.788094937133788	0.4531026641845703	0.18375497741699218	1.094818115234375	-5.04302978515625	-2.902984619140625	10.018536846923828	0.18375497741699218	-0.2154781494140625	3.505706787109375	-4.566192626953125	-2.197265625	IMU2|LSM6DS3|0x6B|I2C-1|±2g (±19,6m/s²)|±125º/s|400Hz
4	0.016	0.0	0.0	0.0	0.0	0.003	0.003	0.003	0.003	9.880870251464843	0.09935936889648436	0.06344634399414062	2.4871826171875	-3.63922119140625	-0.8087158203125	9.779116680908203	0.44532150878906246	0.1945288848876953	1.010894775390625	-5.10406494140625	-3.05938720703125	10.01733974609375	0.18375497741699218	-0.21727380065917967	3.643035888671875	-4.5623779296875	-2.25067138671875	IMU3|LSM6DS3|0x6B|I2C-2|±2g (±19,6m/s²)|±125º/s|400Hz
5	0.02	0.0	0.0	0.0	0.0	0.003	0.003	0.003	0.003	9.87069489440918	0.0939724151611328	0.06823474731445311	2.468109130859375	-3.9215087890625	-1.041412353515625	9.789890588378906	0.4417302062988281	0.1879448303222656	0.682830810546875	-4.772186279296875	-2.75421142578125	10.008960040283203	0.18315642700195311	-0.22026655273437498	3.635406494140625	-4.669189453125	-2.307891845703125	ADC|ADS1015|0|0|1|0|±6,144 V|2400 SPS
6	0.024	0.0	0.0	0.0	0.0	0.003	0.003	0.006	0.003	9.866505041503906	0.0939724151611328	0.0718260498046875	2.643585205078125	-3.681182861328125	-0.9918212890625	9.782707983398437	0.4483142608642578	0.17836802368164062	0.705718994140625	-4.955291748046875	-2.895355224609375	10.011354241943359	0.1801636749267578	-0.21068974609375	3.520965576171875	-4.45556640625	-2.31170654296875	Gen1|Disabled
7	0.028	0.0	0.0	0.0	0.0	0.003	0.006	0.003	0.003	9.871891995239258	0.09277531433105468	0.08978256225585937	2.655029296875	-3.48663330078125	-0.949859619140625	9.780912332153319	0.4447229583740234	0.18614917907714842	0.732421875	-5.0048828125	-3.063201904296875	10.017938296508788	0.17896657409667968	-0.20051438903808594	3.692626953125	-4.55474853515625	-2.2125244140625	Gen2|Enabled|Noise|0.0|10.0|1668
8	0.032	0.0	0.0	0.0	0.0	0.006	0.003	0.003	0.006	9.867702142333984	0.08858546142578125	0.08738836059570312	2.73895263671875	-3.8909912109375	-1.026153564453125	9.785102185058593	0.45010991210937495	0.17896657409667968	0.946044921875	-5.126953125	-3.11279296875	10.020931048583984	0.17477672119140625	-0.20290859069824219	3.429412841796875	-4.608154296875	-2.330780029296875	Gen3|Enabled|Noise|0.0|10.0|128
9	0.036000000000000004	0.0	0.0	0.0	0.0	0.0	0.003	0.003	0.0	9.873687646484374	0.09277531433105468	0.08200140686035155	2.67791748046875	-3.53240966796875	-0.911712646484375	9.78031378173828	0.4447229583740234	0.181959326171875	0.885009765625	-5.06591796875	-3.01361083984375	10.022726699829102	0.17836802368164062	-0.1897404815673828	3.871917724609375	-4.60052490234375	-2.101898193359375	Gen4|Enabled|Noise|0.0|10.0|128
10	0.04	0.0	0.0	0.0	0.0	0.003	0.003	0.006	0.003	9.87608184814453	0.09516951599121093	0.07362170104980469	2.620697021484375	-3.68499755859375	-1.01470947265625	9.771934075927733	0.4537012145996093	0.18076222534179687	0.865936279296875	-5.100250244140625	-3.0517578125	10.02332525024414	0.1771709228515625	-0.20649989318847656	3.60870361328125	-4.72259521484375	-2.414703369140625	Ctrl|Disabled
11	0.044	0.0	0.0	0.0	0.0	0.0	0.006	0.006	0.006	9.867702142333984	0.0909796630859375	0.07781155395507812	2.452850341796875	-3.936767578125	-0.942230224609375	9.782707983398437	0.4477157104492187	0.181959326171875	1.068115234375	-5.039215087890625	-3.032684326171875	10.019733947753906	0.1771709228515625	-0.21308394775390624	3.73077392578125	-4.608154296875	-2.315521240234375	
12	0.048	0.0	0.0	0.0	0.0	0.006	0.003	0.003	0.003	9.867702142333984	0.09157821350097656	0.0796072052001953	2.54058837890625	-3.849029541015625	-0.888824462890625	9.785700735473633	0.4572925170898437	0.18435352783203124	1.041412353515625	-5.02777099609375	-2.899169921875	10.029310754394531	0.17477672119140625	-0.21487959899902342	3.51715087890625	-4.5318603515625	-2.292633056640625	
13	0.052000000000000005	0.0	0.0	0.0	0.0	0.006	0.003	0.003	0.003	9.865307940673828	0.09576806640624999	0.07781155395507812	2.58636474609375	-3.597259521484375	-0.820159912109375	9.789890588378906	0.4513070129394531	0.17357962036132812	0.84686279296875	-5.6915283203125	-2.96783447265625	10.013149893188476	0.181959326171875	-0.22266075439453123	3.688812255859375	-4.26483154296875	-1.9683837890625	
14	0.056	0.0	0.0	0.0	0.0	0.003	0.003	0.006	0.003	9.86411083984375	0.09516951599121093	0.06763619689941405	2.6397705078125	-3.8604736328125	-0.87738037109375	9.781510882568359	0.4542997650146484	0.17657237243652343	0.965118408203125	-5.0811767578125	-2.941131591796875	10.012551342773437	0.18734627990722655	-0.23343466186523437	3.475189208984375	-4.589080810546875	-2.1514892578125	
15	0.06	0.0	0.0	0.0	0.0	0.003	0.006	0.003	0.003	9.85692823486328	0.09935936889648436	0.0652419952392578	2.635955810546875	-3.68499755859375	-1.049041748046875	9.788094937133788	0.4626794708251953	0.16819266662597654	1.087188720703125	-5.126953125	-3.101348876953125	10.003573086547851	0.17357962036132812	-0.22685060729980466	3.5552978515625	-4.5623779296875	-2.2735595703125	
16	0.064	0.0	0.0	0.0	0.0	0.0	0.006	0.003	0.006	9.867702142333984	0.10953472595214843	0.08140285644531249	2.437591552734375	-3.65447998046875	-0.8697509765625	9.791087689208984	0.46686932373046874	0.16460136413574217	0.995635986328125	-4.955291748046875	-2.95257568359375	10.01015714111328	0.18914193115234373	-0.2328361114501953	3.4027099609375	-4.76837158203125	-2.166748046875	
17	0.068	0.0	0.0	0.0	0.0	0.003	0.006	0.003	0.003	9.8694977935791	0.1083376251220703	0.07422025146484375	2.593994140625	-3.612518310546875	-0.80108642578125	9.789890588378906	0.469263525390625	0.1657984649658203	0.9307861328125	-4.93621826171875	-2.933502197265625	10.018536846923828	0.19033903198242186	-0.24480711975097655	3.692626953125	-4.642486572265625	-2.132415771484375	
18	0.07200000000000001	0.0	0.0	0.0	0.0	0.003	0.003	0.003	0.003	9.874884747314452	0.10235212097167969	0.06105214233398437	2.72369384765625	-3.84521484375	-0.9918212890625	9.785102185058593	0.469263525390625	0.17776947326660156	0.743865966796875	-5.25665283203125	-2.86102294921875	10.016142645263672	0.19093758239746092	-0.239420166015625	3.368377685546875	-4.638671875	-2.3345947265625	
19	0.076	0.0	0.0	0.0	0.0	0.003	0.003	0.006	0.006	9.87009634399414	0.11372457885742186	0.06703764648437499	2.391815185546875	-3.48663330078125	-0.90789794921875	9.781510882568359	0.46627077331542965	0.16519991455078123	1.094818115234375	-5.10406494140625	-2.960205078125	10.013149893188476	0.1879448303222656	-0.24181436767578124	3.582000732421875	-4.604339599609375	-2.1209716796875	
20	0.08	0.0	0.0	0.0	0.0	0.003	0.003	0.003	0.006	9.871293444824218	0.11851298217773437	0.055066638183593745	2.49481201171875	-3.70025634765625	-0.766754150390625	9.78689783630371	0.4686649749755859	0.17118541870117188	0.827789306640625	-4.92095947265625	-3.032684326171875	10.015544094848632	0.1975216369628906	-0.22744915771484372	3.59344482421875	-4.5013427734375	-2.09808349609375	
21	0.084	0.0	0.0	0.0	0.0	0.003	0.006	0.006	0.006	9.868899243164062	0.11252747802734374	0.06284779357910156	2.628326416015625	-3.841400146484375	-1.102447509765625	9.773131176757811	0.469263525390625	0.17597382202148437	0.81634521484375	-5.146026611328125	-3.04412841796875	10.02332525024414	0.20649989318847656	-0.2328361114501953	3.56292724609375	-4.398345947265625	-2.197265625	
22	0.088	0.0	0.0	0.0	0.0	0.003	0.003	0.006	0.003	9.859322436523437	0.11192892761230468	0.05746083984375	2.323150634765625	-3.5858154296875	-1.0986328125	9.773131176757811	0.46208092041015625	0.1562216583251953	1.003265380859375	-5.146026611328125	-3.063201904296875	10.019733947753906	0.19871873779296872	-0.23223756103515625	3.368377685546875	-4.33349609375	-2.162933349609375	
23	0.092	0.0	0.0	0.0	0.0	0.003	0.003	0.006	0.006	9.87009634399414	0.12389993591308593	0.04369418029785156	2.635955810546875	-3.68499755859375	-0.74005126953125	9.783905084228515	0.469263525390625	0.16041151123046873	0.850677490234375	-4.8828125	-2.880096435546875	10.012551342773437	0.1975216369628906	-0.22505495605468748	3.7689208984375	-4.581451416015625	-2.185821533203125	
24	0.096	0.0	0.0	0.0	0.0	0.003	0.006	0.003	0.003	9.87727894897461	0.12389993591308593	0.0383072265625	2.70843505859375	-3.841400146484375	-0.751495361328125	9.789292037963866	0.4746504791259765	0.16160861206054686	1.10626220703125	-4.993438720703125	-2.90679931640625	10.029310754394531	0.20350714111328125	-0.23523031311035156	3.505706787109375	-4.535675048828125	-2.246856689453125	
25	0.1	0.0	0.0	0.0	0.0	0.003	0.006	0.003	0.003	9.865307940673828	0.1292868896484375	0.051475335693359374	2.55584716796875	-3.620147705078125	-0.774383544921875	9.784503634643555	0.47764323120117186	0.15322890625	0.83160400390625	-5.069732666015625	-2.880096435546875	10.019733947753906	0.2041056915283203	-0.24660277099609373	3.528594970703125	-4.38690185546875	-2.1514892578125	
26	0.10400000000000001	0.0	0.0	0.0	0.0	0.003	0.006	0.003	0.006	9.87727894897461	0.12569558715820311	0.05087678527832031	2.872467041015625	-3.604888916015625	-0.843048095703125	9.785700735473633	0.4830301849365234	0.15083470458984374	0.743865966796875	-5.100250244140625	-3.101348876953125	10.024522351074218	0.21487959899902342	-0.2454056701660156	3.66973876953125	-4.482269287109375	-2.1820068359375	
27	0.108	0.0	0.0	0.0	0.0	0.006	0.003	0.006	0.003	9.873687646484374	0.12868833923339842	0.059256491088867186	2.445220947265625	-3.8299560546875	-1.03759765625	9.779116680908203	0.4830301849365234	0.16160861206054686	0.919342041015625	-4.978179931640625	-2.994537353515625	10.02392380065918	0.21966800231933592	-0.24779987182617186	3.85284423828125	-4.44793701171875	-2.201080322265625	
28	0.112	0.0	0.0	0.0	0.0	0.006	0.003	0.003	0.006	9.867702142333984	0.1352723937988281	0.059256491088867186	2.635955810546875	-3.574371337890625	-0.91552734375	9.788693487548828	0.4860229370117187	0.15203180541992187	0.89263916015625	-5.031585693359375	-2.918243408203125	10.02332525024414	0.21068974609375	-0.24480711975097655	3.452301025390625	-4.489898681640625	-1.800537109375	
29	0.116	0.0	0.0	0.0	0.0	0.003	0.003	0.003	0.003	9.8694977935791	0.12210428466796874	0.04189852905273437	2.521514892578125	-3.582000732421875	-0.79345703125	9.78629928588867	0.4896142395019531	0.16639701538085935	0.63323974609375	-5.031585693359375	-2.96783447265625	10.017938296508788	0.2041056915283203	-0.25318682556152344	3.448486328125	-4.425048828125	-2.2430419921875	
30	0.12	0.0	0.0	0.0	0.0	0.003	0.003	0.003	0.006	9.867702142333984	0.1227028350830078	0.04668693237304687	2.552032470703125	-3.803253173828125	-0.972747802734375	9.785102185058593	0.4836287353515625	0.1592144104003906	1.255035400390625	-5.046844482421875	-3.12042236328125	10.01674119567871	0.21248539733886718	-0.23882161560058593	3.997802734375	-4.444122314453125	-2.2430419921875	
31	0.124	0.0	0.0	0.0	0.0	0.006	0.006	0.003	0.006	9.868899243164062	0.11252747802734374	0.044292730712890624	2.8228759765625	-3.90625	-0.881195068359375	9.775525378417969	0.47644613037109373	0.16041151123046873	1.041412353515625	-4.89044189453125	-2.99072265625	10.024522351074218	0.2041056915283203	-0.2472013214111328	3.383636474609375	-4.39453125	-1.99127197265625	
32	0.128	0.0	0.0	0.0	0.0	0.006	0.003	0.003	0.006	9.862315188598632	0.12150573425292968	0.04848258361816406	2.712249755859375	-3.936767578125	-0.881195068359375	9.776722479248047	0.46627077331542965	0.16460136413574217	0.804901123046875	-4.848480224609375	-3.208160400390625	10.02332525024414	0.21188684692382811	-0.24899697265624998	3.543853759765625	-4.49371337890625	-2.124786376953125	
33	0.132	0.0	0.0	0.0	0.0	0.006	0.006	0.003	0.009000000000000001	9.860519537353515	0.12030863342285156	0.05746083984375	2.81524658203125	-3.879547119140625	-0.6866455078125	9.777919580078125	0.4656722229003906	0.16519991455078123	0.90789794921875	-5.035400390625	-2.819061279296875	10.01733974609375	0.2088940948486328	-0.229843359375	3.71551513671875	-4.543304443359375	-2.13623046875	
34	0.136	0.0	0.0	0.0	0.0	0.003	0.006	0.006	0.003	9.871891995239258	0.11671733093261719	0.04967968444824218	2.43377685546875	-3.757476806640625	-1.010894775390625	9.787496386718749	0.47165772705078124	0.16699556579589842	0.904083251953125	-4.886627197265625	-2.99072265625	10.013748443603514	0.19871873779296872	-0.22565350646972654	3.662109375	-4.82177734375	-2.246856689453125	
35	0.14	0.0	0.0	0.0	0.0	0.006	0.003	0.003	0.006	9.874884747314452	0.12030863342285156	0.05566518859863281	2.41851806640625	-3.662109375	-0.820159912109375	9.780912332153319	0.47165772705078124	0.18136077575683593	1.0528564453125	-5.184173583984375	-2.948760986328125	10.016142645263672	0.201112939453125	-0.2214636535644531	3.57818603515625	-4.589080810546875	-1.949310302734375	
36	0.14400000000000002	0.0	0.0	0.0	0.0	0.003	0.003	0.003	0.006	9.86351228942871	0.11432312927246092	0.05746083984375	2.414703369140625	-3.7078857421875	-1.02996826171875	9.789292037963866	0.4644751220703125	0.17776947326660156	0.873565673828125	-4.9591064453125	-2.99835205078125	10.02332525024414	0.19632453613281248	-0.22565350646972654	3.51715087890625	-4.69207763671875	-2.38037109375	
37	0.148	0.0	0.0	0.0	0.0	0.003	0.003	0.003	0.003	9.868899243164062	0.10414777221679687	0.0430956298828125	2.63214111328125	-3.7078857421875	-0.95367431640625	9.779116680908203	0.4542997650146484	0.17417817077636719	0.9307861328125	-5.031585693359375	-2.81524658203125	10.035296258544921	0.1867477294921875	-0.22086510314941404	3.4637451171875	-4.482269287109375	-2.02178955078125	
38	0.152	0.0	0.0	0.0	0.0	0.003	0.003	0.006	0.003	9.868899243164062	0.10295067138671875	0.061650692749023434	2.536773681640625	-3.856658935546875	-0.87738037109375	9.781510882568359	0.45669396667480466	0.17357962036132812	0.957489013671875	-4.9591064453125	-3.01361083984375	10.01015714111328	0.18375497741699218	-0.21727380065917967	3.612518310546875	-4.57000732421875	-2.197265625	
39	0.156	0.0	0.0	0.0	0.0	0.003	0.003	0.006	0.006	9.873089096069336	0.10175357055664062	0.06045359191894531	2.55584716796875	-3.757476806640625	-0.995635986328125	9.77432827758789	0.4578910675048828	0.17776947326660156	0.92315673828125	-4.970550537109375	-3.082275390625	10.015544094848632	0.1897404815673828	-0.22026655273437498	3.6773681640625	-4.772186279296875	-2.06756591796875	
40	0.16	0.0	0.0	0.0	0.0	0.003	0.003	0.003	0.003	9.867702142333984	0.09816226806640624	0.06464344482421874	2.72369384765625	-3.803253173828125	-0.965118408203125	9.775525378417969	0.4477157104492187	0.17417817077636719	0.980377197265625	-4.9285888671875	-3.0517578125	10.012551342773437	0.18136077575683593	-0.21906945190429686	3.864288330078125	-4.398345947265625	-2.117156982421875	
41	0.164	0.0	0.0	0.0	0.0	0.003	0.006	0.006	0.006	9.87668039855957	0.10175357055664062	0.06284779357910156	2.582550048828125	-3.673553466796875	-0.8544921875	9.788693487548828	0.4531026641845703	0.1693897674560547	0.75531005859375	-4.917144775390625	-2.98309326171875	10.008960040283203	0.1801636749267578	-0.22445640563964842	3.814697265625	-4.67681884765625	-2.15911865234375	
42	0.168	0.0	0.0	0.0	0.0	0.009000000000000001	0.006	0.003	0.003	9.861716638183593	0.1005564697265625	0.05985504150390625	2.574920654296875	-3.753662109375	-0.83160400390625	9.783306533813477	0.4483142608642578	0.17118541870117188	0.545501708984375	-4.993438720703125	-2.872467041015625	10.014945544433592	0.181959326171875	-0.23403321228027343	3.498077392578125	-4.726409912109375	-2.20489501953125	
43	0.17200000000000001	0.0	0.0	0.0	0.0	0.006	0.006	0.003	0.003	9.86291373901367	0.09636661682128905	0.07122749938964844	2.49481201171875	-3.74603271484375	-0.87738037109375	9.782109432983399	0.4572925170898437	0.17118541870117188	0.965118408203125	-4.6844482421875	-3.147125244140625	10.008960040283203	0.181959326171875	-0.24181436767578124	3.421783447265625	-4.566192626953125	-2.307891845703125	
44	0.176	0.0	0.0	0.0	0.0	0.003	0.003	0.006	0.003	9.861716638183593	0.10354922180175781	0.055066638183593745	2.452850341796875	-3.620147705078125	-0.8392333984375	9.787496386718749	0.4578910675048828	0.1693897674560547	0.743865966796875	-5.016326904296875	-2.979278564453125	10.025719451904296	0.18854338073730467	-0.2454056701660156	3.429412841796875	-4.58526611328125	-2.094268798828125	
45	0.18	0.0	0.0	0.0	0.0	0.003	0.003	0.003	0.006	9.87009634399414	0.09816226806640624	0.059256491088867186	2.54058837890625	-3.7384033203125	-0.84686279296875	9.789890588378906	0.4537012145996093	0.17956512451171874	0.80108642578125	-4.627227783203125	-3.055572509765625	10.022726699829102	0.18375497741699218	-0.24899697265624998	3.53240966796875	-4.657745361328125	-2.22015380859375	
46	0.184	0.0	0.0	0.0	0.0	0.006	0.003	0.006	0.003	9.87009634399414	0.09696516723632811	0.06584054565429687	2.643585205078125	-3.566741943359375	-0.926971435546875	9.789292037963866	0.45070846252441404	0.1693897674560547	0.75531005859375	-4.871368408203125	-2.9449462890625	10.022726699829102	0.181959326171875	-0.23882161560058593	3.658294677734375	-4.734039306640625	-2.22015380859375	
47	0.188	0.0	0.0	0.0	0.0	0.006	0.003	0.006	0.003	9.872490545654296	0.09038111267089843	0.07003039855957031	2.689361572265625	-3.753662109375	-0.99945068359375	9.789890588378906	0.4477157104492187	0.16220716247558592	0.911712646484375	-5.0048828125	-2.95257568359375	10.012551342773437	0.17896657409667968	-0.23582886352539062	3.498077392578125	-4.3487548828125	-2.101898193359375	
48	0.192	0.0	0.0	0.0	0.0	0.006	0.003	0.006	0.003	9.865906491088866	0.0987608184814453	0.07422025146484375	2.590179443359375	-3.467559814453125	-0.843048095703125	9.781510882568359	0.4578910675048828	0.15682020874023436	0.84686279296875	-5.035400390625	-2.9296875	10.011354241943359	0.17357962036132812	-0.2316390106201172	3.51715087890625	-4.730224609375	-2.29644775390625	
49	0.196	0.0	0.0	0.0	0.0	0.009000000000000001	0.006	0.003	0.006	9.872490545654296	0.10175357055664062	0.05626373901367187	2.498626708984375	-3.673553466796875	-0.96893310546875	9.777321029663085	0.4513070129394531	0.16041151123046873	1.056671142578125	-4.909515380859375	-2.826690673828125	10.018536846923828	0.17417817077636719	-0.22685060729980466	3.528594970703125	-4.596710205078125	-2.178192138671875	
50	0.2	0.0	0.0	0.0	0.0	0.009000000000000001	0.003	0.006	0.003	9.868899243164062	0.086191259765625	0.058657940673828124	2.60162353515625	-3.7078857421875	-0.797271728515625	9.784503634643555	0.4477157104492187	0.1580173095703125	0.949859619140625	-5.0201416015625	-3.1585693359375	10.024522351074218	0.17657237243652343	-0.23223756103515625	3.59344482421875	-4.55474853515625	-2.34222412109375	
51	0.20400000000000001	0.0	0.0	0.0	0.0	0.003	0.006	0.006	0.003	9.865307940673828	0.09157821350097656	0.06045359191894531	2.46429443359375	-3.635406494140625	-0.896453857421875	9.77492682800293	0.45010991210937495	0.1753752716064453	0.640869140625	-4.852294921875	-2.964019775390625	10.020931048583984	0.1753752716064453	-0.21248539733886718	3.70025634765625	-4.573822021484375	-2.323150634765625	
52	0.20800000000000002	0.0	0.0	0.0	0.0	0.003	0.003	0.003	0.006	9.860519537353515	0.09217676391601562	0.06284779357910156	2.727508544921875	-3.387451171875	-0.885009765625	9.777919580078125	0.4465186096191406	0.17118541870117188	0.93841552734375	-5.237579345703125	-2.93731689453125	10.022726699829102	0.17836802368164062	-0.20709844360351562	4.03594970703125	-4.5928955078125	-2.147674560546875	
53	0.212	0.0	0.0	0.0	0.0	0.006	0.003	0.003	0.006	9.859920986938477	0.10235212097167969	0.06344634399414062	2.628326416015625	-3.6468505859375	-1.125335693359375	9.777919580078125	0.4465186096191406	0.16041151123046873	1.01470947265625	-4.9285888671875	-2.87628173828125	10.026916552734374	0.17597382202148437	-0.21428104858398436	3.44085693359375	-4.4403076171875	-2.124786376953125	
54	0.216	0.0	0.0	0.0	0.0	0.003	0.003	0.006	0.006	9.861716638183593	0.10115502014160156	0.06105214233398437	2.605438232421875	-3.90625	-0.797271728515625	9.782707983398437	0.4447229583740234	0.1657984649658203	0.7476806640625	-4.95147705078125	-2.83050537109375	10.01733974609375	0.18315642700195311	-0.2184709014892578	3.627777099609375	-4.4708251953125	-2.285003662109375	
55	0.22	0.0	0.0	0.0	0.0	0.003	0.006	0.003	0.0	9.86411083984375	0.10773907470703124	0.05626373901367187	2.651214599609375	-3.5400390625	-0.89263916015625	9.777321029663085	0.46148236999511716	0.1753752716064453	1.148223876953125	-4.95147705078125	-3.021240234375	10.013149893188476	0.18136077575683593	-0.2262520568847656	3.482818603515625	-4.497528076171875	-2.124786376953125	
56	0.224	0.0	0.0	0.0	0.0	0.006	0.003	0.003	0.003	9.872490545654296	0.10235212097167969	0.055066638183593745	2.58636474609375	-3.73077392578125	-1.02996826171875	9.785102185058593	0.4590881683349609	0.1771709228515625	0.835418701171875	-5.0506591796875	-3.032684326171875	10.018536846923828	0.18854338073730467	-0.22385785522460935	3.73077392578125	-4.6539306640625	-2.44903564453125	
57	0.228	0.0	0.0	0.0	0.0	0.006	0.006	0.003	0.003	9.87009634399414	0.09935936889648436	0.04848258361816406	2.674102783203125	-3.559112548828125	-0.95367431640625	9.788693487548828	0.4584896179199218	0.17178396911621094	1.018524169921875	-4.993438720703125	-2.89154052734375	10.019733947753906	0.19033903198242186	-0.23403321228027343	3.566741943359375	-4.520416259765625	-2.20489501953125	
58	0.232	0.0	0.0	0.0	0.0	0.003	0.003	0.006	0.006	9.868899243164062	0.11252747802734374	0.0526724365234375	2.31170654296875	-3.77655029296875	-0.95367431640625	9.783306533813477	0.469263525390625	0.1657984649658203	0.865936279296875	-4.962921142578125	-3.1890869140625	10.019733947753906	0.2041056915283203	-0.23104046020507812	3.658294677734375	-4.6539306640625	-2.2430419921875	
59	0.23600000000000002	0.0	0.0	0.0	0.0	0.006	0.003	0.003	0.003	9.874286196899414	0.11252747802734374	0.05626373901367187	2.475738525390625	-3.490447998046875	-1.07574462890625	9.784503634643555	0.46507367248535153	0.1657984649658203	0.8544921875	-4.772186279296875	-2.941131591796875	10.011354241943359	0.19991583862304688	-0.24001871643066405	3.818511962890625	-4.795074462890625	-2.2430419921875	
60	0.24	0.0	0.0	0.0	0.0	0.009000000000000001	0.003	0.003	0.003	9.87069489440918	0.1197100830078125	0.052073886108398436	2.529144287109375	-3.566741943359375	-0.64849853515625	9.780912332153319	0.4704606262207031	0.17597382202148437	1.190185546875	-5.008697509765625	-2.960205078125	10.011952792358398	0.1975216369628906	-0.2328361114501953	3.59344482421875	-4.44793701171875	-2.32696533203125	
61	0.244	0.0	0.0	0.0	0.0	0.006	0.003	0.003	0.0	9.874884747314452	0.1274912384033203	0.059256491088867186	2.666473388671875	-3.582000732421875	-0.98419189453125	9.781510882568359	0.47584757995605464	0.17118541870117188	1.018524169921875	-5.06591796875	-3.093719482421875	10.018536846923828	0.2059013427734375	-0.2292448089599609	3.79180908203125	-4.5928955078125	-2.231597900390625	
62	0.248	0.0	0.0	0.0	0.0	0.009000000000000001	0.003	0.006	0.003	9.874884747314452	0.12150573425292968	0.062249243164062495	2.658843994140625	-3.772735595703125	-0.759124755859375	9.789890588378906	0.479438882446289	0.16340426330566404	0.942230224609375	-4.917144775390625	-3.082275390625	10.016142645263672	0.21128829650878905	-0.23223756103515625	3.627777099609375	-4.627227783203125	-2.0599365234375	
63	0.252	0.0	0.0	0.0	0.0	0.003	0.006	0.003	0.009000000000000001	9.867103591918944	0.1197100830078125	0.0526724365234375	2.613067626953125	-3.6468505859375	-0.90789794921875	9.787496386718749	0.48722003784179685	0.16639701538085935	1.01470947265625	-5.207061767578125	-3.08990478515625	10.013748443603514	0.20290859069824219	-0.23702596435546874	3.570556640625	-4.43267822265625	-2.14385986328125	
64	0.256	0.0	0.0	0.0	0.0	0.003	0.006	0.006	0.006	9.867702142333984	0.12330138549804687	0.052073886108398436	2.513885498046875	-3.696441650390625	-0.926971435546875	9.787496386718749	0.49021278991699213	0.18076222534179687	0.545501708984375	-5.107879638671875	-2.86865234375	10.01733974609375	0.20709844360351562	-0.2555810272216797	3.65447998046875	-4.47845458984375	-2.132415771484375	
65	0.26	0.0	0.0	0.0	0.0	0.006	0.003	0.003	0.003	9.864709390258788	0.1227028350830078	0.058657940673828124	2.498626708984375	-3.856658935546875	-0.888824462890625	9.782707983398437	0.48123453369140623	0.17118541870117188	0.865936279296875	-5.02777099609375	-2.89154052734375	10.024522351074218	0.21009119567871093	-0.24181436767578124	3.818511962890625	-4.70733642578125	-2.094268798828125	
66	0.264	0.0	0.0	0.0	0.0	0.003	0.006	0.003	0.003	9.87069489440918	0.11791443176269531	0.05805939025878906	2.74658203125	-3.757476806640625	-0.96893310546875	9.777919580078125	0.4842272857666015	0.17357962036132812	1.0528564453125	-4.974365234375	-2.960205078125	10.02332525024414	0.2059013427734375	-0.2328361114501953	3.643035888671875	-4.55474853515625	-2.346038818359375	
67	0.268	0.0	0.0	0.0	0.0	0.003	0.003	0.003	0.003	9.866505041503906	0.12689268798828124	0.05327098693847656	2.60162353515625	-3.91387939453125	-0.89263916015625	9.784503634643555	0.48542438659667964	0.16998831787109375	0.8544921875	-5.008697509765625	-2.933502197265625	10.025719451904296	0.20231004028320312	-0.23044190979003906	3.604888916015625	-4.5318603515625	-2.31170654296875	
68	0.272	0.0	0.0	0.0	0.0	0.0	0.003	0.003	0.003	9.865906491088866	0.12569558715820311	0.061650692749023434	2.536773681640625	-3.787994384765625	-0.83160400390625	9.783905084228515	0.4842272857666015	0.16639701538085935	0.8697509765625	-4.940032958984375	-3.0059814453125	10.020931048583984	0.21727380065917967	-0.2280477081298828	3.627777099609375	-4.5928955078125	-2.338409423828125	
69	0.276	0.0	0.0	0.0	0.0	0.006	0.006	0.006	0.006	9.87608184814453	0.11791443176269531	0.05087678527832031	2.64739990234375	-3.772735595703125	-0.79345703125	9.781510882568359	0.4704606262207031	0.16041151123046873	1.010894775390625	-5.008697509765625	-2.95257568359375	10.00955859069824	0.19931728820800781	-0.2316390106201172	3.7689208984375	-4.581451416015625	-2.208709716796875	
70	0.28	0.0	0.0	0.0	0.0	0.006	0.006	0.003	0.006	9.871293444824218	0.1131260284423828	0.054468087768554684	2.5482177734375	-3.6468505859375	-0.885009765625	9.780912332153319	0.47644613037109373	0.17896657409667968	0.9002685546875	-5.077362060546875	-2.98309326171875	10.011354241943359	0.19871873779296872	-0.2280477081298828	3.42559814453125	-4.46319580078125	-2.31170654296875	
71	0.28400000000000003	0.0	0.0	0.0	0.0	0.006	0.003	0.006	0.006	9.872490545654296	0.11192892761230468	0.05626373901367187	2.67791748046875	-3.63922119140625	-0.87738037109375	9.782707983398437	0.46806642456054687	0.17657237243652343	0.95367431640625	-5.18798828125	-2.857208251953125	10.028113653564452	0.20231004028320312	-0.23223756103515625	3.54766845703125	-4.5166015625	-2.17437744140625	
72	0.28800000000000003	0.0	0.0	0.0	0.0	0.006	0.006	0.003	0.006	9.87668039855957	0.11432312927246092	0.05386953735351562	2.719879150390625	-3.841400146484375	-0.93841552734375	9.78031378173828	0.46806642456054687	0.15861585998535155	0.701904296875	-4.7454833984375	-2.864837646484375	10.020332498168944	0.20530279235839843	-0.2346317626953125	3.490447998046875	-4.49371337890625	-2.140045166015625	
73	0.292	0.0	0.0	0.0	0.0	0.006	0.003	0.003	0.003	9.868899243164062	0.11192892761230468	0.06763619689941405	2.8533935546875	-3.509521484375	-0.83160400390625	9.787496386718749	0.4722562774658203	0.181959326171875	0.980377197265625	-5.01251220703125	-3.0059814453125	10.019733947753906	0.19991583862304688	-0.23044190979003906	3.543853759765625	-4.8980712890625	-2.353668212890625	
74	0.296	0.0	0.0	0.0	0.0	0.003	0.003	0.006	0.006	9.866505041503906	0.11731588134765625	0.06763619689941405	2.559661865234375	-3.92913818359375	-0.865936279296875	9.788693487548828	0.4686649749755859	0.17836802368164062	1.01470947265625	-4.924774169921875	-2.971649169921875	10.019733947753906	0.201112939453125	-0.22026655273437498	3.437042236328125	-4.58526611328125	-2.155303955078125	
75	0.3	0.0	0.0	0.0	0.0	0.006	0.006	0.003	0.009000000000000001	9.867702142333984	0.10295067138671875	0.06584054565429687	2.777099609375	-3.7384033203125	-0.804901123046875	9.788693487548828	0.4686649749755859	0.16998831787109375	0.888824462890625	-5.02777099609375	-3.0364990234375	10.019135397338866	0.20470424194335937	-0.23044190979003906	3.818511962890625	-4.66156005859375	-2.25830078125	
76	0.304	0.0	0.0	0.0	0.0	0.003	0.006	0.006	0.003	9.85632968444824	0.11073182678222655	0.05746083984375	2.834320068359375	-3.94439697265625	-0.804901123046875	9.788094937133788	0.46806642456054687	0.16460136413574217	1.16729736328125	-5.1116943359375	-2.8839111328125	10.019733947753906	0.20769699401855468	-0.23223756103515625	3.627777099609375	-4.528045654296875	-2.410888671875	
77	0.308	0.0	0.0	0.0	0.0	0.006	0.003	0.006	0.003	9.866505041503906	0.1149216796875	0.05566518859863281	2.727508544921875	-3.589630126953125	-1.194000244140625	9.78689783630371	0.4590881683349609	0.1610100616455078	0.904083251953125	-5.13458251953125	-2.92205810546875	10.011354241943359	0.20231004028320312	-0.24600422058105467	3.467559814453125	-4.52423095703125	-2.09808349609375	
78	0.312	0.0	0.0	0.0	0.0	0.003	0.003	0.006	0.003	9.865307940673828	0.10714052429199218	0.07062894897460938	2.60162353515625	-3.6163330078125	-0.888824462890625	9.789890588378906	0.4542997650146484	0.17836802368164062	0.762939453125	-5.107879638671875	-3.0670166015625	10.015544094848632	0.20051438903808594	-0.24779987182617186	3.50189208984375	-4.398345947265625	-2.3040771484375	
79	0.316	0.0	0.0	0.0	0.0	0.006	0.003	0.006	0.006	9.874286196899414	0.1083376251220703	0.05626373901367187	2.689361572265625	-3.51715087890625	-0.80108642578125	9.779116680908203	0.4572925170898437	0.16220716247558592	0.9918212890625	-5.115509033203125	-3.032684326171875	10.01015714111328	0.1879448303222656	-0.24839842224121092	3.650665283203125	-4.695892333984375	-2.25067138671875	
80	0.32	0.0	0.0	0.0	0.0	0.003	0.006	0.003	0.006	9.867702142333984	0.10654197387695312	0.06045359191894531	2.8228759765625	-3.963470458984375	-0.980377197265625	9.783306533813477	0.4608838195800781	0.17058686828613281	0.888824462890625	-5.0048828125	-2.979278564453125	10.005368737792969	0.19093758239746092	-0.2519897247314453	3.734588623046875	-4.63104248046875	-2.37274169921875	
81	0.324	0.0	0.0	0.0	0.0	0.006	0.003	0.003	0.003	9.873687646484374	0.10235212097167969	0.06344634399414062	2.559661865234375	-3.6163330078125	-0.873565673828125	9.788094937133788	0.46028526916503903	0.16879121704101563	0.995635986328125	-4.810333251953125	-2.92205810546875	10.02332525024414	0.18435352783203124	-0.2507926239013672	3.490447998046875	-4.425048828125	-2.025604248046875	
82	0.328	0.0	0.0	0.0	0.0	0.006	0.003	0.003	0.006	9.872490545654296	0.08738836059570312	0.054468087768554684	2.5482177734375	-3.810882568359375	-0.7476806640625	9.794678991699218	0.4423287567138672	0.16460136413574217	1.079559326171875	-4.82177734375	-3.08990478515625	10.018536846923828	0.181959326171875	-0.23702596435546874	3.50189208984375	-4.46319580078125	-2.2430419921875	
83	0.332	0.0	0.0	0.0	0.0	0.003	0.003	0.003	0.003	9.872490545654296	0.09516951599121093	0.07003039855957031	2.696990966796875	-3.734588623046875	-1.190185546875	9.788693487548828	0.4477157104492187	0.17118541870117188	0.713348388671875	-4.848480224609375	-2.89154052734375	10.022128149414062	0.18435352783203124	-0.2424129180908203	3.5858154296875	-4.608154296875	-2.201080322265625	
84	0.336	0.0	0.0	0.0	0.0	0.003	0.003	0.003	0.006	9.866505041503906	0.08678981018066406	0.07721300354003906	2.44140625	-3.490447998046875	-1.003265380859375	9.783905084228515	0.43933600463867184	0.16998831787109375	0.7781982421875	-5.0811767578125	-3.139495849609375	10.016142645263672	0.1867477294921875	-0.2292448089599609	3.36456298828125	-4.459381103515625	-2.246856689453125	
85	0.34	0.0	0.0	0.0	0.0	0.006	0.006	0.003	0.006	9.865307940673828	0.08020575561523437	0.06045359191894531	2.796173095703125	-4.09698486328125	-0.9765625	9.781510882568359	0.4435258575439453	0.1753752716064453	1.1444091796875	-4.848480224609375	-2.99835205078125	10.01733974609375	0.1562216583251953	-0.22445640563964842	3.910064697265625	-4.6844482421875	-1.964569091796875	
86	0.34400000000000003	0.0	0.0	0.0	0.0	0.006	0.003	0.003	0.003	9.867702142333984	0.09516951599121093	0.05746083984375	2.54058837890625	-3.780364990234375	-0.89263916015625	9.776722479248047	0.4477157104492187	0.1753752716064453	0.87738037109375	-5.06591796875	-3.07464599609375	10.022726699829102	0.17118541870117188	-0.22445640563964842	3.83758544921875	-4.840850830078125	-2.26593017578125	
87	0.34800000000000003	0.0	0.0	0.0	0.0	0.003	0.003	0.003	0.006	9.86411083984375	0.08918401184082031	0.058657940673828124	2.529144287109375	-3.65447998046875	-0.644683837890625	9.770736975097655	0.45190556335449217	0.1771709228515625	1.03759765625	-5.130767822265625	-3.21197509765625	10.01015714111328	0.18076222534179687	-0.2214636535644531	3.54766845703125	-4.421234130859375	-2.338409423828125	
88	0.352	0.0	0.0	0.0	0.0	0.003	0.003	0.006	0.003	9.858125335693359	0.08379705810546874	0.07302315063476562	2.5177001953125	-3.5858154296875	-0.606536865234375	9.78629928588867	0.4381389038085937	0.17956512451171874	0.8544921875	-4.840850830078125	-3.082275390625	10.014346994018554	0.17776947326660156	-0.22505495605468748	3.60107421875	-4.489898681640625	-2.407073974609375	
89	0.356	0.0	0.0	0.0	0.0	0.003	0.003	0.003	0.003	9.872490545654296	0.09995791931152344	0.07242460021972656	2.712249755859375	-3.627777099609375	-0.8697509765625	9.785700735473633	0.45489831542968745	0.17178396911621094	0.843048095703125	-5.08880615234375	-2.948760986328125	10.012551342773437	0.17896657409667968	-0.22026655273437498	3.635406494140625	-4.512786865234375	-2.17437744140625	
90	0.36	0.0	0.0	0.0	0.0	0.003	0.006	0.003	0.003	9.86291373901367	0.12210428466796874	0.06105214233398437	2.62451171875	-3.887176513671875	-1.06048583984375	9.770138424682617	0.4644751220703125	0.17058686828613281	0.988006591796875	-5.100250244140625	-2.90679931640625	10.012551342773437	0.20769699401855468	-0.2280477081298828	3.505706787109375	-4.421234130859375	-2.048492431640625	
91	0.364	0.0	0.0	0.0	0.0	0.006	0.006	0.003	0.003	9.883264453125	0.10714052429199218	0.07721300354003906	2.532958984375	-3.505706787109375	-0.8392333984375	9.79348189086914	0.4542997650146484	0.17357962036132812	0.743865966796875	-4.848480224609375	-3.10516357421875	10.025719451904296	0.1897404815673828	-0.23642741394042968	3.673553466796875	-4.550933837890625	-2.216339111328125	
92	0.368	0.0	0.0	0.0	0.0	0.003	0.006	0.003	0.003	9.874884747314452	0.0909796630859375	0.08499415893554688	2.628326416015625	-3.8909912109375	-0.9918212890625	9.792284790039062	0.43574470214843747	0.20530279235839843	0.789642333984375	-5.07354736328125	-3.0975341796875	10.028712203979492	0.17058686828613281	-0.19572598571777342	3.39508056640625	-4.650115966796875	-2.185821533203125	
93	0.372	0.0	0.0	0.0	0.0	0.003	0.006	0.006	0.006	9.88266590270996	0.07781155395507812	0.054468087768554684	2.727508544921875	-3.528594970703125	-0.843048095703125	9.788094937133788	0.4369418029785156	0.17776947326660156	0.8697509765625	-5.02777099609375	-2.9449462890625	10.015544094848632	0.15263035583496093	-0.21607669982910155	3.574371337890625	-4.57000732421875	-2.231597900390625	
94	0.376	0.0	0.0	0.0	0.0	0.006	0.006	0.003	0.009000000000000001	9.89523546142578	0.10773907470703124	0.07601590270996093	2.536773681640625	-3.612518310546875	-0.751495361328125	9.791087689208984	0.45010991210937495	0.20051438903808594	1.0986328125	-4.917144775390625	-3.0517578125	10.036493359375	0.17956512451171874	-0.20829554443359374	3.3416748046875	-4.6539306640625	-2.25067138671875	
95	0.38	0.0	0.0	0.0	0.0	0.003	0.003	0.003	0.003	9.849745629882811	0.04668693237304687	0.08918401184082031	2.7618408203125	-3.398895263671875	-0.904083251953125	9.76235726928711	0.4112041351318359	0.2214636535644531	0.713348388671875	-4.94384765625	-2.777099609375	10.007762939453125	0.1484405029296875	-0.14724340209960937	3.631591796875	-4.497528076171875	-2.22015380859375	
96	0.384	0.0	0.0	0.0	0.0	0.003	0.006	0.006	0.009000000000000001	9.852738381958007	0.02154781494140625	0.044891281127929686	2.422332763671875	-3.742218017578125	-0.911712646484375	9.758167416381836	0.3860650177001953	0.1693897674560547	1.071929931640625	-5.31005859375	-3.025054931640625	9.998784683227539	0.09816226806640624	-0.1849520782470703	3.498077392578125	-4.38690185546875	-2.28118896484375	
97	0.388	0.0	0.0	0.0	0.0	0.003	0.006	0.003	0.003	9.852738381958007	0.09157821350097656	0.04548983154296875	2.7313232421875	-3.810882568359375	-0.766754150390625	9.756371765136718	0.4782417816162109	0.16759411621093748	0.980377197265625	-5.1422119140625	-3.0517578125	10.005368737792969	0.18734627990722655	-0.19512743530273435	3.85284423828125	-4.596710205078125	-2.223968505859375	
98	0.392	0.0	0.0	0.0	0.0	0.003	0.006	0.006	0.003	9.849147079467773	0.08319850769042968	0.059256491088867186	2.83050537109375	-3.665924072265625	-0.782012939453125	9.767145672607422	0.46148236999511716	0.19093758239746092	0.81634521484375	-5.157470703125	-2.92205810546875	10.034099157714843	0.16759411621093748	-0.1927332336425781	3.7078857421875	-4.52423095703125	-2.18963623046875	
99	0.396	0.0	0.0	0.0	0.0	0.003	0.003	0.006	0.006	9.887454306030273	0.08978256225585937	0.03890577697753906	2.529144287109375	-3.7994384765625	-0.9613037109375	9.79348189086914	0.41838674011230464	0.14185644836425781	0.87738037109375	-4.852294921875	-2.9754638671875	10.038887561035155	0.13826514587402344	-0.23582886352539062	3.80706787109375	-4.40216064453125	-2.185821533203125	
100	0.4	0.0	0.0	0.0	0.0	0.006	0.003	0.006	0.003	9.875483297729492	0.16160861206054686	0.013168109130859374	2.803802490234375	-3.559112548828125	-0.934600830078125	9.78031378173828	0.5309142181396485	0.12330138549804687	0.98419189453125	-5.04302978515625	-3.002166748046875	10.03050785522461	0.239420166015625	-0.27353753967285155	3.73077392578125	-4.49371337890625	-2.285003662109375	
101	0.404	0.0	0.0	0.0	0.0	0.003	0.006	0.006	0.003	9.860519537353515	0.18435352783203124	0.04369418029785156	2.765655517578125	-3.726959228515625	-0.9918212890625	9.76774422302246	0.5351040710449219	0.1466448516845703	1.041412353515625	-5.153656005859375	-3.017425537109375	10.00417163696289	0.25797522888183594	-0.2741360900878906	3.77655029296875	-4.619598388671875	-2.063751220703125	
102	0.40800000000000003	0.0	0.0	0.0	0.0	0.0	0.003	0.003	0.003	9.87727894897461	0.18375497741699218	0.03172317199707031	2.758026123046875	-3.643035888671875	-1.018524169921875	9.788094937133788	0.5003881469726562	0.10295067138671875	1.026153564453125	-5.191802978515625	-2.948760986328125	10.008960040283203	0.21727380065917967	-0.3124433166503906	3.448486328125	-4.7149658203125	-2.38800048828125	
103	0.41200000000000003	0.0	0.0	0.0	0.0	0.003	0.003	0.006	0.003	9.910199221801758	0.21428104858398436	0.009576806640625	2.6092529296875	-3.780364990234375	-1.049041748046875	9.80605144958496	0.5728127471923827	0.08918401184082031	1.0986328125	-4.978179931640625	-2.971649169921875	10.040084661865233	0.28969840087890625	-0.34117373657226563	3.391265869140625	-4.31060791015625	-2.178192138671875	
104	0.41600000000000004	0.0	0.0	0.0	0.0	0.003	0.006	0.003	0.006	9.907206469726562	0.20051438903808594	0.017357962036132813	2.62451171875	-3.559112548828125	-0.942230224609375	9.797073193359374	0.5871779571533203	0.12389993591308593	0.77056884765625	-4.871368408203125	-2.834320068359375	10.044274514770507	0.30047230834960936	-0.3124433166503906	3.360748291015625	-4.46319580078125	-2.13623046875	
105	0.42	0.0	0.0	0.0	0.0	0.006	0.006	0.006	0.003	9.865906491088866	0.16160861206054686	0.029328970336914062	2.620697021484375	-3.54766845703125	-0.9307861328125	9.771934075927733	0.5009866973876953	0.11851298217773437	0.579833984375	-4.9591064453125	-3.070831298828125	9.999383233642577	0.22685060729980466	-0.2932897033691406	3.429412841796875	-4.58526611328125	-2.197265625	
106	0.424	0.0	0.0	0.0	0.0	0.003	0.006	0.006	0.003	9.849147079467773	0.16340426330566404	0.016160861206054686	2.55584716796875	-3.73077392578125	-1.102447509765625	9.7683427734375	0.535702621459961	0.1227028350830078	0.95367431640625	-4.940032958984375	-2.960205078125	10.001777435302733	0.2501940734863281	-0.2920926025390625	3.322601318359375	-4.55474853515625	-2.3040771484375	
107	0.428	0.0	0.0	0.0	0.0	0.003	0.003	0.003	0.003	9.840168823242188	0.17118541870117188	0.015562310791015624	2.628326416015625	-3.70025634765625	-0.9002685546875	9.752780462646484	0.5315127685546874	0.13347674255371092	0.7781982421875	-5.126953125	-3.02886962890625	9.989207876586914	0.2549824768066406	-0.25797522888183594	3.5400390625	-4.573822021484375	-2.071380615234375	
108	0.432	0.0	0.0	0.0	0.0	0.003	0.006	0.006	0.006	9.854534033203125	0.13766659545898435	0.040102877807617184	2.3956298828125	-3.692626953125	-0.8392333984375	9.762955819702148	0.47704468078613277	0.16280571289062498	0.79345703125	-5.046844482421875	-2.86102294921875	9.996989031982421	0.1975216369628906	-0.22206220397949217	3.48663330078125	-4.47845458984375	-2.300262451171875	
109	0.436	0.0	0.0	0.0	0.0	0.009000000000000001	0.006	0.006	0.003	9.871891995239258	0.14245499877929688	0.02693476867675781	2.361297607421875	-3.63922119140625	-0.820159912109375	9.79348189086914	0.5105635040283203	0.1514332550048828	0.6866455078125	-4.93621826171875	-3.017425537109375	10.041281762695311	0.24600422058105467	-0.22505495605468748	3.5400390625	-4.69207763671875	-2.25067138671875	
110	0.44	0.0	0.0	0.0	0.0	0.006	0.006	0.006	0.003	9.873687646484374	0.14006079711914063	0.030526071166992186	2.3956298828125	-3.56292724609375	-0.843048095703125	9.794678991699218	0.5063736511230469	0.16519991455078123	1.018524169921875	-5.069732666015625	-2.872467041015625	10.029310754394531	0.23582886352539062	-0.21727380065917967	3.826141357421875	-4.547119140625	-2.162933349609375	
111	0.444	0.0	0.0	0.0	0.0	0.003	0.003	0.006	0.003	9.840168823242188	0.1304839904785156	0.05386953735351562	2.37274169921875	-3.429412841796875	-0.904083251953125	9.757568865966796	0.46028526916503903	0.18315642700195311	0.96893310546875	-4.90570068359375	-2.849578857421875	9.987412225341796	0.1867477294921875	-0.20290859069824219	3.57818603515625	-4.5013427734375	-2.193450927734375	
112	0.448	0.0	0.0	0.0	0.0	0.003	0.006	0.006	0.003	9.862315188598632	0.1292868896484375	0.055066638183593745	2.796173095703125	-3.818511962890625	-0.919342041015625	9.758167416381836	0.49799394531249996	0.1897404815673828	0.782012939453125	-4.913330078125	-3.063201904296875	10.002974536132811	0.2280477081298828	-0.21188684692382811	3.559112548828125	-4.486083984375	-2.23541259765625	
113	0.452	0.0	0.0	0.0	0.0	0.003	0.003	0.006	0.006	9.882067352294921	0.12629413757324218	0.058657940673828124	2.681732177734375	-3.696441650390625	-1.056671142578125	9.791087689208984	0.4991910461425781	0.17238251953125	0.858306884765625	-5.126953125	-2.7618408203125	10.029310754394531	0.23223756103515625	-0.2136824981689453	3.5400390625	-4.5166015625	-2.34222412109375	
114	0.456	0.0	0.0	0.0	0.0	-0.003	0.006	0.003	0.003	9.886855755615233	0.11731588134765625	0.07601590270996093	2.620697021484375	-3.48663330078125	-0.8697509765625	9.801861596679688	0.4722562774658203	0.19033903198242186	0.946044921875	-4.940032958984375	-3.040313720703125	10.032902056884765	0.1897404815673828	-0.2041056915283203	3.620147705078125	-4.60052490234375	-2.09808349609375	
115	0.46	0.0	0.0	0.0	0.0	0.006	0.003	0.003	0.006	9.888651406860351	0.12090718383789062	0.07122749938964844	2.483367919921875	-3.665924072265625	-0.675201416015625	9.792284790039062	0.489015689086914	0.1867477294921875	0.980377197265625	-5.07354736328125	-2.880096435546875	10.025719451904296	0.20649989318847656	-0.2166752502441406	3.803253173828125	-4.825592041015625	-2.1209716796875	
116	0.464	0.0	0.0	0.0	0.0	0.003	0.003	0.006	0.003	9.87668039855957	0.10594342346191406	0.06703764648437499	2.452850341796875	-3.543853759765625	-0.91552734375	9.791087689208984	0.4608838195800781	0.18914193115234373	1.262664794921875	-5.207061767578125	-3.124237060546875	10.006565838623047	0.20290859069824219	-0.23044190979003906	3.604888916015625	-4.3792724609375	-1.983642578125	
117	0.468	0.0	0.0	0.0	0.0	0.003	0.003	0.003	0.006	9.852139831542969	0.076614453125	0.07422025146484375	2.544403076171875	-3.5247802734375	-0.79345703125	9.770736975097655	0.41419688720703124	0.1927332336425781	1.0833740234375	-5.07354736328125	-2.895355224609375	9.992799179077148	0.16160861206054686	-0.20949264526367187	3.7384033203125	-4.58526611328125	-2.22015380859375	
118	0.47200000000000003	0.0	0.0	0.0	0.0	0.006	0.006	0.006	0.006	9.85094273071289	0.07841010437011718	0.09816226806640624	2.536773681640625	-3.482818603515625	-0.896453857421875	9.776123928833007	0.42796354675292964	0.21428104858398436	1.102447509765625	-4.901885986328125	-3.086090087890625	10.00417163696289	0.16639701538085935	-0.20949264526367187	3.6773681640625	-4.43267822265625	-2.349853515625	
119	0.47600000000000003	0.0	0.0	0.0	0.0	0.006	0.003	0.003	0.003	9.875483297729492	0.07781155395507812	0.09636661682128905	2.292633056640625	-3.60107421875	-0.99945068359375	9.788693487548828	0.42437224426269526	0.19153613281249998	1.010894775390625	-4.94384765625	-3.04412841796875	10.022726699829102	0.17058686828613281	-0.2059013427734375	3.59344482421875	-4.467010498046875	-2.044677734375	
120	0.48	0.0	0.0	0.0	0.0	0.006	0.003	0.003	0.003	9.875483297729492	0.04908113403320312	0.09935936889648436	2.437591552734375	-3.871917724609375	-1.0986328125	9.79348189086914	0.3902548706054687	0.20350714111328125	1.12152099609375	-5.069732666015625	-2.925872802734375	10.034099157714843	0.11671733093261719	-0.21188684692382811	3.376007080078125	-4.53948974609375	-2.09808349609375	
121	0.484	0.0	0.0	0.0	0.0	0.003	0.003	0.006	0.003	9.86291373901367	0.05327098693847656	0.11432312927246092	2.47955322265625	-3.631591796875	-0.957489013671875	9.78629928588867	0.3890577697753906	0.22086510314941404	0.926971435546875	-5.22613525390625	-2.880096435546875	10.016142645263672	0.12150573425292968	-0.19333178405761717	3.673553466796875	-4.608154296875	-2.193450927734375	
122	0.488	0.0	0.0	0.0	0.0	0.006	0.006	0.003	0.003	9.850344180297851	0.04668693237304687	0.10175357055664062	2.559661865234375	-3.68499755859375	-1.007080078125	9.776722479248047	0.39264907226562495	0.19572598571777342	1.094818115234375	-5.008697509765625	-2.90679931640625	10.002974536132811	0.1304839904785156	-0.19333178405761717	3.4942626953125	-4.608154296875	-2.197265625	
123	0.492	0.0	0.0	0.0	0.0	0.006	0.003	0.003	0.006	9.859920986938477	0.034715924072265626	0.105344873046875	2.529144287109375	-3.742218017578125	-0.942230224609375	9.780912332153319	0.3794809631347656	0.19871873779296872	0.83160400390625	-5.107879638671875	-2.796173095703125	10.015544094848632	0.10953472595214843	-0.18854338073730467	3.711700439453125	-4.627227783203125	-2.41851806640625	
124	0.496	0.0	0.0	0.0	0.0	0.006	0.006	0.003	0.003	9.875483297729492	0.034715924072265626	0.12210428466796874	2.422332763671875	-3.543853759765625	-0.885009765625	9.785700735473633	0.3860650177001953	0.21487959899902342	0.762939453125	-5.08880615234375	-3.31878662109375	10.035296258544921	0.11372457885742186	-0.17357962036132812	3.5858154296875	-4.436492919921875	-2.300262451171875	
125	0.5	0.0	0.0	0.0	0.0	0.003	0.003	0.003	0.006	9.88386300354004	0.03890577697753906	0.10893617553710937	2.826690673828125	-3.8299560546875	-0.865936279296875	9.791087689208984	0.39324762268066404	0.22744915771484372	1.026153564453125	-5.1422119140625	-3.025054931640625	10.041281762695311	0.12389993591308593	-0.16759411621093748	3.391265869140625	-4.573822021484375	-2.193450927734375	
126	0.504	0.0	0.0	0.0	0.0	0.003	0.003	0.006	0.003	9.882067352294921	0.03950432739257812	0.09217676391601562	2.475738525390625	-3.54766845703125	-0.77056884765625	9.79408044128418	0.3962403747558593	0.201112939453125	0.9307861328125	-4.917144775390625	-2.9754638671875	10.016142645263672	0.12210428466796874	-0.17956512451171874	3.265380859375	-4.413604736328125	-2.178192138671875	
127	0.508	0.0	0.0	0.0	0.0	0.006	0.003	0.003	0.003	9.868899243164062	0.03591302490234375	0.10354922180175781	2.63214111328125	-3.963470458984375	-0.827789306640625	9.783306533813477	0.3842693664550781	0.2136824981689453	1.010894775390625	-4.993438720703125	-2.834320068359375	10.016142645263672	0.1292868896484375	-0.17298106994628906	3.726959228515625	-4.82177734375	-2.231597900390625	
128	0.512	0.0	0.0	0.0	0.0	0.006	0.003	0.006	0.006	9.85752678527832	0.034715924072265626	0.09756371765136718	2.552032470703125	-3.631591796875	-0.957489013671875	9.77432827758789	0.3938461730957031	0.21487959899902342	0.96893310546875	-4.95147705078125	-2.899169921875	10.007762939453125	0.12090718383789062	-0.16998831787109375	3.520965576171875	-4.703521728515625	-2.254486083984375	
129	0.516	0.0	0.0	0.0	0.0	0.003	0.003	0.003	0.003	9.874884747314452	0.0526724365234375	0.08439560852050781	2.437591552734375	-3.83758544921875	-0.74005126953125	9.78031378173828	0.40880993347167965	0.19871873779296872	0.568389892578125	-4.764556884765625	-2.902984619140625	10.011354241943359	0.14963760375976562	-0.1927332336425781	3.490447998046875	-4.6539306640625	-1.94549560546875	
130	0.52	0.0	0.0	0.0	0.0	0.006	0.006	0.003	0.006	9.87608184814453	0.06464344482421874	0.07003039855957031	2.532958984375	-3.635406494140625	-0.713348388671875	9.785102185058593	0.4255693450927734	0.18076222534179687	0.9307861328125	-4.7454833984375	-2.918243408203125	10.018536846923828	0.15263035583496093	-0.1927332336425781	3.795623779296875	-4.619598388671875	-2.38037109375	
131	0.524	0.0	0.0	0.0	0.0	0.006	0.006	0.003	0.003	9.8694977935791	0.08259995727539061	0.055066638183593745	2.95257568359375	-3.7689208984375	-0.934600830078125	9.785700735473633	0.4285620971679687	0.19512743530273435	0.8392333984375	-5.07354736328125	-3.047943115234375	10.02332525024414	0.15382745666503905	-0.21248539733886718	3.7384033203125	-4.4097900390625	-2.28118896484375	
132	0.528	0.0	0.0	0.0	0.0	0.003	0.003	0.006	0.006	9.867103591918944	0.09277531433105468	0.05027823486328125	2.696990966796875	-3.89862060546875	-0.89263916015625	9.78031378173828	0.4531026641845703	0.17118541870117188	1.132965087890625	-5.138397216796875	-3.154754638671875	10.014945544433592	0.18255787658691405	-0.2262520568847656	3.4027099609375	-4.4097900390625	-2.1820068359375	
133	0.532	0.0	0.0	0.0	0.0	0.0	0.003	0.003	0.003	9.858125335693359	0.12030863342285156	0.03950432739257812	2.536773681640625	-3.73077392578125	-0.667572021484375	9.776123928833007	0.47884033203125	0.1657984649658203	0.926971435546875	-4.726409912109375	-3.025054931640625	10.005368737792969	0.201112939453125	-0.22385785522460935	3.70025634765625	-4.413604736328125	-2.09808349609375	
134	0.536	0.0	0.0	0.0	0.0	0.003	0.003	0.003	0.006	9.868300692749022	0.12808978881835936	0.04668693237304687	2.674102783203125	-3.841400146484375	-0.8392333984375	9.78629928588867	0.4836287353515625	0.14484920043945312	1.102447509765625	-4.9896240234375	-3.12042236328125	10.014945544433592	0.20530279235839843	-0.2657563842773437	3.871917724609375	-4.444122314453125	-2.239227294921875	
135	0.54	0.0	0.0	0.0	0.0	0.003	0.003	0.003	0.006	9.889249957275391	0.1562216583251953	0.031124621582031248	2.66265869140625	-3.757476806640625	-0.888824462890625	9.791087689208984	0.5057751007080078	0.13467384338378904	0.72479248046875	-4.95147705078125	-2.90679931640625	10.020931048583984	0.239420166015625	-0.2855085479736328	3.490447998046875	-4.535675048828125	-2.338409423828125	
136	0.544	0.0	0.0	0.0	0.0	0.006	0.006	0.003	0.006	9.885658654785155	0.17896657409667968	0.018555062866210937	2.70843505859375	-3.73077392578125	-0.95367431640625	9.791087689208984	0.5422866760253906	0.12389993591308593	0.81634521484375	-5.207061767578125	-2.887725830078125	10.037091909790039	0.2693476867675781	-0.2962824554443359	3.566741943359375	-4.45556640625	-2.124786376953125	
137	0.548	0.0	0.0	0.0	0.0	0.003	0.003	0.006	0.006	9.88266590270996	0.17118541870117188	0.016759411621093748	2.46429443359375	-3.574371337890625	-1.06048583984375	9.789890588378906	0.5374982727050781	0.12868833923339842	0.9613037109375	-5.031585693359375	-3.101348876953125	10.022128149414062	0.25438392639160157	-0.2867056488037109	3.6468505859375	-4.573822021484375	-2.086639404296875	
138	0.552	0.0	0.0	0.0	0.0	0.006	0.006	0.003	0.006	9.867702142333984	0.17058686828613281	0.015562310791015624	2.63214111328125	-3.910064697265625	-0.988006591796875	9.778518130493163	0.535702621459961	0.12689268798828124	0.93841552734375	-5.176544189453125	-2.9144287109375	10.020332498168944	0.2567781280517578	-0.2932897033691406	3.662109375	-4.520416259765625	-2.384185791015625	
139	0.556	0.0	0.0	0.0	0.0	0.003	0.003	0.006	0.006	9.871891995239258	0.17836802368164062	-0.004189852905273437	2.532958984375	-3.875732421875	-0.850677490234375	9.77432827758789	0.546476528930664	0.11372457885742186	0.789642333984375	-4.833221435546875	-2.826690673828125	10.012551342773437	0.2813186950683594	-0.28790274963378903	3.36456298828125	-4.482269287109375	-2.239227294921875	
140	0.56	0.0	0.0	0.0	0.0	0.003	0.006	0.006	0.003	9.866505041503906	0.17597382202148437	0.017357962036132813	2.6092529296875	-3.7078857421875	-1.003265380859375	9.767145672607422	0.5339069702148437	0.11432312927246092	0.762939453125	-5.001068115234375	-3.055572509765625	10.01674119567871	0.2693476867675781	-0.2765302917480469	3.658294677734375	-4.63104248046875	-2.269744873046875	
141	0.5640000000000001	0.0	0.0	0.0	0.0	0.0	0.003	0.006	0.003	9.873687646484374	0.17417817077636719	0.016160861206054686	2.391815185546875	-4.0130615234375	-0.9918212890625	9.782109432983399	0.5291185668945312	0.12808978881835936	0.946044921875	-5.0048828125	-3.055572509765625	10.01733974609375	0.2615665313720703	-0.2747346405029297	3.437042236328125	-4.627227783203125	-2.147674560546875	
142	0.5680000000000001	0.0	0.0	0.0	0.0	0.003	0.003	0.003	0.006	9.873089096069336	0.1867477294921875	0.002992752075195312	2.651214599609375	-3.68499755859375	-0.926971435546875	9.784503634643555	0.5434837768554687	0.11731588134765625	0.942230224609375	-4.7607421875	-2.96783447265625	10.025120901489258	0.2699462371826172	-0.2759317413330078	3.60107421875	-4.6234130859375	-2.231597900390625	
143	0.5720000000000001	0.0	0.0	0.0	0.0	0.003	0.003	0.003	0.003	9.867702142333984	0.17477672119140625	0.01975216369628906	2.70843505859375	-3.72314453125	-0.78582763671875	9.788693487548828	0.5303156677246094	0.1352723937988281	1.16729736328125	-5.138397216796875	-2.948760986328125	10.011354241943359	0.2651578338623047	-0.26396073303222656	3.74603271484375	-4.66156005859375	-2.3651123046875	
144	0.5760000000000001	0.0	0.0	0.0	0.0	0.006	0.003	0.003	0.006	9.867103591918944	0.16879121704101563	0.025139117431640625	2.498626708984375	-3.452301025390625	-0.766754150390625	9.78031378173828	0.5201403106689453	0.1304839904785156	0.667572021484375	-4.726409912109375	-2.826690673828125	10.01015714111328	0.24779987182617186	-0.258573779296875	3.6468505859375	-4.53948974609375	-2.262115478515625	
145	0.58	0.0	0.0	0.0	0.0	0.006	0.003	0.003	0.003	9.874286196899414	0.17238251953125	0.020949264526367185	2.574920654296875	-3.89862060546875	-1.07574462890625	9.790489138793944	0.5207388610839844	0.14245499877929688	0.896453857421875	-4.962921142578125	-2.948760986328125	10.029310754394531	0.2597708801269531	-0.26336218261718747	3.345489501953125	-4.45556640625	-2.18963623046875	
146	0.584	0.0	0.0	0.0	0.0	0.006	0.006	0.003	0.003	9.885658654785155	0.15981296081542967	0.022744915771484374	2.696990966796875	-3.566741943359375	-0.83160400390625	9.792284790039062	0.5219359619140624	0.15382745666503905	1.01470947265625	-4.7149658203125	-3.063201904296875	10.035296258544921	0.24959552307128904	-0.25917232971191406	3.597259521484375	-4.611968994140625	-2.105712890625	
147	0.588	0.0	0.0	0.0	0.0	0.0	0.003	0.003	0.003	9.883264453125	0.14305354919433594	0.022744915771484374	2.410888671875	-3.528594970703125	-0.873565673828125	9.785102185058593	0.5087678527832031	0.15322890625	1.026153564453125	-4.82940673828125	-2.994537353515625	10.037091909790039	0.229843359375	-0.2454056701660156	3.772735595703125	-4.63104248046875	-2.288818359375	
148	0.592	0.0	0.0	0.0	0.0	0.006	0.003	0.003	0.003	9.868899243164062	0.13826514587402344	0.029328970336914062	2.315521240234375	-3.631591796875	-0.8087158203125	9.776722479248047	0.4961982940673828	0.14245499877929688	1.308441162109375	-5.039215087890625	-3.19671630859375	10.01075569152832	0.22086510314941404	-0.2549824768066406	3.826141357421875	-4.57763671875	-2.34222412109375	
149	0.596	0.0	0.0	0.0	0.0	0.003	0.006	0.003	0.003	9.85752678527832	0.12210428466796874	0.044292730712890624	2.468109130859375	-3.4637451171875	-0.850677490234375	9.769539874267577	0.4782417816162109	0.14724340209960937	1.132965087890625	-4.795074462890625	-2.933502197265625	10.004770187377929	0.20051438903808594	-0.2472013214111328	3.6773681640625	-4.558563232421875	-2.1514892578125	
150	0.6	0.0	0.0	0.0	0.0	0.003	0.003	0.006	0.006	9.854534033203125	0.10115502014160156	0.05027823486328125	2.635955810546875	-3.597259521484375	-1.04522705078125	9.769539874267577	0.46028526916503903	0.15502455749511718	0.762939453125	-4.695892333984375	-2.81524658203125	9.996989031982421	0.19033903198242186	-0.23523031311035156	3.48663330078125	-4.566192626953125	-2.346038818359375	
151	0.604	0.0	0.0	0.0	0.0	0.006	0.003	0.006	0.003	9.866505041503906	0.1005564697265625	0.03411737365722656	2.536773681640625	-3.826141357421875	-1.01470947265625	9.791087689208984	0.45549686584472654	0.16041151123046873	0.911712646484375	-4.8828125	-3.143310546875	10.014945544433592	0.17657237243652343	-0.239420166015625	3.63922119140625	-4.4403076171875	-2.1514892578125	
152	0.608	0.0	0.0	0.0	0.0	0.003	0.003	0.003	0.003	9.87608184814453	0.08379705810546874	0.05746083984375	2.819061279296875	-3.856658935546875	-0.7781982421875	9.785102185058593	0.44592005920410155	0.16340426330566404	0.762939453125	-4.756927490234375	-3.040313720703125	10.02332525024414	0.17836802368164062	-0.24121581726074218	3.60870361328125	-4.596710205078125	-2.3345947265625	
153	0.612	0.0	0.0	0.0	0.0	0.006	0.006	0.006	0.003	9.865906491088866	0.08140285644531249	0.06584054565429687	2.719879150390625	-3.620147705078125	-1.064300537109375	9.788094937133788	0.43155484924316406	0.17118541870117188	0.7476806640625	-4.886627197265625	-2.9449462890625	10.01733974609375	0.1693897674560547	-0.23702596435546874	3.7384033203125	-4.81414794921875	-2.071380615234375	
154	0.616	0.0	0.0	0.0	0.0	0.006	0.003	0.003	0.006	9.866505041503906	0.06584054565429687	0.08140285644531249	2.468109130859375	-3.5552978515625	-0.89263916015625	9.785700735473633	0.4261678955078125	0.17657237243652343	0.934600830078125	-5.046844482421875	-2.7313232421875	10.008960040283203	0.14784195251464843	-0.23403321228027343	3.5247802734375	-4.611968994140625	-2.37274169921875	
155	0.62	0.0	0.0	0.0	0.0	0.006	0.003	0.003	0.006	9.868300692749022	0.059256491088867186	0.07841010437011718	2.643585205078125	-3.704071044921875	-0.89263916015625	9.788693487548828	0.4129997863769531	0.1801636749267578	0.8544921875	-4.98199462890625	-2.895355224609375	10.012551342773437	0.1484405029296875	-0.2262520568847656	3.505706787109375	-4.53948974609375	-2.231597900390625	
156	0.624	0.0	0.0	0.0	0.0	0.006	0.003	0.003	0.003	9.881468801879882	0.044891281127929686	0.08439560852050781	2.521514892578125	-3.673553466796875	-0.90789794921875	9.785102185058593	0.4082113830566406	0.18734627990722655	0.820159912109375	-4.82940673828125	-2.956390380859375	10.02332525024414	0.13168109130859373	-0.2154781494140625	3.37982177734375	-4.37164306640625	-2.094268798828125	
157	0.628	0.0	0.0	0.0	0.0	0.006	0.003	0.006	0.006	9.879673150634765	0.03890577697753906	0.08559270935058594	2.559661865234375	-3.620147705078125	-0.690460205078125	9.789890588378906	0.3896563201904297	0.19632453613281248	0.92315673828125	-5.046844482421875	-3.0364990234375	10.026318002319336	0.11911153259277343	-0.20171148986816406	3.543853759765625	-4.4403076171875	-2.368927001953125	
158	0.632	0.0	0.0	0.0	0.0	0.006	0.003	0.003	0.003	9.875483297729492	0.03890577697753906	0.08439560852050781	2.593994140625	-3.6773681640625	-1.07574462890625	9.777919580078125	0.3848679168701172	0.19572598571777342	0.9002685546875	-5.02777099609375	-2.910614013671875	10.01733974609375	0.11073182678222655	-0.19692308654785154	3.711700439453125	-4.383087158203125	-2.231597900390625	
159	0.636	0.0	0.0	0.0	0.0	0.006	0.006	0.006	0.003	9.85752678527832	0.02154781494140625	0.08200140686035155	2.483367919921875	-3.711700439453125	-0.93841552734375	9.775525378417969	0.38187516479492184	0.2088940948486328	1.068115234375	-5.008697509765625	-2.99835205078125	10.01075569152832	0.10235212097167969	-0.1771709228515625	3.582000732421875	-4.5318603515625	-1.97601318359375	
160	0.64	0.0	0.0	0.0	0.0	0.003	0.003	0.003	0.006	9.866505041503906	0.016759411621093748	0.09277531433105468	2.54058837890625	-3.44085693359375	-1.0833740234375	9.770138424682617	0.37289690856933594	0.2166752502441406	0.705718994140625	-4.924774169921875	-3.07464599609375	10.004770187377929	0.10235212097167969	-0.17118541870117188	3.68499755859375	-4.512786865234375	-2.23541259765625	
161	0.644	0.0	0.0	0.0	0.0	0.006	0.006	0.003	0.006	9.86291373901367	0.029328970336914062	0.09636661682128905	2.582550048828125	-3.89862060546875	-0.9613037109375	9.773131176757811	0.3890577697753906	0.21487959899902342	0.843048095703125	-5.04302978515625	-2.92205810546875	10.01015714111328	0.11611878051757812	-0.17956512451171874	3.68499755859375	-4.57000732421875	-2.285003662109375	
162	0.648	0.0	0.0	0.0	0.0	0.003	0.006	0.006	0.003	9.877877499389648	0.03950432739257812	0.09337386474609374	2.66265869140625	-3.726959228515625	-0.823974609375	9.787496386718749	0.39983167724609375	0.20530279235839843	0.995635986328125	-4.98199462890625	-3.131866455078125	10.020332498168944	0.12988544006347655	-0.1801636749267578	3.6468505859375	-4.72259521484375	-2.1820068359375	
163	0.652	0.0	0.0	0.0	0.0	0.006	0.003	0.006	0.003	9.878476049804688	0.05566518859863281	0.08858546142578125	2.46429443359375	-3.53240966796875	-0.926971435546875	9.792284790039062	0.3938461730957031	0.20231004028320312	0.865936279296875	-4.894256591796875	-3.08990478515625	10.02332525024414	0.1274912384033203	-0.18734627990722655	3.59344482421875	-4.61578369140625	-2.25067138671875	
164	0.656	0.0	0.0	0.0	0.0	0.003	0.006	0.003	0.006	9.858125335693359	0.06464344482421874	0.086191259765625	2.7313232421875	-3.66973876953125	-0.90789794921875	9.78031378173828	0.40940848388671874	0.20769699401855468	1.06048583984375	-4.791259765625	-2.872467041015625	10.016142645263672	0.15203180541992187	-0.20470424194335937	3.74603271484375	-4.93621826171875	-2.292633056640625	
165	0.66	0.0	0.0	0.0	0.0	0.006	0.003	0.003	0.006	9.867702142333984	0.07302315063476562	0.08918401184082031	2.651214599609375	-3.5858154296875	-0.766754150390625	9.783306533813477	0.4261678955078125	0.20171148986816406	0.96893310546875	-5.107879638671875	-2.872467041015625	10.00955859069824	0.15382745666503905	-0.19572598571777342	3.490447998046875	-4.489898681640625	-1.972198486328125	
166	0.664	0.0	0.0	0.0	0.0	0.006	0.006	0.003	0.006	9.873089096069336	0.08499415893554688	0.08678981018066406	2.613067626953125	-3.7689208984375	-0.8544921875	9.77432827758789	0.4381389038085937	0.19871873779296872	1.010894775390625	-4.974365234375	-2.99072265625	10.016142645263672	0.16460136413574217	-0.20709844360351562	3.41796875	-4.69207763671875	-2.227783203125	
167	0.668	0.0	0.0	0.0	0.0	0.009000000000000001	0.003	0.003	0.003	9.871891995239258	0.10474632263183593	0.07422025146484375	2.62451171875	-3.734588623046875	-0.919342041015625	9.789890588378906	0.4429273071289062	0.1867477294921875	0.766754150390625	-5.069732666015625	-2.979278564453125	10.019135397338866	0.19572598571777342	-0.2232593048095703	3.74603271484375	-4.608154296875	-2.216339111328125	
168	0.672	0.0	0.0	0.0	0.0	0.003	0.003	0.003	0.003	9.868899243164062	0.11671733093261719	0.08499415893554688	2.62451171875	-4.06646728515625	-1.007080078125	9.78689783630371	0.4632780212402344	0.17058686828613281	1.026153564453125	-5.07354736328125	-2.86102294921875	10.022128149414062	0.20051438903808594	-0.22445640563964842	3.627777099609375	-4.550933837890625	-2.140045166015625	
169	0.676	0.0	0.0	0.0	0.0	0.003	0.006	0.006	0.003	9.865307940673828	0.12509703674316405	0.07062894897460938	2.674102783203125	-3.95965576171875	-0.797271728515625	9.791087689208984	0.489015689086914	0.1657984649658203	0.89263916015625	-4.6844482421875	-3.02886962890625	10.008361489868163	0.20530279235839843	-0.24301146850585936	3.742218017578125	-4.7454833984375	-2.147674560546875	
170	0.68	0.0	0.0	0.0	0.0	0.003	0.006	0.003	0.003	9.866505041503906	0.14245499877929688	0.059256491088867186	2.655029296875	-3.631591796875	-1.049041748046875	9.784503634643555	0.4914098907470703	0.16340426330566404	1.178741455078125	-5.283355712890625	-3.162384033203125	10.011952792358398	0.22266075439453123	-0.24959552307128904	3.559112548828125	-4.604339599609375	-1.96075439453125	
171	0.684	0.0	0.0	0.0	0.0	0.003	0.003	0.003	0.006	9.872490545654296	0.1484405029296875	0.06105214233398437	2.6702880859375	-3.5858154296875	-0.949859619140625	9.778518130493163	0.5063736511230469	0.16220716247558592	1.13677978515625	-5.05828857421875	-2.979278564453125	10.015544094848632	0.24121581726074218	-0.25258827514648435	3.765106201171875	-4.7607421875	-2.140045166015625	
172	0.6880000000000001	0.0	0.0	0.0	0.0	0.003	0.003	0.003	0.003	9.867103591918944	0.16639701538085935	0.05027823486328125	2.529144287109375	-3.7384033203125	-1.033782958984375	9.784503634643555	0.5201403106689453	0.1592144104003906	0.896453857421875	-4.72259521484375	-3.025054931640625	10.015544094848632	0.25258827514648435	-0.25258827514648435	3.33404541015625	-4.5928955078125	-2.1209716796875	
173	0.6920000000000001	0.0	0.0	0.0	0.0	0.009000000000000001	0.003	0.006	0.003	9.871891995239258	0.1693897674560547	0.052073886108398436	2.513885498046875	-3.71551513671875	-0.9918212890625	9.783306533813477	0.5291185668945312	0.1562216583251953	0.865936279296875	-5.184173583984375	-2.933502197265625	10.021529598999022	0.25438392639160157	-0.2537853759765625	3.7689208984375	-4.60052490234375	-2.3040771484375	
174	0.6960000000000001	0.0	0.0	0.0	0.0	0.003	0.003	0.003	0.006	9.87608184814453	0.17657237243652343	0.044292730712890624	2.498626708984375	-3.429412841796875	-1.01470947265625	9.777919580078125	0.5327098693847656	0.15442600708007811	0.79345703125	-4.680633544921875	-2.9449462890625	10.014945544433592	0.26396073303222656	-0.258573779296875	3.406524658203125	-4.32586669921875	-2.109527587890625	
175	0.7000000000000001	0.0	0.0	0.0	0.0	0.009000000000000001	0.003	0.006	0.003	9.867103591918944	0.18136077575683593	0.037708676147460936	2.803802490234375	-3.80706787109375	-0.942230224609375	9.779116680908203	0.5345055206298828	0.1484405029296875	1.01470947265625	-5.062103271484375	-2.8228759765625	10.016142645263672	0.2615665313720703	-0.24660277099609373	3.4637451171875	-4.589080810546875	-2.269744873046875	
176	0.704	0.0	0.0	0.0	0.0	0.003	0.006	0.003	0.003	9.86291373901367	0.1771709228515625	0.03651157531738281	2.513885498046875	-3.726959228515625	-0.782012939453125	9.7683427734375	0.5309142181396485	0.16041151123046873	0.980377197265625	-4.840850830078125	-3.032684326171875	10.01015714111328	0.2603694305419922	-0.2454056701660156	3.73077392578125	-4.5166015625	-2.185821533203125	
177	0.708	0.0	0.0	0.0	0.0	0.003	0.003	0.003	0.003	9.87009634399414	0.17477672119140625	0.0383072265625	2.628326416015625	-3.66973876953125	-0.789642333984375	9.767145672607422	0.536899722290039	0.15023615417480468	0.98419189453125	-4.917144775390625	-3.040313720703125	10.017938296508788	0.2549824768066406	-0.24121581726074218	3.925323486328125	-4.543304443359375	-2.13623046875	
178	0.712	0.0	0.0	0.0	0.0	0.003	0.006	0.003	0.003	9.871293444824218	0.17597382202148437	0.028730419921875	2.742767333984375	-3.681182861328125	-0.858306884765625	9.78031378173828	0.5392939239501953	0.1610100616455078	0.87738037109375	-4.8370361328125	-3.11279296875	10.01674119567871	0.2603694305419922	-0.2472013214111328	3.536224365234375	-4.474639892578125	-2.32696533203125	
179	0.716	0.0	0.0	0.0	0.0	0.006	0.006	0.003	0.006	9.871891995239258	0.16879121704101563	0.03232172241210937	2.773284912109375	-3.92913818359375	-0.9613037109375	9.787496386718749	0.5303156677246094	0.14604630126953125	0.988006591796875	-4.913330078125	-2.81524658203125	10.020931048583984	0.25917232971191406	-0.2442085693359375	3.60870361328125	-4.459381103515625	-2.00653076171875	
180	0.72	0.0	0.0	0.0	0.0	0.003	0.006	0.003	0.003	9.873089096069336	0.16160861206054686	0.03172317199707031	2.620697021484375	-3.997802734375	-0.858306884765625	9.775525378417969	0.5243301635742187	0.1640028137207031	0.934600830078125	-4.924774169921875	-3.05938720703125	10.019733947753906	0.2501940734863281	-0.24361001892089842	3.51715087890625	-4.520416259765625	-2.223968505859375	
181	0.724	0.0	0.0	0.0	0.0	0.003	0.003	0.006	0.0	9.867103591918944	0.15741875915527342	0.023343466186523436	2.582550048828125	-3.631591796875	-0.86212158203125	9.77432827758789	0.5183446594238281	0.15083470458984374	1.056671142578125	-4.94384765625	-2.8533935546875	10.008960040283203	0.24361001892089842	-0.24301146850585936	3.658294677734375	-4.611968994140625	-2.262115478515625	
182	0.728	0.0	0.0	0.0	0.0	0.003	0.006	0.006	0.006	9.874286196899414	0.14484920043945312	0.03950432739257812	2.605438232421875	-3.772735595703125	-0.720977783203125	9.780912332153319	0.5027823486328125	0.15502455749511718	0.90789794921875	-5.184173583984375	-3.032684326171875	10.022726699829102	0.2454056701660156	-0.24959552307128904	3.650665283203125	-4.673004150390625	-2.292633056640625	
183	0.732	0.0	0.0	0.0	0.0	0.0	0.006	0.003	0.003	9.871293444824218	0.14185644836425781	0.037110125732421874	2.498626708984375	-3.66973876953125	-0.86212158203125	9.791087689208984	0.5027823486328125	0.14425065002441406	0.995635986328125	-5.10406494140625	-3.208160400390625	10.017938296508788	0.23582886352539062	-0.25797522888183594	3.795623779296875	-4.7760009765625	-2.17437744140625	
184	0.736	0.0	0.0	0.0	0.0	0.003	0.003	0.006	0.003	9.87009634399414	0.13347674255371092	0.03651157531738281	2.51007080078125	-3.810882568359375	-1.0223388671875	9.783306533813477	0.4914098907470703	0.14245499877929688	0.881195068359375	-4.886627197265625	-2.925872802734375	10.031106405639648	0.22086510314941404	-0.2699462371826172	3.688812255859375	-4.37164306640625	-2.05230712890625	
185	0.74	0.0	0.0	0.0	0.0	0.003	0.006	0.003	0.006	9.868899243164062	0.12389993591308593	0.044292730712890624	2.655029296875	-3.467559814453125	-0.8392333984375	9.788094937133788	0.4752490295410156	0.1484405029296875	1.239776611328125	-5.123138427734375	-2.95257568359375	10.02392380065918	0.1975216369628906	-0.26276363220214843	3.284454345703125	-4.547119140625	-2.1514892578125	
186	0.744	0.0	0.0	0.0	0.0	0.003	0.006	0.003	0.003	9.860519537353515	0.10295067138671875	0.04908113403320312	2.521514892578125	-3.662109375	-0.9002685546875	9.779116680908203	0.4632780212402344	0.14245499877929688	1.10626220703125	-4.947662353515625	-3.040313720703125	10.015544094848632	0.1897404815673828	-0.258573779296875	3.50189208984375	-4.5928955078125	-2.391815185546875	
187	0.748	0.0	0.0	0.0	0.0	0.006	0.006	0.006	0.003	9.866505041503906	0.09157821350097656	0.04668693237304687	2.529144287109375	-3.72314453125	-0.95367431640625	9.789292037963866	0.4471171600341797	0.15322890625	1.049041748046875	-4.955291748046875	-2.979278564453125	10.007762939453125	0.17597382202148437	-0.25438392639160157	3.566741943359375	-4.64630126953125	-2.34222412109375	
188	0.752	0.0	0.0	0.0	0.0	0.003	0.003	0.003	0.006	9.868899243164062	0.08678981018066406	0.05327098693847656	2.635955810546875	-3.787994384765625	-0.751495361328125	9.789890588378906	0.4273649963378906	0.15322890625	0.827789306640625	-4.795074462890625	-2.765655517578125	10.01674119567871	0.17118541870117188	-0.24839842224121092	3.513336181640625	-4.489898681640625	-2.08282470703125	
189	0.756	0.0	0.0	0.0	0.0	0.006	0.003	0.006	0.006	9.87608184814453	0.07422025146484375	0.044891281127929686	2.51007080078125	-3.71551513671875	-0.92315673828125	9.788693487548828	0.42437224426269526	0.16998831787109375	0.896453857421875	-4.8370361328125	-3.02886962890625	10.019733947753906	0.1693897674560547	-0.23822306518554687	3.704071044921875	-4.596710205078125	-2.3040771484375	
190	0.76	0.0	0.0	0.0	0.0	0.003	0.003	0.006	0.003	9.867702142333984	0.058657940673828124	0.059256491088867186	2.536773681640625	-3.787994384765625	-1.102447509765625	9.788693487548828	0.41359833679199215	0.16160861206054686	0.835418701171875	-5.107879638671875	-3.017425537109375	10.014346994018554	0.15203180541992187	-0.23104046020507812	3.7689208984375	-4.405975341796875	-2.277374267578125	
191	0.764	0.0	0.0	0.0	0.0	0.003	0.006	0.006	0.003	9.867103591918944	0.054468087768554684	0.06105214233398437	2.7008056640625	-3.696441650390625	-0.812530517578125	9.787496386718749	0.40761283264160153	0.16160861206054686	0.95367431640625	-4.8370361328125	-2.8533935546875	10.011354241943359	0.1406593475341797	-0.23882161560058593	3.4637451171875	-4.52423095703125	-2.2735595703125	
192	0.768	0.0	0.0	0.0	0.0	0.003	0.003	0.003	0.003	9.880870251464843	0.040701428222656245	0.06883329772949218	2.536773681640625	-3.91387939453125	-0.926971435546875	9.785102185058593	0.3956418243408203	0.17477672119140625	1.110076904296875	-5.07354736328125	-3.13568115234375	10.019733947753906	0.12808978881835936	-0.2214636535644531	3.742218017578125	-4.581451416015625	-2.216339111328125	
193	0.772	0.0	0.0	0.0	0.0	0.009000000000000001	0.003	0.003	0.003	9.874286196899414	0.03651157531738281	0.07062894897460938	2.52532958984375	-3.444671630859375	-0.751495361328125	9.789292037963866	0.3854664672851562	0.18136077575683593	0.896453857421875	-4.947662353515625	-2.9754638671875	10.016142645263672	0.1227028350830078	-0.21009119567871093	3.73077392578125	-4.734039306640625	-2.197265625	
194	0.776	0.0	0.0	0.0	0.0	0.003	0.003	0.006	0.006	9.867702142333984	0.032920272827148434	0.08140285644531249	2.41851806640625	-3.570556640625	-0.91552734375	9.791087689208984	0.3800795135498047	0.19692308654785154	0.78582763671875	-4.886627197265625	-2.941131591796875	10.013748443603514	0.12030863342285156	-0.20350714111328125	3.77655029296875	-4.69207763671875	-2.288818359375	
195	0.78	0.0	0.0	0.0	0.0	0.003	0.003	0.006	0.006	9.87009634399414	0.030526071166992186	0.07601590270996093	2.483367919921875	-3.88336181640625	-0.911712646484375	9.78629928588867	0.3842693664550781	0.19871873779296872	0.96893310546875	-4.7760009765625	-2.8839111328125	10.006565838623047	0.11911153259277343	-0.19393033447265623	3.68499755859375	-4.787445068359375	-2.197265625	
196	0.784	0.0	0.0	0.0	0.0	0.003	0.003	0.003	0.003	9.86411083984375	0.03651157531738281	0.08259995727539061	2.7008056640625	-3.753662109375	-1.079559326171875	9.785700735473633	0.3764882110595703	0.1897404815673828	0.873565673828125	-5.18798828125	-2.895355224609375	10.007762939453125	0.12689268798828124	-0.2059013427734375	3.696441650390625	-4.5928955078125	-2.1820068359375	
197	0.788	0.0	0.0	0.0	0.0	0.006	0.003	0.003	0.006	9.8694977935791	0.040102877807617184	0.08080430603027343	2.5177001953125	-3.631591796875	-1.026153564453125	9.781510882568359	0.3950432739257812	0.19093758239746092	0.988006591796875	-4.9591064453125	-3.055572509765625	10.016142645263672	0.12030863342285156	-0.19572598571777342	3.627777099609375	-4.520416259765625	-2.079010009765625	
198	0.792	0.0	0.0	0.0	0.0	0.006	0.003	0.006	0.006	9.865307940673828	0.03890577697753906	0.07601590270996093	2.498626708984375	-3.467559814453125	-1.0528564453125	9.787496386718749	0.3968389251708984	0.1945288848876953	0.70953369140625	-4.924774169921875	-2.99835205078125	10.016142645263672	0.13168109130859373	-0.19812018737792966	3.36456298828125	-4.459381103515625	-2.1514892578125	
199	0.796	0.0	0.0	0.0	0.0	0.003	0.006	0.003	0.006	9.871293444824218	0.054468087768554684	0.07781155395507812	2.43377685546875	-3.73077392578125	-0.904083251953125	9.792284790039062	0.4052186309814453	0.1897404815673828	0.91552734375	-4.878997802734375	-2.93731689453125	10.011354241943359	0.14125789794921875	-0.20949264526367187	3.665924072265625	-4.6539306640625	-2.349853515625	
200	0.8	0.0	0.0	0.0	0.0	0.006	0.003	0.006	0.003	9.871891995239258	0.06404489440917968	0.07422025146484375	2.452850341796875	-3.810882568359375	-0.820159912109375	9.789890588378906	0.4177881896972656	0.18435352783203124	0.644683837890625	-4.79888916015625	-2.971649169921875	10.020332498168944	0.1514332550048828	-0.23104046020507812	3.826141357421875	-4.92095947265625	-2.34222412109375	
201	0.804	0.0	0.0	0.0	0.0	0.003	0.003	0.003	0.006	9.878476049804688	0.08259995727539061	0.07422025146484375	2.460479736328125	-3.696441650390625	-0.965118408203125	9.783905084228515	0.4339490509033203	0.17956512451171874	1.02996826171875	-4.848480224609375	-2.86865234375	10.01075569152832	0.15981296081542967	-0.21906945190429686	3.6468505859375	-4.550933837890625	-2.246856689453125	
202	0.808	0.0	0.0	0.0	0.0	0.006	0.006	0.006	0.003	9.873089096069336	0.09337386474609374	0.08140285644531249	2.55584716796875	-3.68499755859375	-0.865936279296875	9.785102185058593	0.45070846252441404	0.17118541870117188	1.007080078125	-4.688262939453125	-2.716064453125	10.016142645263672	0.17298106994628906	-0.2292448089599609	3.5247802734375	-4.6539306640625	-2.3345947265625	
203	0.812	0.0	0.0	0.0	0.0	0.003	0.003	0.003	0.006	9.873687646484374	0.10175357055664062	0.0718260498046875	2.620697021484375	-3.673553466796875	-0.885009765625	9.77432827758789	0.45669396667480466	0.17118541870117188	1.056671142578125	-5.13458251953125	-2.895355224609375	10.022128149414062	0.19572598571777342	-0.22445640563964842	3.787994384765625	-4.63104248046875	-2.2125244140625	
204	0.8160000000000001	0.0	0.0	0.0	0.0	0.006	0.006	0.006	0.006	9.87727894897461	0.11611878051757812	0.06823474731445311	2.506256103515625	-3.711700439453125	-1.071929931640625	9.779715231323241	0.46686932373046874	0.16879121704101563	0.75531005859375	-5.13458251953125	-2.899169921875	10.026916552734374	0.20350714111328125	-0.22385785522460935	3.612518310546875	-4.5013427734375	-2.05230712890625	
205	0.8200000000000001	0.0	0.0	0.0	0.0	0.006	0.003	0.003	0.006	9.87009634399414	0.13347674255371092	0.07541735229492187	2.696990966796875	-3.631591796875	-0.946044921875	9.785700735473633	0.489015689086914	0.16879121704101563	0.86212158203125	-5.04302978515625	-2.98309326171875	10.029310754394531	0.2059013427734375	-0.23044190979003906	3.688812255859375	-4.638671875	-2.323150634765625	
206	0.8240000000000001	0.0	0.0	0.0	0.0	0.003	0.003	0.003	0.003	9.87608184814453	0.14784195251464843	0.07422025146484375	2.4261474609375	-3.60870361328125	-1.056671142578125	9.782707983398437	0.49799394531249996	0.17597382202148437	0.942230224609375	-4.9591064453125	-3.093719482421875	10.03050785522461	0.21607669982910155	-0.22445640563964842	3.82232666015625	-4.669189453125	-2.3651123046875	
207	0.8280000000000001	0.0	0.0	0.0	0.0	0.003	0.006	0.003	0.003	9.872490545654296	0.15023615417480468	0.07242460021972656	2.5634765625	-3.814697265625	-1.064300537109375	9.775525378417969	0.4961982940673828	0.17956512451171874	0.827789306640625	-5.06591796875	-3.032684326171875	10.02332525024414	0.2328361114501953	-0.22685060729980466	3.66973876953125	-4.650115966796875	-2.231597900390625	
208	0.8320000000000001	0.0	0.0	0.0	0.0	0.0	0.006	0.003	0.003	9.867103591918944	0.15083470458984374	0.07541735229492187	2.62451171875	-3.662109375	-0.904083251953125	9.763554370117188	0.5087678527832031	0.17836802368164062	0.812530517578125	-4.73785400390625	-2.93731689453125	10.025719451904296	0.23702596435546874	-0.23882161560058593	3.673553466796875	-4.795074462890625	-2.41851806640625	
209	0.836	0.0	0.0	0.0	0.0	0.003	0.003	0.003	0.003	9.867702142333984	0.15682020874023436	0.06045359191894531	2.6397705078125	-3.51715087890625	-0.957489013671875	9.770138424682617	0.5183446594238281	0.17417817077636719	0.843048095703125	-5.16510009765625	-3.0364990234375	10.014346994018554	0.2442085693359375	-0.23343466186523437	3.597259521484375	-4.459381103515625	-2.162933349609375	
210	0.84	0.0	0.0	0.0	0.0	0.009000000000000001	0.003	0.003	0.003	9.87668039855957	0.1610100616455078	0.05027823486328125	2.628326416015625	-3.814697265625	-0.598907470703125	9.770138424682617	0.5237316131591797	0.16699556579589842	0.579833984375	-4.79888916015625	-2.9754638671875	10.026916552734374	0.24480711975097655	-0.22864625854492185	3.551483154296875	-4.486083984375	-2.23541259765625	
211	0.844	0.0	0.0	0.0	0.0	0.003	0.006	0.003	0.003	9.87727894897461	0.16879121704101563	0.05566518859863281	2.864837646484375	-4.047393798828125	-1.01470947265625	9.781510882568359	0.5219359619140624	0.16759411621093748	0.926971435546875	-5.054473876953125	-2.777099609375	10.019733947753906	0.2537853759765625	-0.2232593048095703	3.65447998046875	-4.650115966796875	-2.285003662109375	
212	0.848	0.0	0.0	0.0	0.0	0.006	0.003	0.003	0.006	9.872490545654296	0.17118541870117188	0.055066638183593745	2.51007080078125	-3.536224365234375	-0.820159912109375	9.779116680908203	0.5249287139892578	0.16340426330566404	0.926971435546875	-4.848480224609375	-3.070831298828125	10.005967288208007	0.24899697265624998	-0.23403321228027343	3.6163330078125	-4.5623779296875	-2.292633056640625	
213	0.852	0.0	0.0	0.0	0.0	0.006	0.006	0.003	0.006	9.87727894897461	0.16639701538085935	0.051475335693359374	2.4261474609375	-3.73077392578125	-0.766754150390625	9.779116680908203	0.5285200164794922	0.17178396911621094	1.068115234375	-5.046844482421875	-2.99072265625	10.002375985717773	0.24839842224121092	-0.24061726684570311	3.60107421875	-4.596710205078125	-2.28118896484375	
214	0.856	0.0	0.0	0.0	0.0	-0.003	0.003	0.003	0.006	9.87069489440918	0.16819266662597654	0.05746083984375	2.590179443359375	-3.77655029296875	-0.86212158203125	9.777321029663085	0.5231330627441406	0.16819266662597654	1.102447509765625	-5.05828857421875	-3.025054931640625	10.004770187377929	0.2507926239013672	-0.24839842224121092	3.650665283203125	-4.779815673828125	-2.17437744140625	
215	0.86	0.0	0.0	0.0	0.0	0.003	0.006	0.003	0.006	9.871293444824218	0.16460136413574217	0.058657940673828124	2.788543701171875	-3.963470458984375	-1.0986328125	9.775525378417969	0.5207388610839844	0.15741875915527342	0.766754150390625	-4.962921142578125	-2.834320068359375	10.019733947753906	0.2507926239013672	-0.2472013214111328	3.4332275390625	-4.322052001953125	-2.12860107421875	
216	0.864	0.0	0.0	0.0	0.0	0.006	0.003	0.003	0.006	9.872490545654296	0.16460136413574217	0.05087678527832031	2.544403076171875	-3.34930419921875	-1.800537109375	9.776722479248047	0.5141548065185546	0.16160861206054686	1.026153564453125	-5.039215087890625	-3.002166748046875	10.011354241943359	0.24959552307128904	-0.23702596435546874	3.627777099609375	-4.734039306640625	-2.3345947265625	
217	0.868	0.0	0.0	0.0	0.0	0.006	0.003	0.003	0.0	9.880870251464843	0.16460136413574217	0.040102877807617184	2.552032470703125	-3.681182861328125	-1.033782958984375	9.783905084228515	0.4955997436523437	0.1610100616455078	0.850677490234375	-4.909515380859375	-2.99072265625	10.019135397338866	0.24480711975097655	-0.2507926239013672	3.54766845703125	-4.63104248046875	-2.288818359375	
218	0.872	0.0	0.0	0.0	0.0	0.0	0.003	0.006	0.006	9.865307940673828	0.17597382202148437	0.03890577697753906	2.887725830078125	-3.76129150390625	-1.068115234375	9.788693487548828	0.48063598327636714	0.15203180541992187	0.81634521484375	-4.76837158203125	-3.19671630859375	10.032902056884765	0.2041056915283203	-0.2699462371826172	3.6468505859375	-4.58526611328125	-2.384185791015625	
219	0.876	0.0	0.0	0.0	0.0	0.006	0.006	0.006	0.006	9.885658654785155	0.18375497741699218	0.03232172241210937	2.437591552734375	-3.76129150390625	-1.02996826171875	9.771335525512695	0.5572504364013672	0.16759411621093748	0.789642333984375	-5.016326904296875	-3.009796142578125	9.990404977416992	0.3022679595947265	-0.25258827514648435	3.711700439453125	-4.37164306640625	-1.964569091796875	
220	0.88	0.0	0.0	0.0	0.0	0.006	0.003	0.003	0.003	9.86291373901367	0.13287819213867186	0.054468087768554684	2.574920654296875	-3.8909912109375	-0.988006591796875	9.805452899169921	0.36212300109863277	0.13108254089355467	1.03759765625	-4.878997802734375	-3.185272216796875	10.026318002319336	0.0909796630859375	-0.2962824554443359	3.45611572265625	-4.5318603515625	-2.166748046875	
221	0.884	0.0	0.0	0.0	0.0	0.003	0.006	0.006	0.006	9.86411083984375	0.1388636962890625	0.06643909606933593	2.5482177734375	-3.97491455078125	-1.094818115234375	9.7545761138916	0.5297171173095703	0.15263035583496093	1.010894775390625	-5.138397216796875	-3.078460693359375	10.013748443603514	0.25737667846679685	-0.23104046020507812	3.543853759765625	-4.57000732421875	-2.086639404296875	
222	0.888	0.0	0.0	0.0	0.0	0.006	0.003	0.003	0.006	9.865307940673828	0.16879121704101563	0.040102877807617184	2.925872802734375	-3.84521484375	-0.89263916015625	9.785102185058593	0.4291606475830078	0.15861585998535155	0.865936279296875	-4.29534912109375	-3.101348876953125	9.973047015380859	0.24001871643066405	-0.20709844360351562	3.47137451171875	-4.40216064453125	-2.0599365234375	
223	0.892	0.0	0.0	0.0	0.0	0.006	0.003	0.003	0.006	9.86291373901367	0.0909796630859375	0.07900865478515624	2.685546875	-4.0130615234375	-1.01470947265625	9.755773214721678	0.4632780212402344	0.16340426330566404	1.19781494140625	-5.199432373046875	-3.116607666015625	9.991003527832031	0.1693897674560547	-0.21906945190429686	3.490447998046875	-4.459381103515625	-2.35748291015625	
224	0.896	0.0	0.0	0.0	0.0	0.006	0.006	0.006	0.003	9.861716638183593	0.12330138549804687	0.04848258361816406	2.83050537109375	-4.00543212890625	-0.896453857421875	9.76894132385254	0.421978042602539	0.14544775085449219	0.522613525390625	-4.7760009765625	-2.9144287109375	9.968258612060547	0.13946224670410157	-0.17417817077636719	3.528594970703125	-4.543304443359375	-2.338409423828125	
225	0.9	0.0	0.0	0.0	0.0	0.003	0.006	0.006	0.006	9.861118087768554	0.09337386474609374	0.0909796630859375	2.750396728515625	-3.70025634765625	-0.95367431640625	9.749189160156249	0.5363011718749999	0.15861585998535155	0.96893310546875	-5.0506591796875	-3.116607666015625	9.991003527832031	0.24361001892089842	-0.20290859069824219	3.643035888671875	-4.528045654296875	-2.231597900390625	
226	0.904	0.0	0.0	0.0	0.0	0.003	0.003	0.003	0.006	9.891045608520507	-0.03950432739257812	-0.0053869537353515625	2.216339111328125	-3.448486328125	-1.0223388671875	9.75517466430664	0.4159925384521484	0.14484920043945312	1.0833740234375	-5.157470703125	-2.964019775390625	9.934739788818359	0.13467384338378904	-0.19153613281249998	3.711700439453125	-4.436492919921875	-2.040863037109375	
227	0.908	0.0	0.0	0.0	0.0	0.003	0.006	0.003	0.006	9.860519537353515	0.047285482788085934	0.12150573425292968	2.64739990234375	-3.7994384765625	-0.804901123046875	9.789890588378906	0.38247371520996093	0.18614917907714842	0.827789306640625	-4.66156005859375	-3.116607666015625	9.996390481567381	0.10714052429199218	-0.19333178405761717	3.59344482421875	-4.364013671875	-2.414703369140625	
228	0.912	0.0	0.0	0.0	0.0	0.0	0.003	0.003	0.003	9.90181951599121	-0.08200140686035155	-0.010175357055664061	2.193450927734375	-3.452301025390625	-0.8087158203125	9.766547122192382	0.42437224426269526	0.1580173095703125	0.885009765625	-5.016326904296875	-2.574920654296875	9.937133990478515	0.13287819213867186	-0.16759411621093748	3.566741943359375	-4.47845458984375	-2.285003662109375	
229	0.916	0.0	0.0	0.0	0.0	0.003	0.003	0.003	0.006	9.852139831542969	0.05746083984375	0.11133037719726561	2.933502197265625	-3.71551513671875	-0.972747802734375	9.78629928588867	0.3962403747558593	0.18914193115234373	0.835418701171875	-5.06591796875	-3.177642822265625	9.980828170776366	0.10714052429199218	-0.1867477294921875	3.513336181640625	-4.520416259765625	-2.47955322265625	
230	0.92	0.0	0.0	0.0	0.0	0.003	0.003	0.003	0.006	9.913191973876952	-0.09696516723632811	0.0	1.956939697265625	-3.36456298828125	-0.86212158203125	9.792284790039062	0.4339490509033203	0.23882161560058593	0.70953369140625	-4.810333251953125	-2.74658203125	10.020931048583984	0.229843359375	-0.20171148986816406	3.3721923828125	-4.718780517578125	-1.953125	
231	0.924	0.0	0.0	0.0	0.0	0.006	0.003	0.006	0.003	9.890447058105469	-0.03591302490234375	0.011372457885742187	2.78472900390625	-3.459930419921875	-0.911712646484375	9.80665	0.37409400939941406	0.18854338073730467	1.220703125	-4.955291748046875	-3.2501220703125	9.99220062866211	0.07422025146484375	-0.16879121704101563	3.665924072265625	-4.405975341796875	-2.3193359375	
232	0.928	0.0	0.0	0.0	0.0	0.006	0.003	0.006	0.006	9.91498762512207	-0.08678981018066406	-0.018555062866210937	1.89971923828125	-3.383636474609375	-0.732421875	9.795876092529296	0.4477157104492187	0.20829554443359374	0.45013427734375	-4.87518310546875	-2.628326416015625	10.020931048583984	0.23702596435546874	-0.21607669982910155	3.681182861328125	-4.43267822265625	-1.97601318359375	
233	0.932	0.0	0.0	0.0	0.0	0.006	0.003	0.003	0.003	9.880870251464843	-0.029927520751953124	0.015562310791015624	2.819061279296875	-3.8299560546875	-0.8087158203125	9.832986218261718	0.24899697265624998	0.09636661682128905	0.804901123046875	-5.046844482421875	-2.643585205078125	10.111910711669921	-0.023343466186523436	-0.3800795135498047	3.45611572265625	-4.497528076171875	-2.3193359375	
234	0.936	0.0	0.0	0.0	0.0	0.003	0.003	0.003	0.0	9.776123928833007	0.2501940734863281	0.26815058593749996	3.208160400390625	-4.177093505859375	-1.010894775390625	9.798270294189452	0.4435258575439453	0.22445640563964842	0.58746337890625	-5.176544189453125	-2.64739990234375	10.03050785522461	0.24779987182617186	-0.19692308654785154	3.528594970703125	-4.82940673828125	-1.987457275390625	
235	0.9400000000000001	0.0	0.0	0.0	0.0	0.003	0.003	0.006	0.006	9.87608184814453	-0.03411737365722656	0.001197100830078125	2.63214111328125	-3.681182861328125	-0.7171630859375	9.87069489440918	0.2376245147705078	0.07900865478515624	1.24359130859375	-4.962921142578125	-3.139495849609375	10.155006341552733	-0.06344634399414062	-0.40462008056640625	3.4942626953125	-4.589080810546875	-2.25830078125	
236	0.9440000000000001	0.0	0.0	0.0	0.0	0.003	0.003	0.003	0.003	9.756970315551758	0.29927520751953124	0.2615665313720703	2.895355224609375	-3.940582275390625	-0.7476806640625	9.712079034423828	0.5925649108886718	0.24480711975097655	0.74005126953125	-4.924774169921875	-2.902984619140625	10.02392380065918	0.3190273712158203	-0.2166752502441406	3.559112548828125	-4.608154296875	-1.293182373046875	
237	0.9480000000000001	0.0	0.0	0.0	0.0	0.003	0.003	0.006	0.003	9.87608184814453	-0.04189852905273437	0.0017956512451171875	2.67791748046875	-3.70025634765625	-0.946044921875	9.874286196899414	0.239420166015625	0.06404489440917968	0.95367431640625	-4.8370361328125	-2.90679931640625	10.168174450683592	-0.04668693237304687	-0.40402153015136716	3.50189208984375	-4.4708251953125	-2.162933349609375	
238	0.9520000000000001	0.0	0.0	0.0	0.0	0.003	0.006	0.003	0.006	9.7683427734375	0.28311434631347654	0.24361001892089842	2.95257568359375	-3.73077392578125	-0.782012939453125	9.733626849365233	0.5602431884765625	0.25438392639160157	1.0528564453125	-4.901885986328125	-2.971649169921875	10.053252770996092	0.38666356811523434	-0.19632453613281248	3.8604736328125	-4.45556640625	-2.288818359375	
239	0.9560000000000001	0.0	0.0	0.0	0.0	0.006	0.003	0.003	0.003	9.889249957275391	0.058657940673828124	0.09576806640624999	1.3580322265625	-3.265380859375	-0.9918212890625	9.868300692749022	0.4327519500732422	0.13766659545898435	1.02996826171875	-5.096435546875	-2.87628173828125	10.160393295288085	-0.025139117431640625	-0.4082113830566406	3.612518310546875	-4.581451416015625	-2.37274169921875	
240	0.96	0.0	0.0	0.0	0.0	0.003	0.003	0.003	0.003	9.760561618041992	0.3274070770263672	0.2501940734863281	2.8839111328125	-3.742218017578125	-0.92315673828125	9.702502227783203	0.6039373687744141	0.2962824554443359	1.003265380859375	-5.02777099609375	-2.895355224609375	10.016142645263672	0.4734533782958984	-0.15442600708007811	3.826141357421875	-4.573822021484375	-2.132415771484375	
241	0.964	0.0	0.0	0.0	0.0	0.009000000000000001	0.006	0.003	0.003	9.879673150634765	0.044292730712890624	0.09696516723632811	1.415252685546875	-3.0059814453125	-0.789642333984375	9.853935482788085	0.1897404815673828	0.14903905334472656	0.888824462890625	-4.833221435546875	-3.101348876953125	10.05564697265625	-0.028131869506835935	-0.3082534637451172	3.643035888671875	-4.711151123046875	-1.941680908203125	
242	0.968	0.0	0.0	0.0	0.0	0.006	0.003	0.006	0.003	9.755773214721678	0.33758243408203126	0.2262520568847656	2.605438232421875	-3.795623779296875	-0.91552734375	9.69771382446289	0.6206967803955078	0.29448680419921874	1.36566162109375	-5.0201416015625	-3.11279296875	10.059238275146484	0.48123453369140623	-0.17896657409667968	3.559112548828125	-4.779815673828125	-2.178192138671875	
243	0.972	0.0	0.0	0.0	0.0	0.009000000000000001	0.003	0.006	0.003	9.852738381958007	0.13347674255371092	0.09217676391601562	1.53350830078125	-2.780914306640625	-1.02996826171875	9.833584768676758	0.26396073303222656	0.16160861206054686	0.732421875	-4.93621826171875	-2.9449462890625	10.019733947753906	0.06943184814453125	-0.28311434631347654	3.498077392578125	-4.8980712890625	-1.880645751953125	
244	0.976	0.0	0.0	0.0	0.0	0.003	0.006	0.003	0.003	9.91438907470703	0.2567781280517578	-0.011372457885742187	2.384185791015625	-3.7841796875	-0.81634521484375	9.78031378173828	0.6542156036376953	0.1580173095703125	1.24359130859375	-4.955291748046875	-3.108978271484375	9.955090502929687	0.3711012573242187	-0.1484405029296875	3.66973876953125	-4.67681884765625	-2.223968505859375	
245	0.98	0.0	0.0	0.0	0.0	0.003	0.006	0.003	0.003	9.86351228942871	0.10354922180175781	0.07003039855957031	1.91497802734375	-3.093719482421875	-0.865936279296875	9.881468801879882	0.16041151123046873	0.12988544006347655	1.033782958984375	-5.0506591796875	-2.902984619140625	10.046070166015625	-0.009576806640625	-0.297479556274414	3.4027099609375	-4.608154296875	-1.96075439453125	
246	0.984	0.0	0.0	0.0	0.0	0.003	0.003	0.003	0.003	9.917980377197265	0.24779987182617186	-0.022744915771484374	2.552032470703125	-3.643035888671875	-1.049041748046875	9.770138424682617	0.6889315277099609	0.1610100616455078	0.98419189453125	-4.817962646484375	-3.22723388671875	9.949104998779296	0.40402153015136716	-0.1304839904785156	3.66973876953125	-4.49371337890625	-2.582550048828125	
247	0.988	0.0	0.0	0.0	0.0	0.006	0.003	0.003	0.003	9.865307940673828	0.24181436767578124	-0.0047884033203125	2.9449462890625	-4.199981689453125	-0.728607177734375	9.710881933593749	0.5422866760253906	0.08140285644531249	0.9918212890625	-4.909515380859375	-2.86865234375	10.002375985717773	0.0526724365234375	-0.3112462158203125	3.757476806640625	-4.589080810546875	-1.964569091796875	
248	0.992	0.0	0.0	0.0	0.0	0.003	0.006	0.006	0.003	9.90840357055664	0.2184709014892578	-0.03591302490234375	2.6092529296875	-3.688812255859375	-1.007080078125	9.789292037963866	0.6386532928466796	0.16041151123046873	1.2969970703125	-4.825592041015625	-3.116607666015625	9.951499200439452	0.39743747558593745	-0.1388636962890625	3.780364990234375	-4.627227783203125	-2.574920654296875	
249	0.996	0.0	0.0	0.0	0.0	0.003	0.006	0.006	0.003	9.867702142333984	0.16340426330566404	-0.01975216369628906	2.838134765625	-4.08935546875	-0.782012939453125	9.72345149230957	0.49260699157714843	0.07481880187988281	0.804901123046875	-4.695892333984375	-2.689361572265625	9.891644158935547	0.19333178405761717	-0.14305354919433594	3.77655029296875	-4.92095947265625	-2.02178955078125	
250	1.0	0.0	0.0	0.0	0.0	0.006	0.003	0.006	0.003	9.889249957275391	0.2059013427734375	-0.05566518859863281	2.61688232421875	-3.7384033203125	-1.07574462890625	9.750984811401366	0.5901707092285156	0.1406593475341797	1.361846923828125	-5.176544189453125	-3.627777099609375	9.919776028442381	0.4016273284912109	-0.13766659545898435	3.635406494140625	-4.38690185546875	-2.490997314453125	
251	1.004	0.0	0.0	0.0	0.0	0.003	0.003	0.003	0.003	9.8694977935791	0.13646949462890623	-0.028131869506835935	2.727508544921875	-4.032135009765625	-0.888824462890625	9.712079034423828	0.5542576843261718	0.0718260498046875	0.881195068359375	-4.749298095703125	-2.819061279296875	9.861716638183593	0.25737667846679685	-0.14425065002441406	3.74603271484375	-4.589080810546875	-2.223968505859375	
252	1.008	0.0	0.0	0.0	0.0	0.003	0.006	0.003	0.006	9.916184725952148	-0.03950432739257812	0.0430956298828125	3.4332275390625	-4.21142578125	-0.843048095703125	9.751583361816406	0.6464344482421874	0.12808978881835936	0.9307861328125	-5.18035888671875	-3.650665283203125	9.97125136413574	0.13347674255371092	-0.17178396911621094	3.627777099609375	-4.3182373046875	-2.73895263671875	
253	1.012	0.0	0.0	0.0	0.0	0.006	0.006	0.003	0.006	9.881468801879882	0.062249243164062495	-0.034715924072265626	2.4871826171875	-3.82232666015625	-0.45013427734375	9.724050042724608	0.7056909393310546	0.2376245147705078	0.652313232421875	-5.100250244140625	-2.674102783203125	9.858125335693359	0.17776947326660156	-0.16160861206054686	3.60870361328125	-4.60052490234375	-2.00653076171875	
254	1.016	0.0	0.0	0.0	0.0	0.003	0.003	0.003	0.006	9.916783276367187	-0.04608838195800781	0.05985504150390625	3.513336181640625	-4.0435791015625	-0.926971435546875	9.740210903930663	0.6554127044677734	0.13287819213867186	1.361846923828125	-5.035400390625	-3.662109375	9.962871658325195	0.07422025146484375	-0.17956512451171874	3.330230712890625	-4.18853759765625	-2.655029296875	
255	1.02	0.0	0.0	0.0	0.0	0.006	0.006	0.003	0.009000000000000001	9.89463691101074	0.06404489440917968	-0.047285482788085934	2.8076171875	-3.6163330078125	-0.537872314453125	9.724648593139648	0.8086416107177734	0.22385785522460935	0.896453857421875	-4.9591064453125	-2.64739990234375	10.04247886352539	0.46028526916503903	-0.08978256225585937	3.4942626953125	-4.57000732421875	-1.728057861328125	
256	1.024	0.0	0.0	0.0	0.0	0.003	0.003	0.003	0.006	9.910797772216796	-0.04967968444824218	0.06943184814453125	3.7689208984375	-4.37164306640625	-0.90789794921875	9.872490545654296	0.32561142578124996	0.13168109130859373	0.6103515625	-4.985809326171875	-3.139495849609375	9.975441217041014	0.04129997863769531	-0.18076222534179687	3.520965576171875	-4.3792724609375	-2.716064453125	
257	1.028	0.0	0.0	0.0	0.0	0.006	0.003	0.003	0.006	9.84435867614746	0.1657984649658203	0.19991583862304688	2.849578857421875	-3.5858154296875	-0.637054443359375	9.725247143554688	0.7206546997070312	0.20051438903808594	0.79345703125	-4.913330078125	-2.777099609375	10.041281762695311	0.33758243408203126	-0.08978256225585937	3.452301025390625	-4.589080810546875	-1.73187255859375	
258	1.032	0.0	0.0	0.0	0.0	0.006	0.006	0.003	0.006	9.925761532592773	-0.03950432739257812	0.07781155395507812	3.77655029296875	-4.37164306640625	-0.904083251953125	9.885060104370117	0.354940396118164	0.14125789794921875	0.81634521484375	-4.825592041015625	-3.27301025390625	9.995193380737303	0.04189852905273437	-0.18614917907714842	3.444671630859375	-4.4403076171875	-2.349853515625	
259	1.036	0.0	0.0	0.0	0.0	0.003	0.003	0.003	0.003	9.846154327392577	0.20350714111328125	0.2280477081298828	3.055572509765625	-3.82232666015625	-0.583648681640625	9.710881933593749	0.5979518646240234	0.34117373657226563	0.55694580078125	-5.02777099609375	-2.750396728515625	10.040084661865233	0.40581718139648437	-0.08858546142578125	3.60870361328125	-4.497528076171875	-1.789093017578125	
260	1.04	0.0	0.0	0.0	0.0	0.0	0.003	0.003	0.003	9.904213717651366	-0.13766659545898435	-0.09457096557617187	1.3580322265625	-2.925872802734375	-1.0986328125	9.864709390258788	0.32022447204589843	0.16639701538085935	0.957489013671875	-5.05828857421875	-3.093719482421875	10.205883126831054	-0.239420166015625	-0.4830301849365234	3.6468505859375	-4.50897216796875	-2.41851806640625	
261	1.044	0.0	0.0	0.0	0.0	0.006	0.003	0.006	0.003	9.847351428222655	0.1801636749267578	0.2597708801269531	2.933502197265625	-3.864288330078125	-0.63323974609375	9.730035546875	0.5279214660644531	0.3495534423828125	0.5950927734375	-4.772186279296875	-2.902984619140625	10.059238275146484	0.3178302703857422	-0.08020575561523437	3.53240966796875	-4.512786865234375	-1.74713134765625	
262	1.048	0.0	0.0	0.0	0.0	0.006	0.003	0.003	0.006	9.919776028442381	-0.16759411621093748	-0.11911153259277343	1.33514404296875	-3.032684326171875	-1.186370849609375	9.859322436523437	0.39743747558593745	0.16160861206054686	0.583648681640625	-4.962921142578125	-2.5634765625	10.220846887207031	-0.21607669982910155	-0.5039794494628906	3.505706787109375	-4.482269287109375	-2.285003662109375	
263	1.052	0.0	0.0	0.0	0.0	0.012	0.003	0.003	0.003	9.813832604980469	0.2328361114501953	0.2950853546142578	2.7313232421875	-4.15802001953125	-0.518798828125	9.706692080688477	0.6027402679443359	0.3890577697753906	0.514984130859375	-4.894256591796875	-2.43377685546875	10.043675964355469	0.6464344482421874	-0.20949264526367187	3.5552978515625	-4.726409912109375	-2.132415771484375	
264	1.056	0.0	0.0	0.0	0.0	0.003	0.006	0.003	0.003	9.91438907470703	-0.2759317413330078	-0.12030863342285156	0.93841552734375	-2.72369384765625	-0.80108642578125	9.923965881347655	-0.15682020874023436	0.010175357055664061	0.78582763671875	-5.096435546875	-2.62451171875	10.238803399658202	-0.34117373657226563	-0.5027823486328125	3.57818603515625	-4.67681884765625	-2.353668212890625	
265	1.06	0.0	0.0	0.0	0.0	0.003	0.003	0.003	0.006	9.887454306030273	0.3190273712158203	-0.003591302490234375	2.872467041015625	-3.582000732421875	-1.15966796875	9.743802206420899	0.6117185241699218	0.38666356811523434	0.640869140625	-5.0506591796875	-2.777099609375	10.075997686767577	0.5698199951171875	-0.20290859069824219	3.68499755859375	-4.695892333984375	-2.384185791015625	
266	1.064	0.0	0.0	0.0	0.0	0.006	0.006	0.006	0.006	9.925162982177733	-0.2280477081298828	-0.11671733093261719	0.782012939453125	-2.4871826171875	-1.02996826171875	9.904213717651366	-0.06045359191894531	0.01975216369628906	0.873565673828125	-5.092620849609375	-2.593994140625	10.028113653564452	-0.052073886108398436	-0.35314474487304687	3.326416015625	-4.619598388671875	-1.8463134765625	
267	1.068	0.0	0.0	0.0	0.0	0.003	0.003	0.006	0.003	9.899425314331054	0.29448680419921874	-0.008379705810546874	2.4261474609375	-3.53240966796875	-1.0528564453125	9.749787710571288	0.469263525390625	0.22864625854492185	0.865936279296875	-4.81414794921875	-3.032684326171875	10.033500607299803	0.5758054992675781	-0.2232593048095703	3.7384033203125	-4.6844482421875	-2.208709716796875	
268	1.072	0.0	0.0	0.0	0.0	0.009000000000000001	0.003	0.006	0.006	9.94671079711914	-0.31663316955566406	-0.12689268798828124	2.70843505859375	-2.521514892578125	-1.09100341796875	9.959280355834961	-0.14784195251464843	-0.002992752075195312	0.8392333984375	-4.810333251953125	-2.788543701171875	10.064026678466796	-0.1388636962890625	-0.3597287994384765	3.551483154296875	-4.78363037109375	-1.834869384765625	
269	1.076	0.0	0.0	0.0	0.0	0.003	0.003	0.006	0.003	9.926360083007811	0.30406361083984373	-0.05327098693847656	2.3193359375	-3.490447998046875	-0.919342041015625	9.758765966796874	0.6206967803955078	0.25737667846679685	0.865936279296875	-4.940032958984375	-2.803802490234375	10.02392380065918	0.738012661743164	-0.20231004028320312	3.8299560546875	-4.543304443359375	-2.86102294921875	
270	1.08	0.0	0.0	0.0	0.0	0.003	0.003	0.003	0.003	9.804255798339844	0.2454056701660156	0.1657984649658203	2.948760986328125	-4.058837890625	-0.54168701171875	9.750386260986328	0.08678981018066406	0.06105214233398437	0.545501708984375	-4.90570068359375	-2.513885498046875	10.011354241943359	-0.16639701538085935	-0.3286041778564453	3.559112548828125	-4.726409912109375	-1.77764892578125	
271	1.084	0.0	0.0	0.0	0.0	0.003	0.006	0.003	0.006	9.949703549194336	0.27174188842773433	-0.05746083984375	2.35748291015625	-3.51715087890625	-1.33514404296875	9.76894132385254	0.5662286926269531	0.2603694305419922	0.9307861328125	-4.726409912109375	-3.215789794921875	9.907206469726562	0.3315969299316406	-0.076614453125	3.643035888671875	-4.535675048828125	-2.819061279296875	
272	1.088	0.0	0.0	0.0	0.0	0.006	0.006	0.006	0.003	9.832986218261718	0.36631285400390623	0.12689268798828124	3.41033935546875	-4.001617431640625	-0.7781982421875	9.779116680908203	0.2861070983886719	0.04249707946777344	1.007080078125	-5.023956298828125	-2.826690673828125	10.044274514770507	0.06464344482421874	-0.3190273712158203	3.33404541015625	-4.817962646484375	-1.743316650390625	
273	1.092	0.0	0.0	0.0	0.0	0.003	0.003	0.003	0.003	10.01075569152832	0.19991583862304688	0.08020575561523437	3.8299560546875	-4.5318603515625	-1.163482666015625	9.657012396240233	0.7248445526123046	0.14903905334472656	1.621246337890625	-4.718780517578125	-3.620147705078125	9.8311905670166	0.5159504577636719	-0.044292730712890624	3.6163330078125	-4.482269287109375	-2.92205810546875	
274	1.096	0.0	0.0	0.0	0.0	0.006	0.003	0.003	0.003	9.840168823242188	0.2699462371826172	0.1274912384033203	3.337860107421875	-4.302978515625	-0.74005126953125	9.791087689208984	0.08918401184082031	0.04668693237304687	1.068115234375	-5.04302978515625	-2.70843505859375	9.815029705810547	0.0053869537353515625	-0.05027823486328125	3.734588623046875	-4.619598388671875	-1.941680908203125	
275	1.1	0.0	0.0	0.0	0.0	0.006	0.003	0.003	0.006	9.894038360595703	0.2232593048095703	0.08738836059570312	4.787445068359375	-4.95147705078125	-1.369476318359375	9.7162688873291	0.7433996154785156	0.13407529296874998	1.819610595703125	-4.67681884765625	-4.001617431640625	9.897629663085937	0.4896142395019531	-0.029328970336914062	3.711700439453125	-4.547119140625	-3.276824951171875	
276	1.104	0.0	0.0	0.0	0.0	0.006	0.003	0.006	0.003	9.852139831542969	0.47584757995605464	0.09217676391601562	3.810882568359375	-4.4403076171875	-0.54168701171875	9.666589202880859	0.8744821563720703	0.239420166015625	0.736236572265625	-5.229949951171875	-2.410888671875	9.79348189086914	0.16220716247558592	-0.04249707946777344	3.47900390625	-4.547119140625	-2.2430419921875	
277	1.108	0.0	0.0	0.0	0.0	0.003	0.003	0.006	0.006	9.849745629882811	0.23104046020507812	0.13347674255371092	5.06591796875	-5.24139404296875	-0.980377197265625	9.67137760620117	0.7463923675537109	0.1388636962890625	1.8463134765625	-4.871368408203125	-3.80706787109375	9.961076007080077	-0.2693476867675781	-0.11791443176269531	3.6468505859375	-4.2572021484375	-2.513885498046875	
278	1.112	0.0	0.0	0.0	0.0	0.006	0.003	0.006	0.006	9.965265859985351	-0.0143652099609375	-0.11073182678222655	2.655029296875	-4.123687744140625	-0.736236572265625	9.7545761138916	0.6009446166992187	0.22685060729980466	0.762939453125	-5.077362060546875	-2.574920654296875	9.893439810180663	-0.022146365356445312	-0.022744915771484374	3.688812255859375	-4.69207763671875	-2.254486083984375	
279	1.116	0.0	0.0	0.0	0.0	0.006	0.006	0.006	0.009000000000000001	9.879673150634765	0.35134909362792965	0.1406593475341797	5.83648681640625	-5.496978759765625	-1.4801025390625	9.836577520751952	0.37708676147460934	0.19931728820800781	0.705718994140625	-4.93621826171875	-3.452301025390625	10.02332525024414	-0.13287819213867186	-0.1352723937988281	3.41033935546875	-4.40216064453125	-2.6702880859375	
280	1.12	0.0	0.0	0.0	0.0	0.003	0.003	0.003	0.003	9.926958633422851	0.11552023010253906	-0.051475335693359374	2.651214599609375	-3.955841064453125	-0.86212158203125	9.700706576538085	0.09157821350097656	0.21308394775390624	0.41961669921875	-5.04302978515625	-2.124786376953125	9.7683427734375	0.22266075439453123	0.076614453125	3.30352783203125	-4.474639892578125	-1.2054443359375	
281	1.124	0.0	0.0	0.0	0.0	0.003	0.006	0.006	0.003	9.873089096069336	0.17178396911621094	0.18614917907714842	5.69915771484375	-5.344390869140625	-1.3427734375	9.750386260986328	0.833182177734375	0.20231004028320312	1.36566162109375	-4.79888916015625	-3.5400390625	10.017938296508788	-0.1657984649658203	-0.1005564697265625	3.448486328125	-4.17327880859375	-2.635955810546875	
282	1.1280000000000001	0.0	0.0	0.0	0.0	0.003	0.003	0.006	0.003	9.952696301269532	-0.07302315063476562	-0.10115502014160156	2.407073974609375	-4.123687744140625	-0.835418701171875	9.765948571777344	0.03890577697753906	0.1640028137207031	0.6103515625	-5.115509033203125	-2.742767333984375	10.082581741333007	0.4842272857666015	-0.1274912384033203	3.4942626953125	-4.57763671875	-1.89208984375	
283	1.1320000000000001	0.0	0.0	0.0	0.0	0.003	0.003	0.003	0.003	9.855731134033203	-0.17657237243652343	-0.032920272827148434	1.712799072265625	-3.05938720703125	-1.28936767578125	9.710881933593749	0.8780734588623046	0.2184709014892578	1.07574462890625	-4.6539306640625	-3.055572509765625	9.94072529296875	-0.051475335693359374	-0.11133037719726561	3.467559814453125	-4.268646240234375	-2.521514892578125	
284	1.1360000000000001	0.0	0.0	0.0	0.0	0.003	0.006	0.006	0.006	9.937133990478515	0.0652419952392578	-0.03651157531738281	2.689361572265625	-4.100799560546875	-0.606536865234375	9.832986218261718	0.14903905334472656	0.3190273712158203	0.51116943359375	-4.913330078125	-2.925872802734375	10.02332525024414	0.46806642456054687	-0.14305354919433594	3.696441650390625	-4.486083984375	-1.796722412109375	
285	1.1400000000000001	0.0	0.0	0.0	0.0	0.003	0.003	0.003	0.006	9.898228213500976	-0.033518823242187495	-0.08858546142578125	2.61688232421875	-3.620147705078125	-0.98419189453125	9.815628256225585	0.5632359405517577	0.17776947326660156	0.492095947265625	-4.63104248046875	-2.605438232421875	10.286687432861328	-0.07841010437011718	-0.738012661743164	3.849029541015625	-4.39453125	-2.437591552734375	
286	1.1440000000000001	0.0	0.0	0.0	0.0	0.006	0.006	0.003	0.003	9.828796365356444	-0.41539398803710936	0.42437224426269526	2.285003662109375	-3.10516357421875	-0.667572021484375	9.859322436523437	0.39983167724609375	0.27952304382324217	0.37384033203125	-5.100250244140625	-3.147125244140625	10.064625228881836	0.469862075805664	-0.1640028137207031	3.60107421875	-4.40216064453125	-2.11334228515625	
287	1.1480000000000001	0.0	0.0	0.0	0.0	0.003	0.003	0.003	0.003	9.882067352294921	-0.08379705810546874	-0.10893617553710937	1.453399658203125	-2.93731689453125	-0.63323974609375	9.881468801879882	0.612915625	-0.10773907470703124	1.682281494140625	-4.772186279296875	-2.6092529296875	10.184933862304687	-0.012569558715820313	-0.6745663177490234	3.734588623046875	-4.38690185546875	-2.269744873046875	
288	1.1520000000000001	0.0	0.0	0.0	0.0	0.006	0.003	0.003	0.003	9.66000514831543	0.6063315704345703	0.37289690856933594	3.662109375	-3.97491455078125	-0.90789794921875	9.83178911743164	0.5386953735351562	0.2861070983886719	0.5950927734375	-5.1116943359375	-2.9296875	10.081983190917969	0.4626794708251953	-0.3286041778564453	3.513336181640625	-4.596710205078125	-2.044677734375	
289	1.156	0.0	0.0	0.0	0.0	0.003	0.003	0.006	0.006	9.925162982177733	0.086191259765625	-0.2088940948486328	2.60162353515625	-3.757476806640625	-1.2054443359375	9.964667309570311	0.40761283264160153	-0.1406593475341797	1.31988525390625	-5.08880615234375	-2.788543701171875	10.259154113769531	-0.03531447448730469	-0.6757634185791015	3.62396240234375	-4.55474853515625	-2.162933349609375	
290	1.16	0.0	0.0	0.0	0.0	0.003	0.003	0.003	0.003	9.631873278808593	0.13646949462890623	0.3633201019287109	2.23541259765625	-3.673553466796875	-1.09100341796875	9.622895022583007	0.6590040069580078	0.3399766357421875	0.186920166015625	-4.886627197265625	-2.819061279296875	10.08018753967285	0.38786066894531246	-0.3585316986083984	3.4027099609375	-4.57763671875	-2.193450927734375	
291	1.164	0.0	0.0	0.0	0.0	0.003	0.006	0.003	0.003	9.80605144958496	0.15442600708007811	0.201112939453125	-0.461578369140625	-2.216339111328125	-0.54168701171875	9.93952819213867	0.4848258361816406	-0.16280571289062498	1.140594482421875	-4.82177734375	-2.948760986328125	10.089165795898436	0.1610100616455078	-0.4447229583740234	3.509521484375	-4.940032958984375	-1.5106201171875	
292	1.168	0.0	0.0	0.0	0.0	0.006	0.006	0.003	0.006	9.689334118652344	0.24001871643066405	0.22744915771484372	1.918792724609375	-3.51715087890625	-0.72479248046875	9.68454571533203	0.5327098693847656	0.27832594299316404	0.331878662109375	-4.817962646484375	-2.655029296875	10.083180291748047	0.3010708587646484	-0.27892449340820313	3.536224365234375	-4.82940673828125	-2.3651123046875	
293	1.172	0.0	0.0	0.0	0.0	0.003	0.003	0.003	0.003	9.819219558715819	0.30466216125488277	0.1849520782470703	1.47247314453125	-3.01361083984375	-0.896453857421875	9.885658654785155	0.37229835815429685	-0.017357962036132813	1.04522705078125	-5.24139404296875	-3.16619873046875	10.12507882080078	0.11252747802734374	-0.4704606262207031	3.2196044921875	-4.932403564453125	-1.60980224609375	
294	1.176	0.0	0.0	0.0	0.0	0.003	0.003	0.006	0.003	9.686341366577148	0.2316390106201172	0.20470424194335937	3.414154052734375	-3.6773681640625	-1.10626220703125	9.616909518432617	0.49799394531249996	0.354940396118164	0.186920166015625	-4.787445068359375	-2.63214111328125	10.007762939453125	0.3441664886474609	-0.25917232971191406	3.452301025390625	-4.8370361328125	-2.3040771484375	
295	1.18	0.0	0.0	0.0	0.0	0.006	0.006	0.003	0.003	9.834183319091796	0.1388636962890625	0.17836802368164062	0.980377197265625	-2.83050537109375	-0.774383544921875	9.867103591918944	0.4584896179199218	0.0	0.675201416015625	-4.764556884765625	-3.124237060546875	10.122684619140625	0.16819266662597654	-0.4034229797363281	3.5247802734375	-4.886627197265625	-1.857757568359375	
296	1.184	0.0	0.0	0.0	0.0	0.003	0.003	0.003	0.003	9.896432562255859	0.014963760375976562	0.03411737365722656	1.64031982421875	-3.01361083984375	-0.93841552734375	9.730035546875	0.4064157318115234	0.19393033447265623	1.155853271484375	-4.810333251953125	-3.2501220703125	9.868899243164062	0.06584054565429687	-0.044891281127929686	3.6468505859375	-4.482269287109375	-2.81524658203125	
297	1.188	0.0	0.0	0.0	0.0	0.003	0.003	0.003	0.003	9.809044201660155	0.29089550170898437	0.15682020874023436	0.64849853515625	-2.193450927734375	-0.835418701171875	9.803058697509766	0.49200844116210934	0.04908113403320312	0.988006591796875	-5.2337646484375	-3.124237060546875	10.052055670166014	0.2041056915283203	-0.40581718139648437	3.498077392578125	-4.84466552734375	-1.850128173828125	
298	1.192	0.0	0.0	0.0	0.0	0.003	0.006	0.003	0.006	9.859322436523437	0.08858546142578125	0.06105214233398437	2.40325927734375	-3.326416015625	-0.80108642578125	9.694122521972655	0.46686932373046874	0.26396073303222656	1.232147216796875	-5.016326904296875	-3.177642822265625	9.809044201660155	0.15682020874023436	-0.04848258361816406	3.688812255859375	-4.604339599609375	-2.716064453125	
299	1.196	0.0	0.0	0.0	0.0	0.006	0.003	0.003	0.003	9.846154327392577	0.16220716247558592	-0.20350714111328125	3.551483154296875	-4.642486572265625	-1.110076904296875	9.80724855041504	0.3399766357421875	0.1149216796875	0.934600830078125	-5.14984130859375	-2.590179443359375	9.859920986938477	0.3184288208007812	-0.009576806640625	3.704071044921875	-4.619598388671875	-2.109527587890625	
300	1.2	0.0	0.0	0.0	0.0	0.0	0.003	0.003	0.003	9.851541281127929	0.12868833923339842	0.06823474731445311	2.532958984375	-3.50189208984375	-0.972747802734375	9.694122521972655	0.5195417602539062	0.24001871643066405	0.9918212890625	-4.85992431640625	-3.299713134765625	9.798270294189452	0.1131260284423828	-0.04129997863769531	3.936767578125	-4.45556640625	-2.544403076171875	
301	1.204	0.0	0.0	0.0	0.0	0.0	0.003	0.003	0.006	9.943119494628906	0.30346506042480464	-0.12569558715820311	4.1351318359375	-5.023956298828125	-0.896453857421875	9.73602105102539	0.364517202758789	0.1274912384033203	0.98419189453125	-5.306243896484375	-2.605438232421875	9.756371765136718	0.41838674011230464	0.02154781494140625	3.70025634765625	-4.7760009765625	-2.105712890625	
302	1.208	0.0	0.0	0.0	0.0	0.006	0.003	0.003	0.003	9.8449572265625	0.10594342346191406	0.076614453125	3.02886962890625	-3.90625	-0.98419189453125	9.706093530273437	0.4914098907470703	0.30466216125488277	1.194000244140625	-4.825592041015625	-3.284454345703125	10.088567245483398	-0.034715924072265626	-0.21607669982910155	3.62396240234375	-4.4403076171875	-2.20489501953125	
303	1.212	0.0	0.0	0.0	0.0	0.009000000000000001	0.003	0.003	0.006	9.98501802368164	0.229843359375	-0.1388636962890625	4.116058349609375	-4.72259521484375	-0.995635986328125	9.798270294189452	0.3028665100097656	0.09038111267089843	1.194000244140625	-5.340576171875	-2.971649169921875	9.855731134033203	0.36631285400390623	-0.014963760375976562	3.437042236328125	-4.60052490234375	-2.26593017578125	
304	1.216	0.0	0.0	0.0	0.0	0.006	0.003	0.006	0.006	9.975441217041014	0.1083376251220703	-0.10953472595214843	4.58526611328125	-4.947662353515625	-0.5950927734375	9.73661960144043	0.5201403106689453	0.1897404815673828	1.0223388671875	-4.8675537109375	-3.307342529296875	9.97843396911621	-0.003591302490234375	-0.20949264526367187	3.551483154296875	-4.2724609375	-2.03704833984375	
305	1.22	0.0	0.0	0.0	0.0	0.006	0.003	0.006	0.006	9.989207876586914	0.2693476867675781	-0.09756371765136718	4.062652587890625	-4.932403564453125	-1.018524169921875	9.79348189086914	0.28969840087890625	0.10474632263183593	0.57220458984375	-5.34820556640625	-2.685546875	9.832986218261718	0.36092590026855464	0.027533319091796873	3.498077392578125	-4.459381103515625	-2.132415771484375	
306	1.224	0.0	0.0	0.0	0.0	0.003	0.003	0.006	0.006	10.024522351074218	-0.0430956298828125	-0.1640028137207031	4.73785400390625	-5.184173583984375	-0.80108642578125	9.823409411621093	0.42377369384765623	0.16879121704101563	1.033782958984375	-4.673004150390625	-3.07464599609375	10.110713610839843	-0.10354922180175781	-0.2507926239013672	3.448486328125	-4.41741943359375	-2.071380615234375	
307	1.228	0.0	0.0	0.0	0.0	0.003	0.003	0.003	0.003	9.987412225341796	0.3381809844970703	-0.10893617553710937	4.596710205078125	-4.848480224609375	-0.934600830078125	9.783905084228515	0.4010287780761719	0.3280056274414062	0.457763671875	-5.08880615234375	-2.758026123046875	10.00955859069824	0.30526071166992186	-0.1322796417236328	3.696441650390625	-4.604339599609375	-2.46429443359375	
