	time	dac1	dac2	dac3	dac4	adc1.3	adc2.3	adc3.3	adc4.3	imu1accx	imu1accy	imu1accz	imu1gyrox	imu1gyroy	imu1gyroz	imu2accx	imu2accy	imu2accz	imu2gyrox	imu2gyroy	imu2gyroz	imu3accx	imu3accy	imu3accz	imu3gyrox	imu3gyroy	imu3gyroz	log
0	0.0	0.0	0.0	0.0	0.0	0.003	0.003	0.003	0.006	9.854534033203125	0.16699556579589842	0.11372457885742186	3.116607666015625	-3.963470458984375	-0.96893310546875	9.797073193359374	0.5985504150390625	0.2262520568847656	0.972747802734375	-4.974365234375	-3.0364990234375	9.96586441040039	0.2424129180908203	-0.12330138549804687	3.589630126953125	-4.31060791015625	-2.132415771484375	Estabilizou em 10s, 2303  rpm
1	0.004	0.0	0.0	0.0	0.0	0.006	0.003	0.006	0.003	9.888052856445311	0.11133037719726561	0.06584054565429687	2.620697021484375	-3.8909912109375	-0.885009765625	9.79946739501953	0.4100070343017578	0.15981296081542967	0.98419189453125	-4.8065185546875	-2.7923583984375	10.06163247680664	0.08080430603027343	-0.28311434631347654	3.734588623046875	-4.642486572265625	-1.819610595703125	Started
2	0.008	0.0	0.0	0.0	0.0	0.006	0.006	0.003	0.006	9.8449572265625	0.15263035583496093	0.13646949462890623	3.177642822265625	-4.0130615234375	-1.125335693359375	9.779116680908203	0.5339069702148437	0.22445640563964842	0.79345703125	-5.031585693359375	-3.1585693359375	9.898228213500976	0.18914193115234373	-0.12509703674316405	3.734588623046875	-4.482269287109375	-2.445220947265625	IMU1|LSM6DS3|0x6A|I2C-1|±2g (±19,6m/s²)|±125º/s|400Hz
3	0.012	0.0	0.0	0.0	0.0	0.003	0.006	0.003	0.003	9.887454306030273	0.040701428222656245	-0.0053869537353515625	2.330780029296875	-3.391265869140625	-0.888824462890625	9.791686239624022	0.33099837951660155	0.2059013427734375	0.885009765625	-4.947662353515625	-2.902984619140625	9.93354268798828	0.11611878051757812	-0.06943184814453125	3.604888916015625	-4.467010498046875	-1.91497802734375	IMU2|LSM6DS3|0x6B|I2C-1|±2g (±19,6m/s²)|±125º/s|400Hz
4	0.016	0.0	0.0	0.0	0.0	0.003	0.003	0.003	0.003	9.8449572265625	0.1849520782470703	0.13108254089355467	3.30352783203125	-3.902435302734375	-1.02996826171875	9.758167416381836	0.4991910461425781	0.23523031311035156	1.03759765625	-4.940032958984375	-3.398895263671875	9.934739788818359	0.25917232971191406	-0.1304839904785156	3.48663330078125	-4.3487548828125	-2.3956298828125	IMU3|LSM6DS3|0x6B|I2C-2|±2g (±19,6m/s²)|±125º/s|400Hz
5	0.02	0.0	0.0	0.0	0.0	0.003	0.003	0.003	0.006	9.903016616821288	0.0718260498046875	-0.013766659545898436	2.62451171875	-3.993988037109375	-0.8697509765625	9.78031378173828	0.3028665100097656	0.1849520782470703	0.67901611328125	-5.0506591796875	-2.87628173828125	9.871293444824218	0.14245499877929688	-0.07781155395507812	3.696441650390625	-4.550933837890625	-1.82342529296875	ADC|ADS1015|0|0|1|0|±6,144 V|2400 SPS
6	0.024	0.0	0.0	0.0	0.0	0.003	0.003	0.003	0.006	9.832986218261718	0.15741875915527342	0.143652099609375	3.444671630859375	-4.150390625	-0.904083251953125	9.74799205932617	0.46208092041015625	0.26336218261718747	0.80108642578125	-4.924774169921875	-3.35693359375	10.053252770996092	0.010773907470703125	-0.26815058593749996	3.757476806640625	-4.53948974609375	-2.399444580078125	Gen1|Disabled
7	0.028	0.0	0.0	0.0	0.0	0.006	0.003	0.003	0.0	9.916783276367187	0.04548983154296875	-0.04129997863769531	2.712249755859375	-3.986358642578125	-0.873565673828125	9.795876092529296	0.4285620971679687	0.1274912384033203	0.9002685546875	-5.290985107421875	-2.72369384765625	9.916783276367187	0.17357962036132812	-0.09756371765136718	3.612518310546875	-4.444122314453125	-1.77001953125	Gen2|Enabled|Noise|0.0|10.0|1668
8	0.032	0.0	0.0	0.0	0.0	0.006	0.006	0.003	0.003	9.89583401184082	-0.08798691101074219	-0.04249707946777344	3.23486328125	-4.180908203125	-1.0528564453125	9.698910925292969	0.49021278991699213	0.24959552307128904	0.835418701171875	-5.115509033203125	-3.44085693359375	10.025120901489258	0.034715924072265626	-0.3022679595947265	3.566741943359375	-4.47845458984375	-2.368927001953125	Gen3|Enabled|Noise|0.0|10.0|128
9	0.036000000000000004	0.0	0.0	0.0	0.0	0.006	0.003	0.006	0.003	9.90241806640625	0.02693476867675781	-0.009576806640625	2.529144287109375	-3.810882568359375	-0.667572021484375	9.770736975097655	0.4034229797363281	0.1322796417236328	0.67901611328125	-4.993438720703125	-2.60162353515625	9.892242709350585	0.15861585998535155	-0.08259995727539061	3.665924072265625	-4.69970703125	-2.03704833984375	Gen4|Enabled|Noise|0.0|10.0|128
10	0.04	0.0	0.0	0.0	0.0	0.006	0.006	0.003	0.006	9.905410818481444	-0.1592144104003906	-0.05327098693847656	3.520965576171875	-4.215240478515625	-0.934600830078125	9.882067352294921	0.2645592834472656	0.05746083984375	1.178741455078125	-5.039215087890625	-3.265380859375	10.09395419921875	0.00718260498046875	-0.3124433166503906	3.559112548828125	-4.329681396484375	-2.307891845703125	Ctrl|Disabled
11	0.044	0.0	0.0	0.0	0.0	0.006	0.006	0.003	0.006	9.924564431762695	0.011372457885742187	-0.06045359191894531	2.742767333984375	-3.35693359375	-0.797271728515625	9.756371765136718	0.45070846252441404	0.09696516723632811	0.885009765625	-5.077362060546875	-2.902984619140625	10.037690460205077	0.32501287536621093	-0.2657563842773437	3.631591796875	-4.505157470703125	-1.903533935546875	
12	0.048	0.0	0.0	0.0	0.0	0.003	0.003	0.003	0.003	9.896432562255859	-0.1304839904785156	-0.05027823486328125	3.200531005859375	-4.222869873046875	-0.92315673828125	9.847351428222655	0.3082534637451172	0.058657940673828124	1.132965087890625	-5.14984130859375	-3.299713134765625	10.05564697265625	0.03591302490234375	-0.3028665100097656	3.726959228515625	-4.665374755859375	-2.346038818359375	
13	0.052000000000000005	0.0	0.0	0.0	0.0	0.003	0.003	0.003	0.006	9.783905084228515	0.12150573425292968	0.2753331909179687	2.72369384765625	-3.68499755859375	-0.57220458984375	9.708487731933593	0.5793968017578125	0.3232172241210937	0.873565673828125	-5.30242919921875	-2.811431884765625	10.064625228881836	0.3016694091796875	-0.2537853759765625	3.467559814453125	-4.718780517578125	-1.789093017578125	
14	0.056	0.0	0.0	0.0	0.0	0.003	0.003	0.006	0.003	9.928754284667969	-0.16819266662597654	-0.07003039855957031	3.170013427734375	-4.070281982421875	-1.125335693359375	9.859322436523437	0.2819172454833984	0.05386953735351562	1.2359619140625	-5.05828857421875	-3.452301025390625	10.120888967895507	-0.143652099609375	-0.40761283264160153	3.681182861328125	-4.436492919921875	-2.25830078125	
15	0.06	0.0	0.0	0.0	0.0	0.003	0.003	0.003	0.006	9.744999307250977	0.19812018737792966	0.28490999755859375	2.61688232421875	-3.83758544921875	-0.86212158203125	9.688735568237304	0.6596025573730468	0.31184476623535157	0.89263916015625	-5.16510009765625	-2.8228759765625	10.02332525024414	0.40880993347167965	-0.2753331909179687	3.631591796875	-4.398345947265625	-2.048492431640625	
16	0.064	0.0	0.0	0.0	0.0	0.003	0.003	0.003	0.003	9.843760125732421	-0.09696516723632811	0.1466448516845703	0.66375732421875	-2.35748291015625	-0.865936279296875	9.903615167236328	0.15442600708007811	0.017956512451171875	1.110076904296875	-5.0048828125	-3.13568115234375	10.103531005859374	-0.08499415893554688	-0.39743747558593745	3.60107421875	-4.57000732421875	-2.178192138671875	
17	0.068	0.0	0.0	0.0	0.0	0.003	0.003	0.003	0.003	9.764152920532226	0.23223756103515625	0.27174188842773433	2.544403076171875	-3.543853759765625	-0.67138671875	9.747393508911133	0.6200982299804687	0.2920926025390625	0.843048095703125	-5.096435546875	-2.89154052734375	10.064026678466796	0.4590881683349609	-0.2507926239013672	3.5247802734375	-4.47845458984375	-2.079010009765625	
18	0.07200000000000001	0.0	0.0	0.0	0.0	0.003	0.006	0.003	0.006	9.83897172241211	-0.06584054565429687	0.14305354919433594	0.5340576171875	-2.49481201171875	-0.8087158203125	9.937133990478515	0.1304839904785156	-0.023942016601562498	0.972747802734375	-5.138397216796875	-3.177642822265625	10.116100564575195	-0.08140285644531249	-0.42018239135742186	3.4332275390625	-4.581451416015625	-2.124786376953125	
19	0.076	0.0	0.0	0.0	0.0	0.003	0.006	0.003	0.006	9.725247143554688	0.29927520751953124	0.30705636291503907	2.681732177734375	-3.692626953125	-0.77056884765625	9.706093530273437	0.8164227661132812	0.2567781280517578	1.194000244140625	-5.13458251953125	-3.31878662109375	10.034697708129881	0.5374982727050781	-0.22026655273437498	3.551483154296875	-4.669189453125	-1.789093017578125	
20	0.08	0.0	0.0	0.0	0.0	-0.006	0.003	0.006	0.003	9.859920986938477	-0.07242460021972656	0.13467384338378904	0.019073486328125	-2.227783203125	-0.96893310546875	9.952097750854492	0.11252747802734374	-0.04548983154296875	1.0986328125	-4.92095947265625	-3.11279296875	10.14483098449707	-0.06943184814453125	-0.4447229583740234	3.60107421875	-4.96673583984375	-2.044677734375	
21	0.084	0.0	0.0	0.0	0.0	0.012	0.003	0.003	0.003	9.968258612060547	0.20649989318847656	-0.11073182678222655	1.5106201171875	-2.7923583984375	-1.201629638671875	9.719860189819336	0.843956085205078	0.24361001892089842	1.41143798828125	-4.772186279296875	-3.414154052734375	10.038289010620117	0.5847837554931641	-0.22864625854492185	3.688812255859375	-4.79888916015625	-2.040863037109375	
22	0.088	0.0	0.0	0.0	0.0	0.003	0.003	0.003	0.003	9.835380419921874	-0.0652419952392578	0.16639701538085935	-0.02288818359375	-2.0599365234375	-0.865936279296875	9.934739788818359	0.09038111267089843	-0.025737667846679687	0.408172607421875	-5.035400390625	-2.849578857421875	10.02990930480957	0.029328970336914062	-0.2765302917480469	3.543853759765625	-4.82177734375	-2.109527587890625	
23	0.092	0.0	0.0	0.0	0.0	0.003	0.006	0.006	0.003	9.973047015380859	0.17776947326660156	-0.10235212097167969	1.13677978515625	-2.635955810546875	-0.919342041015625	9.708487731933593	0.8493430389404296	0.2699462371826172	0.946044921875	-5.0201416015625	-3.314971923828125	10.035296258544921	0.6147112762451171	-0.2088940948486328	3.56292724609375	-4.573822021484375	-1.880645751953125	
24	0.096	0.0	0.0	0.0	0.0	0.003	0.003	0.006	0.006	9.83897172241211	-0.04369418029785156	0.16220716247558592	3.143310546875	-3.948211669921875	-0.9307861328125	9.80066449584961	0.32022447204589843	0.15562310791015624	0.728607177734375	-5.214691162109375	-2.750396728515625	10.06163247680664	0.08439560852050781	-0.2980781066894531	3.566741943359375	-4.863739013671875	-2.12860107421875	
25	0.1	0.0	0.0	0.0	0.0	0.006	0.003	0.003	0.003	9.950900650024414	0.17298106994628906	-0.0909796630859375	1.117706298828125	-2.559661865234375	-1.010894775390625	9.680954412841796	0.8948328704833984	0.2825157958984375	1.171112060546875	-5.035400390625	-3.509521484375	9.832986218261718	0.40402153015136716	-0.09995791931152344	3.421783447265625	-4.1351318359375	-2.60162353515625	
26	0.10400000000000001	0.0	0.0	0.0	0.0	0.003	0.003	0.003	0.003	9.913790524291992	0.29867665710449215	-0.09457096557617187	2.99072265625	-3.772735595703125	-0.67138671875	9.798270294189452	0.2567781280517578	0.16460136413574217	0.3662109375	-4.96673583984375	-2.79998779296875	10.046070166015625	0.017956512451171875	-0.2902969512939453	3.41796875	-4.94384765625	-2.063751220703125	
27	0.108	0.0	0.0	0.0	0.0	0.0	0.003	0.003	0.003	9.965265859985351	0.16639701538085935	-0.08499415893554688	1.35040283203125	-2.78472900390625	-1.27410888671875	9.668384854125977	0.7906850982666015	0.2699462371826172	1.293182373046875	-4.98199462890625	-3.955841064453125	9.835978970336914	0.3938461730957031	-0.09756371765136718	3.803253173828125	-4.352569580078125	-2.70843505859375	
28	0.112	0.0	0.0	0.0	0.0	0.003	0.006	0.003	0.006	9.936535440063476	0.3908534210205078	-0.11073182678222655	3.11279296875	-4.253387451171875	-0.79345703125	9.794678991699218	0.3190273712158203	0.17477672119140625	0.38909912109375	-5.130767822265625	-2.658843994140625	9.87009634399414	0.2711433380126953	-0.1562216583251953	3.4942626953125	-4.53948974609375	-1.79290771484375	
29	0.116	0.0	0.0	0.0	0.0	0.003	0.006	4.599	4.554	9.90840357055664	0.36152445068359373	0.03531447448730469	5.9661865234375	-5.794525146484375	-0.873565673828125	9.65940659790039	0.776319888305664	0.29568390502929687	1.24359130859375	-4.84466552734375	-3.7994384765625	9.801263046264648	0.35015199279785153	-0.062249243164062495	3.948211669921875	-4.436492919921875	-2.8839111328125	
30	0.12	0.0	0.0	0.0	0.0	4.554	4.611	4.602	4.557	9.955090502929687	0.40581718139648437	-0.08918401184082031	3.444671630859375	-4.413604736328125	-0.79345703125	9.763554370117188	0.5333084197998047	0.06105214233398437	0.553131103515625	-5.153656005859375	-2.361297607421875	9.878476049804688	0.16998831787109375	-0.14604630126953125	3.5400390625	-4.69970703125	-1.678466796875	
31	0.124	0.0	0.0	0.0	0.0	4.557	4.614	4.611	4.53	9.94012674255371	0.3848679168701172	-0.023343466186523436	6.28662109375	-6.0882568359375	-0.98419189453125	9.686939916992188	0.8307879760742187	0.27293898925781246	1.056671142578125	-4.89044189453125	-3.94439697265625	9.846154327392577	0.43035774841308594	-0.11671733093261719	3.475189208984375	-4.482269287109375	-2.330780029296875	
32	0.128	0.0	0.0	0.0	0.0	4.563	4.611	4.614	4.518	9.937133990478515	0.5003881469726562	-0.061650692749023434	3.570556640625	-4.352569580078125	-0.57220458984375	9.744400756835937	0.5662286926269531	0.10414777221679687	0.67138671875	-5.22613525390625	-2.4261474609375	9.86411083984375	0.2328361114501953	-0.12150573425292968	3.42559814453125	-4.37164306640625	-1.5716552734375	
33	0.132	0.0	0.0	0.0	0.0	4.557	4.6080000000000005	4.611	4.545	9.941922393798828	0.4064157318115234	-0.016759411621093748	6.618499755859375	-5.840301513671875	-1.01470947265625	9.860519537353515	0.2759317413330078	0.06643909606933593	0.69427490234375	-4.924774169921875	-3.3721923828125	10.11909331665039	-0.05686228942871093	-0.411802685546875	3.597259521484375	-4.383087158203125	-2.178192138671875	
34	0.136	0.0	0.0	0.0	0.0	4.557	4.617	4.614	4.551	9.94012674255371	0.2741360900878906	0.07422025146484375	4.70733642578125	-5.19561767578125	-0.766754150390625	9.783306533813477	0.5542576843261718	0.07781155395507812	0.80108642578125	-5.420684814453125	-2.4261474609375	9.892841259765625	0.19033903198242186	-0.13168109130859373	3.604888916015625	-4.57000732421875	-1.8463134765625	
35	0.14	0.0	0.0	0.0	0.0	4.557	4.614	4.614	4.557	9.94671079711914	0.39444472351074217	-0.0383072265625	6.6070556640625	-6.28662109375	-1.049041748046875	9.859322436523437	0.29568390502929687	0.07541735229492187	0.850677490234375	-4.8675537109375	-3.360748291015625	10.104728106689452	-0.06584054565429687	-0.4112041351318359	3.44085693359375	-4.566192626953125	-2.071380615234375	
36	0.14400000000000002	0.0	0.0	0.0	0.0	4.548	4.611	4.611	4.5600000000000005	9.912593423461914	0.24480711975097655	0.0987608184814453	4.482269287109375	-5.054473876953125	-0.850677490234375	9.795876092529296	0.6141127258300781	0.2813186950683594	0.820159912109375	-5.222320556640625	-2.47955322265625	10.032902056884765	0.5428852264404297	-0.22744915771484372	3.459930419921875	-4.360198974609375	-1.7547607421875	
37	0.148	0.0	0.0	0.0	0.0	4.5600000000000005	4.614	4.611	4.539	9.983820922851562	0.3399766357421875	-0.06584054565429687	1.514434814453125	-2.9144287109375	-0.988006591796875	9.873089096069336	0.28909985046386716	0.08559270935058594	0.701904296875	-5.1727294921875	-3.231048583984375	10.129867224121092	-0.05805939025878906	-0.4129997863769531	3.589630126953125	-4.50897216796875	-2.34222412109375	
38	0.152	0.0	0.0	0.0	0.0	4.5600000000000005	4.614	4.614	4.524	9.910797772216796	0.17836802368164062	0.12509703674316405	4.505157470703125	-4.81414794921875	-0.9002685546875	9.801861596679688	0.546476528930664	0.27952304382324217	0.560760498046875	-5.19561767578125	-2.651214599609375	10.056844073486328	0.4896142395019531	-0.2262520568847656	3.45611572265625	-4.459381103515625	-1.5411376953125	
39	0.156	0.0	0.0	0.0	0.0	4.563	4.6080000000000005	4.611	4.527	9.82580361328125	-0.3968389251708984	0.07362170104980469	1.3275146484375	-2.7618408203125	-1.079559326171875	9.956287603759765	-0.06404489440917968	-0.08200140686035155	1.148223876953125	-5.01251220703125	-3.269195556640625	10.172962854003906	-0.143652099609375	-0.4225765930175781	3.589630126953125	-4.45556640625	-2.689361572265625	
40	0.16	0.0	0.0	0.0	0.0	4.5600000000000005	4.602	4.614	4.548	9.894038360595703	0.16460136413574217	0.16280571289062498	4.1656494140625	-4.79888916015625	-0.732421875	9.789292037963866	0.6206967803955078	0.2741360900878906	0.2288818359375	-5.138397216796875	-2.22015380859375	10.041281762695311	0.5518634826660156	-0.201112939453125	3.7841796875	-4.535675048828125	-1.766204833984375	
41	0.164	0.0	0.0	0.0	0.0	4.557	4.617	4.611	4.557	9.821015209960937	-0.508169302368164	0.07541735229492187	0.522613525390625	-2.490997314453125	-1.312255859375	9.976638317871092	-0.18435352783203124	-0.1352723937988281	1.361846923828125	-5.039215087890625	-3.246307373046875	10.23401499633789	-0.28371289672851563	-0.5069722015380859	3.978729248046875	-4.85992431640625	-2.410888671875	
42	0.168	0.0	0.0	0.0	0.0	4.557	4.614	4.611	4.551	9.689932669067382	-0.055066638183593745	0.23403321228027343	-0.354766845703125	-1.712799072265625	-1.06048583984375	9.781510882568359	0.5895721588134766	0.31004911499023435	1.255035400390625	-4.825592041015625	-3.33404541015625	9.984419473266602	0.651821401977539	-0.11192892761230468	3.604888916015625	-4.596710205078125	-2.048492431640625	
43	0.17200000000000001	0.0	0.0	0.0	0.0	4.539	4.611	4.605	4.566	9.821015209960937	-0.4644751220703125	0.08738836059570312	0.484466552734375	-2.55584716796875	-1.087188720703125	9.980229620361328	-0.12150573425292968	-0.1466448516845703	1.1444091796875	-4.909515380859375	-3.070831298828125	10.235212097167969	-0.21248539733886718	-0.5231330627441406	3.57818603515625	-4.60052490234375	-2.197265625	
44	0.176	0.0	0.0	0.0	0.0	4.566	4.611	4.611	4.5360000000000005	9.718064538574218	-0.047884033203124995	0.1657984649658203	-0.457763671875	-1.953125	-1.140594482421875	9.589376199340819	0.8379705810546875	0.33758243408203126	1.262664794921875	-4.817962646484375	-2.880096435546875	9.961076007080077	0.6177040283203125	-0.12689268798828124	3.39508056640625	-4.52423095703125	-1.97601318359375	
45	0.18	0.0	0.0	0.0	0.0	4.563	4.614	4.614	4.524	9.832986218261718	-0.5321113189697265	0.07422025146484375	0.286102294921875	-2.0904541015625	-1.178741455078125	9.996989031982421	-0.20769699401855468	-0.13287819213867186	0.67138671875	-3.95965576171875	-3.3721923828125	10.232219345092773	-0.2603694305419922	-0.48183308410644526	3.57818603515625	-4.634857177734375	-2.567291259765625	
46	0.184	0.0	0.0	0.0	0.0	4.557	4.6080000000000005	4.614	4.533	9.734823950195311	-0.058657940673828124	0.16041151123046873	-0.3662109375	-1.689910888671875	-1.10626220703125	9.554660275268555	0.9331400970458984	0.3716998077392578	1.262664794921875	-5.126953125	-2.910614013671875	9.97184991455078	0.719457598876953	-0.11611878051757812	3.36456298828125	-4.611968994140625	-2.0294189453125	
47	0.188	0.0	0.0	0.0	0.0	4.563	4.599	4.614	4.551	9.874884747314452	-0.1592144104003906	0.0526724365234375	-0.431060791015625	-1.865386962890625	-0.6103515625	9.87668039855957	0.020949264526367185	0.10953472595214843	1.010894775390625	-5.115509033203125	-3.0670166015625	10.04846436767578	-0.14963760375976562	-0.20470424194335937	3.631591796875	-4.833221435546875	-1.9378662109375	
48	0.192	0.0	0.0	0.0	0.0	4.557	4.614	4.611	4.554	9.771335525512695	-0.07721300354003906	0.12569558715820311	-0.3662109375	-1.735687255859375	-0.972747802734375	9.551667523193359	0.967257470703125	0.36212300109863277	1.552581787109375	-5.016326904296875	-2.986907958984375	9.975441217041014	0.7505822204589844	-0.0987608184814453	3.51715087890625	-4.474639892578125	-2.185821533203125	
49	0.196	0.0	0.0	0.0	0.0	4.548	4.611	4.611	4.557	9.879673150634765	-0.11372457885742186	0.05805939025878906	0.2899169921875	-2.117156982421875	-0.736236572265625	9.897629663085937	0.09157821350097656	0.10354922180175781	0.946044921875	-4.688262939453125	-3.002166748046875	10.062829577636718	-0.12509703674316405	-0.19931728820800781	3.39508056640625	-4.802703857421875	-1.82342529296875	
50	0.2	0.0	0.0	0.0	0.0	4.557	4.611	4.602	4.554	9.776722479248047	-0.07841010437011718	0.08200140686035155	4.238128662109375	-4.4708251953125	-1.01470947265625	9.661800799560547	1.0085574493408203	0.34656069030761716	1.514434814453125	-4.657745361328125	-4.17327880859375	9.819219558715819	0.23523031311035156	-0.05327098693847656	3.681182861328125	-4.352569580078125	-3.017425537109375	
51	0.20400000000000001	0.0	0.0	0.0	0.0	4.557	4.614	4.614	4.527	9.880271701049804	-0.06284779357910156	0.05566518859863281	0.385284423828125	-2.37274169921875	-0.385284423828125	9.906607919311522	0.21727380065917967	0.08978256225585937	0.9307861328125	-5.08880615234375	-3.170013427734375	10.073004934692381	-0.03591302490234375	-0.19512743530273435	3.620147705078125	-4.8675537109375	-1.91497802734375	
52	0.20800000000000002	0.0	0.0	0.0	0.0	4.563	4.611	4.614	4.521	9.854534033203125	0.296881005859375	0.05626373901367187	4.20379638671875	-4.505157470703125	-1.07574462890625	9.686939916992188	1.1192892761230469	0.3238157745361328	1.31988525390625	-4.825592041015625	-3.986358642578125	9.836577520751952	0.3172317199707031	-0.07122749938964844	3.826141357421875	-4.367828369140625	-2.78472900390625	
53	0.212	0.0	0.0	0.0	0.0	4.566	4.605	4.614	4.542	9.873687646484374	-0.0526724365234375	0.04967968444824218	0.690460205078125	-2.429962158203125	-0.63323974609375	9.798270294189452	0.2567781280517578	0.1005564697265625	0.057220458984375	-5.18798828125	-2.162933349609375	9.861118087768554	0.005985504150390624	-0.17776947326660156	3.543853759765625	-4.566192626953125	-1.67083740234375	
54	0.216	0.0	0.0	0.0	0.0	4.557	4.617	4.617	4.551	9.847949978637695	0.35793314819335936	0.06105214233398437	4.718780517578125	-4.741668701171875	-0.99945068359375	9.683348614501952	1.3186065643310547	0.3399766357421875	1.117706298828125	-4.779815673828125	-3.986358642578125	9.839570272827148	0.4572925170898437	-0.07422025146484375	3.696441650390625	-4.177093505859375	-2.90679931640625	
55	0.22	0.0	0.0	0.0	0.0	4.5600000000000005	4.614	4.614	4.557	9.970652813720703	0.47644613037109373	-0.11731588134765625	4.558563232421875	-5.31005859375	-0.67138671875	9.794678991699218	0.33039982910156246	0.10414777221679687	-0.0152587890625	-5.18798828125	-2.09808349609375	9.855132583618163	0.15981296081542967	-0.1657984649658203	3.337860107421875	-4.7454833984375	-1.6632080078125	
56	0.224	0.0	0.0	0.0	0.0	4.542	4.605	4.6080000000000005	4.566	9.835380419921874	0.5722141967773438	0.030526071166992186	4.79888916015625	-4.791259765625	-0.9918212890625	9.81862100830078	-0.005985504150390624	0.16699556579589842	0.7781982421875	-4.657745361328125	-3.696441650390625	9.826402163696288	0.19812018737792966	-0.08439560852050781	3.559112548828125	-4.390716552734375	-3.009796142578125	
57	0.228	0.0	0.0	0.0	0.0	4.566	4.611	4.614	4.542	9.974244116210937	-0.06943184814453125	-0.1292868896484375	3.15093994140625	-4.44793701171875	-0.705718994140625	9.80665	0.37768531188964843	0.13766659545898435	0.02288818359375	-4.9896240234375	-2.422332763671875	9.90241806640625	0.13766659545898435	-0.15562310791015624	3.467559814453125	-4.608154296875	-2.117156982421875	
58	0.232	0.0	0.0	0.0	0.0	4.5600000000000005	4.614	4.614	4.524	9.847351428222655	0.12569558715820311	0.03950432739257812	3.01361083984375	-4.138946533203125	-0.843048095703125	9.790489138793944	0.33399113159179683	0.1801636749267578	0.667572021484375	-4.871368408203125	-3.971099853515625	10.090362896728514	0.09217676391601562	-0.411802685546875	3.597259521484375	-4.425048828125	-2.25830078125	
59	0.23600000000000002	0.0	0.0	0.0	0.0	4.569	4.6080000000000005	4.614	4.53	9.976638317871092	0.21068974609375	-0.15562310791015624	3.467559814453125	-4.302978515625	-1.026153564453125	9.73661960144043	0.3842693664550781	0.1927332336425781	0.522613525390625	-4.93621826171875	-1.71661376953125	9.828197814941406	0.2442085693359375	-0.14006079711914063	3.696441650390625	-4.497528076171875	-1.766204833984375	
60	0.24	0.0	0.0	0.0	0.0	4.566	4.602	4.614	4.548	9.955090502929687	0.14963760375976562	-0.13826514587402344	5.374908447265625	-5.57708740234375	-0.782012939453125	9.82580361328125	0.15263035583496093	0.21068974609375	0.67138671875	-4.79888916015625	-3.45611572265625	10.13226142578125	-0.16340426330566404	-0.4213794921875	3.509521484375	-4.199981689453125	-1.9683837890625	
61	0.244	0.0	0.0	0.0	0.0	4.5600000000000005	4.611	4.617	4.557	9.991003527832031	0.11372457885742186	-0.15442600708007811	3.814697265625	-4.459381103515625	-0.90789794921875	9.77432827758789	0.19512743530273435	0.16519991455078123	0.217437744140625	-4.974365234375	-1.86920166015625	10.08677159423828	0.42497079467773435	-0.27174188842773433	3.60870361328125	-4.82940673828125	-1.590728759765625	
62	0.248	0.0	0.0	0.0	0.0	4.554	4.611	4.611	4.5600000000000005	9.93952819213867	0.14604630126953125	-0.1406593475341797	5.107879638671875	-5.130767822265625	-0.762939453125	9.777919580078125	0.2759317413330078	-0.19871873779296872	1.529693603515625	-5.02777099609375	-3.208160400390625	10.024522351074218	-0.1131260284423828	-0.34656069030761716	3.574371337890625	-4.4097900390625	-2.410888671875	
63	0.252	0.0	0.0	0.0	0.0	4.545	4.6080000000000005	4.602	4.563	9.974842666625976	0.010773907470703125	-0.11671733093261719	3.265380859375	-4.085540771484375	-0.75531005859375	9.733626849365233	0.33698388366699217	0.18435352783203124	0.507354736328125	-5.13458251953125	-2.063751220703125	10.071209283447265	0.5183446594238281	-0.2645592834472656	3.582000732421875	-4.89044189453125	-1.590728759765625	
64	0.256	0.0	0.0	0.0	0.0	4.563	4.611	4.614	4.5360000000000005	9.96047745666504	0.12389993591308593	-0.14185644836425781	4.82177734375	-5.130767822265625	-0.698089599609375	9.964068759155273	-0.0796072052001953	-0.1753752716064453	1.438140869140625	-5.107879638671875	-2.960205078125	10.263343966674803	-0.058657940673828124	-0.49859249572753905	3.60107421875	-4.695892333984375	-2.079010009765625	
65	0.26	0.0	0.0	0.0	0.0	4.566	4.611	4.614	4.521	9.704896429443359	0.2998737579345703	0.31663316955566406	3.7841796875	-4.31060791015625	-0.957489013671875	9.752181912231444	0.17956512451171874	0.16819266662597654	1.65557861328125	-4.93621826171875	-2.605438232421875	10.022128149414062	0.39863457641601563	-0.28909985046386716	3.459930419921875	-4.69970703125	-1.506805419921875	
66	0.264	0.0	0.0	0.0	0.0	4.557	4.6080000000000005	4.617	4.542	9.941922393798828	0.08499415893554688	-0.08798691101074219	4.978179931640625	-5.3253173828125	-1.064300537109375	9.967061511230469	-0.086191259765625	-0.15382745666503905	1.2054443359375	-4.8675537109375	-3.231048583984375	10.257957012939453	-0.2603694305419922	-0.4997895965576172	3.726959228515625	-4.482269287109375	-2.498626708984375	
67	0.268	0.0	0.0	0.0	0.0	4.563	4.617	4.617	4.548	9.667786303710937	0.16160861206054686	0.3968389251708984	2.696990966796875	-3.925323486328125	-0.728607177734375	9.557653027343749	1.1665747589111328	0.3280056274414062	1.399993896484375	-5.157470703125	-2.49481201171875	10.070012182617187	0.7074865905761718	-0.2807201446533203	3.650665283203125	-4.467010498046875	-2.269744873046875	
68	0.272	0.0	0.0	0.0	0.0	4.5600000000000005	4.614	4.614	4.557	9.91498762512207	-0.44592005920410155	0.008978256225585938	-1.10626220703125	-1.70135498046875	-0.823974609375	9.951499200439452	0.2813186950683594	-0.11133037719726561	1.7547607421875	-4.90570068359375	-3.57818603515625	10.220846887207031	-0.2950853546142578	-0.5285200164794922	3.849029541015625	-4.535675048828125	-2.1209716796875	
69	0.276	0.0	0.0	0.0	0.0	4.551	4.614	4.611	4.563	9.664195001220703	-0.06703764648437499	0.4016273284912109	1.39617919921875	-2.979278564453125	-0.457763671875	9.625289224243163	0.9337386474609375	0.34536358947753903	1.255035400390625	-5.107879638671875	-2.506256103515625	9.931148486328125	0.6548141540527344	-0.040102877807617184	3.597259521484375	-4.741668701171875	-2.292633056640625	
70	0.28	0.0	0.0	0.0	0.0	4.563	4.605	4.611	4.548	9.886257205200195	0.1592144104003906	0.062249243164062495	0.324249267578125	-2.056121826171875	-1.102447509765625	9.999383233642577	0.07841010437011718	0.010773907470703125	0.74005126953125	-5.1727294921875	-3.253936767578125	10.249577307128906	-0.229843359375	-0.4878185882568359	3.72314453125	-4.436492919921875	-2.185821533203125	
71	0.28400000000000003	0.0	0.0	0.0	0.0	4.5600000000000005	4.611	4.614	4.527	9.680954412841796	0.3130418670654297	0.32561142578124996	3.894805908203125	-4.41741943359375	-0.896453857421875	9.637858782958984	0.6374561920166015	0.32082302246093747	0.885009765625	-5.077362060546875	-2.227783203125	9.967660061645507	0.5668272430419922	-0.08499415893554688	3.475189208984375	-4.75311279296875	-2.170562744140625	
72	0.28800000000000003	0.0	0.0	0.0	0.0	4.563	4.611	4.614	4.524	9.821613760375977	-0.29089550170898437	0.14425065002441406	-0.919342041015625	-1.42669677734375	-0.980377197265625	9.907206469726562	0.41838674011230464	0.025139117431640625	0.934600830078125	-5.01251220703125	-3.368377685546875	10.049661468505859	0.10474632263183593	-0.26276363220214843	3.41033935546875	-4.7454833984375	-1.6021728515625	
73	0.292	0.0	0.0	0.0	0.0	4.557	4.605	4.614	0.006	9.87668039855957	0.0005985504150390625	0.07721300354003906	-1.2359619140625	-1.1749267578125	-1.2664794921875	9.73063409729004	0.6165069274902344	0.2537853759765625	1.483917236328125	-5.062103271484375	-3.330230712890625	10.008960040283203	0.43035774841308594	-0.07302315063476562	3.574371337890625	-4.5928955078125	-2.2125244140625	
74	0.296	0.0	0.0	0.0	0.0	0.003	0.003	0.003	0.003	9.828796365356444	-0.040701428222656245	0.14245499877929688	-1.25885009765625	-1.331329345703125	-0.904083251953125	9.941922393798828	0.5183446594238281	-0.022744915771484374	1.407623291015625	-5.252838134765625	-3.2501220703125	10.12507882080078	0.16699556579589842	-0.3345896820068359	3.47137451171875	-4.608154296875	-1.7242431640625	
75	0.3	0.0	0.0	0.0	0.0	0.003	0.003	0.003	0.006	9.867103591918944	0.05746083984375	0.05566518859863281	-0.133514404296875	-1.8463134765625	-1.16729736328125	9.70369932861328	0.5339069702148437	0.2747346405029297	1.1444091796875	-4.947662353515625	-3.36456298828125	9.775525378417969	0.05626373901367187	-0.028730419921875	3.635406494140625	-4.20379638671875	-2.6397705078125	
76	0.304	0.0	0.0	0.0	0.0	0.003	0.006	0.006	0.006	9.805452899169921	-0.18136077575683593	0.1975216369628906	2.445220947265625	-4.039764404296875	-0.545501708984375	9.767145672607422	0.36930560607910157	0.2316390106201172	0.17547607421875	-4.581451416015625	-2.99072265625	10.133458526611328	0.18136077575683593	-0.3327940307617187	3.50189208984375	-4.734039306640625	-1.735687255859375	
77	0.308	0.0	0.0	0.0	0.0	0.006	0.003	0.003	0.006	9.90241806640625	0.031124621582031248	0.03651157531738281	-0.54931640625	-1.461029052734375	-0.965118408203125	9.733626849365233	0.5901707092285156	0.23523031311035156	0.9765625	-4.909515380859375	-3.406524658203125	9.854534033203125	0.020350714111328123	-0.06763619689941405	3.8604736328125	-4.6844482421875	-2.777099609375	
78	0.312	0.0	0.0	0.0	0.0	0.006	0.006	0.003	0.006	9.94072529296875	0.5434837768554687	-0.08798691101074219	2.95257568359375	-4.058837890625	-0.888824462890625	9.718064538574218	0.3190273712158203	0.2603694305419922	0.58746337890625	-5.0201416015625	-2.742767333984375	10.067617980957031	0.2166752502441406	-0.33518823242187495	3.658294677734375	-4.581451416015625	-1.83868408203125	
79	0.316	0.0	0.0	0.0	0.0	0.003	0.003	0.006	0.006	9.888052856445311	0.11372457885742186	0.00239420166015625	0.095367431640625	-2.033233642578125	-1.0986328125	9.649829791259766	0.49200844116210934	0.30526071166992186	0.91552734375	-4.84466552734375	-3.24249267578125	9.813832604980469	0.051475335693359374	-0.06703764648437499	4.116058349609375	-4.55474853515625	-2.655029296875	
80	0.32	0.0	0.0	0.0	0.0	0.006	0.006	0.006	0.003	9.974842666625976	0.36152445068359373	-0.1227028350830078	3.83758544921875	-4.489898681640625	-1.056671142578125	9.788693487548828	0.30346506042480464	0.25797522888183594	0.560760498046875	-5.31005859375	-2.902984619140625	9.83837317199707	0.40940848388671874	-0.027533319091796873	3.692626953125	-4.543304443359375	-2.25830078125	
81	0.324	0.0	0.0	0.0	0.0	0.003	0.003	0.003	0.003	9.983222372436522	0.354341845703125	0.030526071166992186	5.786895751953125	-5.657196044921875	-0.5340576171875	9.689334118652344	0.4435258575439453	0.2561795776367187	0.701904296875	-4.81414794921875	-3.208160400390625	9.813832604980469	0.033518823242187495	-0.05087678527832031	3.57818603515625	-4.49371337890625	-2.60162353515625	
82	0.328	0.0	0.0	0.0	0.0	0.003	0.006	0.003	0.003	9.941323843383788	0.34835634155273437	-0.13168109130859373	3.4332275390625	-4.436492919921875	-0.797271728515625	9.713874685668944	0.40880993347167965	0.15682020874023436	0.698089599609375	-5.115509033203125	-2.79998779296875	9.779116680908203	0.3962403747558593	-0.020949264526367185	3.53240966796875	-4.634857177734375	-1.827239990234375	
83	0.332	0.0	0.0	0.0	0.0	0.003	0.003	0.003	0.006	9.969455712890625	0.5093664031982421	0.04908113403320312	6.55364990234375	-6.084442138671875	-0.5950927734375	9.667786303710937	0.42796354675292964	0.29388825378417965	0.949859619140625	-4.718780517578125	-3.265380859375	10.053851321411132	-0.006584054565429687	-0.28431144714355466	3.57818603515625	-4.398345947265625	-1.987457275390625	
84	0.336	0.0	0.0	0.0	0.0	0.006	0.006	0.003	0.006	10.008960040283203	0.35613749694824215	-0.24181436767578124	4.09698486328125	-4.505157470703125	-0.942230224609375	9.795876092529296	0.3920505218505859	0.0987608184814453	1.186370849609375	-5.084991455078125	-2.64739990234375	9.879074600219726	0.3130418670654297	-0.08379705810546874	3.70025634765625	-4.55474853515625	-2.246856689453125	
85	0.34	0.0	0.0	0.0	0.0	0.009000000000000001	0.003	0.003	0.003	9.98501802368164	0.4387374542236328	-0.0047884033203125	6.404876708984375	-5.98907470703125	-0.652313232421875	9.645041387939452	0.4584896179199218	0.27952304382324217	1.583099365234375	-5.062103271484375	-2.8228759765625	10.050858569335936	0.04967968444824218	-0.31064766540527344	3.734588623046875	-4.444122314453125	-2.0599365234375	
86	0.34400000000000003	0.0	0.0	0.0	0.0	0.006	0.003	0.006	0.003	9.85632968444824	-0.07422025146484375	0.17238251953125	5.126953125	-5.55419921875	-1.071929931640625	9.734823950195311	0.43514615173339843	0.08678981018066406	0.835418701171875	-5.157470703125	-2.716064453125	9.964667309570311	0.26755203552246093	-0.1801636749267578	3.643035888671875	-4.5166015625	-1.972198486328125	
87	0.34800000000000003	0.0	0.0	0.0	0.0	0.003	0.003	0.006	0.006	10.014945544433592	0.23642741394042968	-0.05566518859863281	6.65283203125	-6.191253662109375	-0.75531005859375	9.962871658325195	0.40282442932128903	-0.044292730712890624	1.4801025390625	-5.283355712890625	-2.78472900390625	10.13226142578125	0.08858546142578125	-0.34715924072265625	3.749847412109375	-4.364013671875	-2.06756591796875	
88	0.352	0.0	0.0	0.0	0.0	0.003	0.006	0.003	0.006	9.83777462158203	-0.0047884033203125	0.21906945190429686	5.31005859375	-5.741119384765625	-0.823974609375	9.752181912231444	0.40402153015136716	0.07841010437011718	0.83160400390625	-4.962921142578125	-2.773284912109375	10.06881508178711	0.1406593475341797	-0.23223756103515625	3.5552978515625	-4.73785400390625	-2.38037109375	
89	0.356	0.0	0.0	0.0	0.0	0.006	0.003	0.003	0.003	9.955689053344726	0.34117373657226563	-0.04967968444824218	0.579833984375	-2.803802490234375	-0.736236572265625	9.849745629882811	0.4423287567138672	0.01915361328125	1.373291015625	-5.031585693359375	-2.803802490234375	10.039486111450195	0.2154781494140625	-0.37888241271972656	3.559112548828125	-4.57763671875	-1.964569091796875	
90	0.36	0.0	0.0	0.0	0.0	0.003	0.006	0.003	0.003	9.847351428222655	-0.08020575561523437	0.2346317626953125	5.2947998046875	-5.390167236328125	-0.7781982421875	9.756371765136718	0.5303156677246094	0.33399113159179683	0.644683837890625	-4.993438720703125	-2.92205810546875	10.06881508178711	0.16460136413574217	-0.23104046020507812	3.5247802734375	-4.665374755859375	-2.17437744140625	
91	0.364	0.0	0.0	0.0	0.0	0.0	0.003	0.003	0.003	9.898228213500976	-0.37289690856933594	-0.11791443176269531	0.57220458984375	-2.3956298828125	-1.415252685546875	9.931148486328125	0.3812766143798828	-0.061650692749023434	1.4190673828125	-5.1116943359375	-2.841949462890625	10.262745416259765	0.1592144104003906	-0.5225345123291015	3.696441650390625	-4.4708251953125	-2.109527587890625	
92	0.368	0.0	0.0	0.0	0.0	0.006	0.006	0.003	0.003	9.78031378173828	-0.316034619140625	0.277727392578125	4.1351318359375	-4.8828125	-0.698089599609375	9.718064538574218	0.5189432098388671	0.2962824554443359	1.094818115234375	-5.11932373046875	-3.1890869140625	9.957484704589843	0.15682020874023436	-0.22565350646972654	3.74603271484375	-4.467010498046875	-2.231597900390625	
93	0.372	0.0	0.0	0.0	0.0	0.0	0.003	0.003	0.006	9.8311905670166	-0.12389993591308593	0.0047884033203125	-0.1373291015625	-2.002716064453125	-0.789642333984375	9.885658654785155	0.47644613037109373	-0.062249243164062495	1.36566162109375	-4.947662353515625	-3.35693359375	10.143035333251953	0.28730419921875	-0.527322915649414	3.76129150390625	-4.627227783203125	-1.8463134765625	
94	0.376	0.0	0.0	0.0	0.0	0.003	0.003	0.003	0.006	9.679757312011718	-0.17657237243652343	0.354341845703125	-1.194000244140625	-1.239776611328125	-1.247406005859375	9.83777462158203	0.42975919799804685	0.26216508178710934	0.87738037109375	-5.077362060546875	-2.956390380859375	10.137049829101562	0.14604630126953125	-0.14245499877929688	3.620147705078125	-4.497528076171875	-1.739501953125	
95	0.38	0.0	0.0	0.0	0.0	0.003	0.003	0.003	0.006	9.827000714111328	-0.4381389038085937	0.06464344482421874	-0.530242919921875	-1.46484375	-1.041412353515625	9.904213717651366	0.4495113616943359	-0.010175357055664061	1.48773193359375	-5.19561767578125	-3.3721923828125	10.150217938232421	0.2292448089599609	-0.489015689086914	3.421783447265625	-4.436492919921875	-2.094268798828125	
96	0.384	0.0	0.0	0.0	0.0	0.003	0.006	0.003	0.006	9.668983404541015	0.2651578338623047	0.3489548919677734	-1.377105712890625	-1.003265380859375	-1.1138916015625	9.732429748535155	0.642244595336914	0.20171148986816406	0.84686279296875	-4.638671875	-3.19671630859375	9.969455712890625	0.33099837951660155	-0.15203180541992187	3.528594970703125	-4.5623779296875	-1.8310546875	
97	0.388	0.0	0.0	0.0	0.0	0.006	0.003	0.003	0.006	9.80066449584961	-0.20171148986816406	0.14125789794921875	-0.576019287109375	-1.750946044921875	-1.02996826171875	9.92755718383789	0.411802685546875	0.040102877807617184	1.392364501953125	-5.077362060546875	-3.2501220703125	10.123881719970703	0.05805939025878906	-0.49380409240722656	3.444671630859375	-4.76837158203125	-2.06756591796875	
98	0.392	0.0	0.0	0.0	0.0	0.003	0.003	0.003	0.006	9.76894132385254	-0.20171148986816406	0.2861070983886719	-2.0904541015625	-0.484466552734375	-1.117706298828125	9.83777462158203	0.5093664031982421	0.19632453613281248	0.86212158203125	-5.069732666015625	-3.53240966796875	10.133458526611328	0.20649989318847656	-0.18255787658691405	3.520965576171875	-4.7607421875	-2.063751220703125	
99	0.396	0.0	0.0	0.0	0.0	0.006	0.003	0.003	0.003	9.913191973876952	0.6853402252197265	-0.09157821350097656	1.129150390625	-2.742767333984375	-0.86212158203125	9.674968908691406	0.469263525390625	0.2855085479736328	0.347137451171875	-4.974365234375	-3.025054931640625	10.015544094848632	0.14245499877929688	-0.5776011505126952	3.498077392578125	-4.749298095703125	-2.13623046875	
100	0.4	0.0	0.0	0.0	0.0	0.0	0.003	0.003	0.003	9.782707983398437	0.22565350646972654	0.2747346405029297	-0.83160400390625	-1.373291015625	-1.247406005859375	9.803657247924804	0.517746109008789	0.2154781494140625	0.873565673828125	-4.795074462890625	-3.238677978515625	10.050858569335936	0.26815058593749996	-0.14784195251464843	3.719329833984375	-4.12750244140625	-2.3040771484375	
101	0.404	0.0	0.0	0.0	0.0	0.006	0.006	0.006	0.003	10.032902056884765	-0.007781155395507812	-0.21188684692382811	0.881195068359375	-2.895355224609375	-0.9613037109375	9.852139831542969	0.3716998077392578	0.19153613281249998	0.392913818359375	-5.001068115234375	-2.895355224609375	10.162188946533202	-0.040102877807617184	-0.5147533569335937	3.604888916015625	-4.8065185546875	-2.468109130859375	
102	0.40800000000000003	0.0	0.0	0.0	0.0	0.006	0.006	0.006	0.003	9.862315188598632	0.076614453125	0.15382745666503905	5.352020263671875	-0.621795654296875	-0.8544921875	9.704297879028319	0.430956298828125	0.08798691101074219	0.789642333984375	-4.726409912109375	-3.0059814453125	9.700108026123047	0.47165772705078124	0.058657940673828124	3.688812255859375	-4.34112548828125	-2.346038818359375	
103	0.41200000000000003	0.0	0.0	0.0	0.0	0.003	0.006	0.006	0.006	9.980229620361328	0.8810662109374999	-0.18555062866210936	3.955841064453125	-4.589080810546875	-1.0833740234375	9.698910925292969	0.4213794921875	0.2855085479736328	0.11444091796875	-5.0201416015625	-2.73895263671875	9.974244116210937	0.008379705810546874	-0.37409400939941406	3.70025634765625	-4.57763671875	-2.185821533203125	
104	0.41600000000000004	0.0	0.0	0.0	0.0	0.003	0.003	0.003	0.006	9.96586441040039	0.0005985504150390625	-0.06823474731445311	6.7291259765625	-6.21795654296875	-0.91552734375	9.74200655517578	0.4082113830566406	0.12868833923339842	1.12152099609375	-4.940032958984375	-3.0059814453125	9.848548529052733	0.4159925384521484	0.028131869506835935	3.520965576171875	-4.58526611328125	-2.552032470703125	
105	0.42	0.0	0.0	0.0	0.0	0.006	0.003	0.006	0.009000000000000001	10.025719451904296	0.08738836059570312	-0.25139117431640623	3.108978271484375	-4.047393798828125	-0.926971435546875	9.750386260986328	0.4435258575439453	0.229843359375	1.079559326171875	-4.970550537109375	-3.15093994140625	9.859322436523437	-0.055066638183593745	-0.05087678527832031	3.6163330078125	-4.669189453125	-2.201080322265625	
106	0.424	0.0	0.0	0.0	0.0	0.003	0.003	0.003	0.003	9.932345587158203	0.5704185455322265	-0.1131260284423828	6.1798095703125	-6.114959716796875	-0.5035400390625	9.644442837524414	0.4860229370117187	0.15981296081542967	0.8697509765625	-4.749298095703125	-3.204345703125	9.68514426574707	0.5686228942871093	0.13646949462890623	3.48663330078125	-4.390716552734375	-2.506256103515625	
107	0.428	0.0	0.0	0.0	0.0	0.0	0.003	0.003	0.006	9.874884747314452	0.04249707946777344	0.054468087768554684	6.3323974609375	-6.832122802734375	-1.36566162109375	9.753379013061522	0.4159925384521484	0.059256491088867186	1.01470947265625	-5.184173583984375	-2.70843505859375	9.858125335693359	-0.047285482788085934	0.010773907470703125	3.509521484375	-4.70733642578125	-2.002716064453125	
108	0.432	0.0	0.0	0.0	0.0	0.006	0.003	0.006	0.006	9.903615167236328	-0.04908113403320312	0.047884033203124995	7.48443603515625	-6.786346435546875	-1.53350830078125	9.752181912231444	0.4291606475830078	0.06464344482421874	1.514434814453125	-5.0201416015625	-2.9449462890625	10.178349807739258	0.27952304382324217	-0.3238157745361328	3.612518310546875	-4.459381103515625	-2.55584716796875	
109	0.436	0.0	0.0	0.0	0.0	0.003	0.003	0.003	0.003	9.872490545654296	-0.7026981872558593	0.06404489440917968	0.667572021484375	-2.95257568359375	-0.518798828125	9.581595043945311	0.49799394531249996	0.19153613281249998	1.285552978515625	-4.99725341796875	-3.0975341796875	9.763554370117188	0.022146365356445312	0.027533319091796873	3.45611572265625	-4.550933837890625	-2.048492431640625	
110	0.44	0.0	0.0	0.0	0.0	0.003	0.003	0.003	0.006	9.859920986938477	-0.12569558715820311	0.11432312927246092	3.173828125	-4.116058349609375	-0.06866455078125	9.80605144958496	0.5315127685546874	0.20350714111328125	1.918792724609375	-5.11932373046875	-3.261566162109375	10.084377392578125	0.3537432952880859	-0.33518823242187495	3.54766845703125	-4.322052001953125	-2.197265625	
111	0.444	0.0	0.0	0.0	0.0	0.003	0.003	0.006	0.003	9.892841259765625	0.3597287994384765	0.08200140686035155	4.73785400390625	-5.1116943359375	-1.48773193359375	9.783905084228515	0.3585316986083984	0.09457096557617187	1.766204833984375	-5.157470703125	-3.200531005859375	9.871293444824218	0.19333178405761717	-0.30526071166992186	3.7689208984375	-4.669189453125	-1.6632080078125	
112	0.448	0.0	0.0	0.0	0.0	0.006	0.003	0.003	0.003	9.813234054565429	-0.4423287567138672	0.18076222534179687	0.457763671875	-2.11334228515625	-1.47247314453125	9.822212310791015	0.5668272430419922	0.22086510314941404	1.18255615234375	-4.98199462890625	-2.8533935546875	10.04906291809082	0.33578678283691404	-0.20470424194335937	3.48663330078125	-4.077911376953125	-2.3193359375	
113	0.452	0.0	0.0	0.0	0.0	0.006	0.003	0.006	0.003	9.765948571777344	-0.8702923034667969	0.3172317199707031	-0.293731689453125	-2.0904541015625	-1.132965087890625	9.764152920532226	0.4100070343017578	0.5584475372314452	0.255584716796875	-4.985809326171875	-3.337860107421875	10.037091909790039	0.2711433380126953	-0.2214636535644531	3.772735595703125	-4.772186279296875	-1.911163330078125	
114	0.456	0.0	0.0	0.0	0.0	0.003	0.003	0.006	0.003	9.87608184814453	-0.04848258361816406	0.05626373901367187	-1.9073486328125	-0.812530517578125	-0.263214111328125	9.866505041503906	0.489015689086914	0.3010708587646484	1.54876708984375	-4.70733642578125	-3.459930419921875	10.075399136352539	0.20530279235839843	-0.1693897674560547	3.650665283203125	-3.971099853515625	-2.44140625	
115	0.46	0.0	0.0	0.0	0.0	0.009000000000000001	0.003	0.006	0.003	9.934739788818359	-0.05805939025878906	0.09636661682128905	6.267547607421875	-1.60980224609375	-0.31280517578125	9.947907897949218	0.23702596435546874	0.39264907226562495	0.522613525390625	-4.89044189453125	-2.704620361328125	10.099341152954102	0.25737667846679685	-0.23702596435546874	3.70025634765625	-4.833221435546875	-1.62506103515625	
116	0.464	0.0	0.0	0.0	0.0	0.003	0.003	0.006	0.003	9.896432562255859	0.7775169891357422	-0.08858546142578125	4.535675048828125	-4.657745361328125	-1.331329345703125	9.90181951599121	0.6560112548828124	-0.05386953735351562	0.762939453125	-4.93621826171875	-2.513885498046875	10.192715017700195	0.04908113403320312	-0.7242460021972655	3.940582275390625	-4.581451416015625	-2.78472900390625	
117	0.468	0.0	0.0	0.0	0.0	0.003	0.003	0.003	0.003	9.67197615661621	0.17657237243652343	0.36212300109863277	3.894805908203125	-4.703521728515625	-0.965118408203125	9.829394915771484	0.32082302246093747	0.42497079467773435	-0.423431396484375	-4.886627197265625	-2.399444580078125	10.031704956054687	0.33099837951660155	-0.16280571289062498	3.45611572265625	-4.283905029296875	-1.514434814453125	
118	0.47200000000000003	0.0	0.0	0.0	0.0	0.003	0.003	0.003	0.006	9.889249957275391	-0.14963760375976562	-0.05386953735351562	1.491546630859375	-3.3416748046875	-0.972747802734375	9.91498762512207	0.6242880828857421	-0.08858546142578125	1.079559326171875	-4.673004150390625	-3.082275390625	10.244788903808594	-0.02154781494140625	-0.6476315490722656	3.688812255859375	-4.52423095703125	-2.475738525390625	
119	0.47600000000000003	0.0	0.0	0.0	0.0	0.003	0.003	0.003	0.003	9.679158761596678	0.2861070983886719	0.39264907226562495	1.7852783203125	-3.24249267578125	-0.659942626953125	9.749787710571288	0.47105917663574215	0.2507926239013672	0.797271728515625	-5.13458251953125	-3.16619873046875	10.039486111450195	0.5333084197998047	-0.2292448089599609	3.4027099609375	-4.741668701171875	-1.9073486328125	
120	0.48	0.0	0.0	0.0	0.0	0.006	0.003	0.003	0.003	9.87069489440918	0.5135562561035156	0.08738836059570312	2.109527587890625	-3.31878662109375	-0.98419189453125	9.899425314331054	0.6925228302001952	0.0017956512451171875	1.70135498046875	-5.218505859375	-3.002166748046875	10.20229182434082	0.01915361328125	-0.6165069274902344	3.597259521484375	-4.6234130859375	-2.43377685546875	
121	0.484	0.0	0.0	0.0	0.0	0.003	0.006	0.006	0.006	9.731232647705077	0.49200844116210934	0.28730419921875	3.818511962890625	-4.619598388671875	-1.140594482421875	9.765948571777344	0.3872621185302734	0.31483751831054685	0.171661376953125	-4.87518310546875	-2.9144287109375	10.041281762695311	0.49021278991699213	-0.201112939453125	3.5400390625	-4.650115966796875	-1.941680908203125	
122	0.488	0.0	0.0	0.0	0.0	0.003	0.006	0.003	0.006	9.880870251464843	0.2825157958984375	0.07900865478515624	1.918792724609375	-3.23486328125	-1.06048583984375	9.909600671386718	0.5099649536132812	-0.11552023010253906	0.49591064453125	-4.886627197265625	-2.99835205078125	10.096348400878906	-0.05566518859863281	-0.4722562774658203	3.452301025390625	-4.79888916015625	-1.83868408203125	
123	0.492	0.0	0.0	0.0	0.0	0.006	0.006	0.003	0.006	9.6779616607666	0.40462008056640625	0.28730419921875	3.37982177734375	-4.3182373046875	-0.873565673828125	9.623493572998047	0.49859249572753905	0.430956298828125	0.164031982421875	-4.8980712890625	-2.681732177734375	9.943119494628906	0.536899722290039	-0.13407529296874998	3.360748291015625	-4.63104248046875	-2.11334228515625	
124	0.496	0.0	0.0	0.0	0.0	0.003	0.003	0.006	0.006	9.83238766784668	0.5410895751953124	0.19512743530273435	1.865386962890625	-3.414154052734375	-0.9307861328125	9.887454306030273	0.5327098693847656	-0.0430956298828125	0.942230224609375	-5.035400390625	-2.994537353515625	10.078391888427733	0.018555062866210937	-0.41898529052734373	3.41033935546875	-5.08880615234375	-1.80816650390625	
125	0.5	0.0	0.0	0.0	0.0	0.003	0.003	0.006	0.006	9.913191973876952	-0.09217676391601562	-0.07362170104980469	2.11334228515625	-3.27301025390625	-1.40380859375	9.702502227783203	0.5003881469726562	0.3806780639648437	1.15203857421875	-5.107879638671875	-3.589630126953125	10.071209283447265	0.44891281127929683	-0.21188684692382811	3.726959228515625	-4.756927490234375	-2.040863037109375	
126	0.504	0.0	0.0	0.0	0.0	0.003	0.006	0.003	0.006	9.784503634643555	0.18614917907714842	0.32441432495117184	0.926971435546875	-2.574920654296875	-1.071929931640625	9.83837317199707	0.489015689086914	-0.0053869537353515625	0.797271728515625	-5.084991455078125	-3.1585693359375	10.032902056884765	0.044292730712890624	-0.39983167724609375	3.429412841796875	-4.779815673828125	-1.911163330078125	
127	0.508	0.0	0.0	0.0	0.0	0.003	0.006	0.003	0.006	9.871293444824218	-0.2747346405029297	-0.00239420166015625	0.186920166015625	-2.498626708984375	-0.640869140625	9.670180505371093	0.4644751220703125	0.17776947326660156	1.06048583984375	-4.81414794921875	-3.345489501953125	9.78031378173828	0.18136077575683593	-0.011971008300781249	3.875732421875	-4.66156005859375	-2.5482177734375	
128	0.512	0.0	0.0	0.0	0.0	0.003	0.006	0.006	0.006	9.889848507690429	0.05566518859863281	0.10773907470703124	3.269195556640625	-1.995086669921875	-0.70953369140625	9.9078050201416	0.4417302062988281	-0.040102877807617184	1.186370849609375	-5.14984130859375	-3.85284423828125	10.0748005859375	0.020350714111328123	-0.39324762268066404	3.631591796875	-4.718780517578125	-1.834869384765625	
129	0.516	0.0	0.0	0.0	0.0	0.0	0.003	0.006	0.003	9.886855755615233	-0.005985504150390624	-0.003591302490234375	2.78472900390625	-3.631591796875	-0.8697509765625	9.694721072387695	0.38367081604003905	0.22505495605468748	0.9613037109375	-4.810333251953125	-3.215789794921875	9.816226806640625	0.11372457885742186	-0.0430956298828125	3.864288330078125	-4.486083984375	-2.52532958984375	
130	0.52	0.0	0.0	0.0	0.0	0.003	0.003	0.003	0.003	9.968258612060547	0.06284779357910156	-0.21009119567871093	3.902435302734375	-4.779815673828125	-0.83160400390625	9.735422500610351	0.4159925384521484	0.09756371765136718	0.91552734375	-5.100250244140625	-2.78472900390625	9.809642752075195	0.3573345977783203	-0.00718260498046875	3.5552978515625	-4.53948974609375	-1.773834228515625	
131	0.524	0.0	0.0	0.0	0.0	0.006	0.006	0.003	0.003	9.841964474487304	0.0047884033203125	0.07601590270996093	3.238677978515625	-4.0130615234375	-0.6866455078125	9.714473236083984	0.3812766143798828	0.2184709014892578	1.0986328125	-4.6844482421875	-3.28826904296875	9.854534033203125	0.07422025146484375	-0.011372457885742187	3.77655029296875	-4.329681396484375	-2.35748291015625	
132	0.528	0.0	0.0	0.0	0.0	0.003	0.003	0.006	0.003	10.003573086547851	0.2346317626953125	-0.20709844360351562	4.08935546875	-4.940032958984375	-0.9765625	9.813832604980469	0.36212300109863277	0.011971008300781249	1.270294189453125	-5.519866943359375	-2.9144287109375	9.91558617553711	0.33099837951660155	-0.05327098693847656	3.582000732421875	-4.611968994140625	-1.861572265625	
133	0.532	0.0	0.0	0.0	0.0	0.003	0.006	0.003	0.006	9.783306533813477	0.03232172241210937	-0.12509703674316405	4.947662353515625	-4.985809326171875	-0.8544921875	9.811438403320311	0.41419688720703124	0.11252747802734374	1.0528564453125	-4.680633544921875	-3.24249267578125	10.120888967895507	-0.032920272827148434	-0.3842693664550781	3.66973876953125	-4.53948974609375	-2.109527587890625	
134	0.536	0.0	0.0	0.0	0.0	0.003	0.006	0.006	0.006	9.997587582397461	0.1370680450439453	-0.1514332550048828	4.405975341796875	-5.0811767578125	-0.743865966796875	9.798270294189452	0.33578678283691404	0.02693476867675781	1.018524169921875	-5.275726318359375	-2.6092529296875	9.859920986938477	0.3842693664550781	-0.086191259765625	3.612518310546875	-4.70733642578125	-2.063751220703125	
135	0.54	0.0	0.0	0.0	0.0	0.006	0.003	0.003	0.006	9.98501802368164	-0.08379705810546874	-0.15083470458984374	4.913330078125	-5.062103271484375	-0.743865966796875	9.839570272827148	0.41060558471679687	0.08858546142578125	1.186370849609375	-4.669189453125	-3.3416748046875	10.147823736572265	-0.11013327636718749	-0.4004302276611328	3.765106201171875	-4.44793701171875	-2.3651123046875	
136	0.544	0.0	0.0	0.0	0.0	0.006	2.007	4.593	4.548	10.031704956054687	0.10295067138671875	-0.17058686828613281	4.4403076171875	-5.100250244140625	-0.797271728515625	9.84435867614746	0.3806780639648437	0.23403321228027343	0.316619873046875	-5.344390869140625	-2.3956298828125	9.858125335693359	0.39803602600097654	-0.07003039855957031	3.307342529296875	-4.535675048828125	-2.124786376953125	
137	0.548	0.0	0.0	0.0	0.0	4.554	4.6080000000000005	4.611	4.53	9.925162982177733	-0.5249287139892578	-0.07242460021972656	4.314422607421875	-4.856109619140625	-0.9918212890625	9.796474642944336	0.5009866973876953	0.11671733093261719	1.033782958984375	-4.66156005859375	-3.37982177734375	10.144232434082031	-0.08738836059570312	-0.4740519287109375	3.467559814453125	-4.375457763671875	-2.1514892578125	
138	0.552	0.0	0.0	0.0	0.0	4.566	4.605	4.605	4.524	9.742605105590819	-0.18614917907714842	0.2932897033691406	1.949310302734375	-3.116607666015625	-0.1678466796875	9.860519537353515	0.2950853546142578	0.19812018737792966	0.5645751953125	-5.176544189453125	-2.651214599609375	10.072406384277343	0.36391865234375	-0.3327940307617187	3.63922119140625	-4.8065185546875	-2.307891845703125	
139	0.556	0.0	0.0	0.0	0.0	4.566	4.605	4.6080000000000005	4.548	9.918578927612304	-0.9612719665527343	-0.07721300354003906	2.3651123046875	-3.50189208984375	-0.820159912109375	9.950302099609374	0.5590460876464843	-0.1083376251220703	1.811981201171875	-5.016326904296875	-3.23486328125	10.184335311889647	-0.0526724365234375	-0.49859249572753905	3.5858154296875	-4.497528076171875	-2.056121826171875	
140	0.56	0.0	0.0	0.0	0.0	4.5600000000000005	4.614	4.614	4.548	9.71028338317871	0.002992752075195312	0.3387795349121094	2.70843505859375	-3.662109375	-0.57220458984375	9.855132583618163	0.39803602600097654	0.21727380065917967	0.553131103515625	-5.062103271484375	-2.74658203125	10.110713610839843	0.38247371520996093	-0.3555389465332031	3.696441650390625	-4.528045654296875	-1.941680908203125	
141	0.5640000000000001	0.0	0.0	0.0	0.0	4.557	4.611	4.614	4.554	9.965265859985351	-0.1083376251220703	-0.13946224670410157	3.91387939453125	-4.802703857421875	-1.110076904296875	10.001777435302733	0.4644751220703125	-0.13467384338378904	1.468658447265625	-4.749298095703125	-3.192901611328125	10.111910711669921	0.06823474731445311	-0.2723404388427734	3.50189208984375	-4.512786865234375	-2.105712890625	
142	0.5680000000000001	0.0	0.0	0.0	0.0	4.548	4.611	4.605	4.563	9.679757312011718	0.05087678527832031	0.3854664672851562	3.7841796875	-4.0283203125	-0.850677490234375	9.579200842285156	0.6482300994873047	0.3286041778564453	0.583648681640625	-5.001068115234375	-2.86865234375	10.05564697265625	0.4070142822265625	-0.36691140441894526	3.559112548828125	-4.573822021484375	-2.147674560546875	
143	0.5720000000000001	0.0	0.0	0.0	0.0	4.563	4.611	4.611	4.545	9.911994873046874	-0.32082302246093747	-0.013766659545898436	-1.1749267578125	-1.239776611328125	-1.03759765625	9.95987890625	0.46806642456054687	-0.086191259765625	1.45721435546875	-5.191802978515625	-2.925872802734375	10.044873065185547	0.14604630126953125	-0.21068974609375	3.7994384765625	-4.547119140625	-2.124786376953125	
144	0.5760000000000001	0.0	0.0	0.0	0.0	4.5600000000000005	4.611	4.614	4.53	9.731232647705077	-0.029328970336914062	0.28490999755859375	2.857208251953125	-3.963470458984375	-0.835418701171875	9.606734161376952	0.6853402252197265	0.32441432495117184	0.8087158203125	-5.275726318359375	-3.070831298828125	10.052055670166014	0.18914193115234373	-0.15023615417480468	3.345489501953125	-4.7760009765625	-2.040863037109375	
145	0.58	0.0	0.0	0.0	0.0	4.566	4.6080000000000005	4.614	4.53	9.92217023010254	-0.24301146850585936	-0.0383072265625	-1.125335693359375	-1.522064208984375	-1.087188720703125	9.93354268798828	0.37229835815429685	0.031124621582031248	1.3427734375	-5.11932373046875	-3.41033935546875	10.11849476623535	0.15382745666503905	-0.3124433166503906	3.627777099609375	-4.69207763671875	-1.9378662109375	
146	0.584	0.0	0.0	0.0	0.0	4.569	4.599	4.611	4.551	9.67137760620117	0.025737667846679687	0.12868833923339842	0.35858154296875	-2.338409423828125	-1.132965087890625	9.572018237304688	0.6350619903564453	0.3399766357421875	0.499725341796875	-5.04302978515625	-2.864837646484375	9.919177478027343	0.24121581726074218	-0.033518823242187495	3.513336181640625	-4.428863525390625	-2.185821533203125	
147	0.588	0.0	0.0	0.0	0.0	4.5600000000000005	4.611	4.614	4.554	9.90840357055664	-0.014963760375976562	0.011372457885742187	-0.3509521484375	-1.861572265625	-1.224517822265625	9.91558617553711	0.4800374328613281	0.05686228942871093	1.12152099609375	-4.848480224609375	-3.322601318359375	10.20827732849121	0.17417817077636719	-0.47704468078613277	3.50189208984375	-4.741668701171875	-1.789093017578125	
148	0.592	0.0	0.0	0.0	0.0	4.557	4.611	4.611	4.557	9.8449572265625	-0.14305354919433594	0.16280571289062498	-0.335693359375	-2.048492431640625	-1.30462646484375	9.676764559936522	0.6159083770751953	0.24959552307128904	0.644683837890625	-4.7760009765625	-3.3111572265625	10.002974536132811	0.19333178405761717	-0.040701428222656245	3.589630126953125	-4.688262939453125	-2.079010009765625	
149	0.596	0.0	0.0	0.0	0.0	4.545	0.003	0.003	0.003	9.813832604980469	-0.11073182678222655	0.10115502014160156	-1.68609619140625	-0.8544921875	-1.041412353515625	9.841365924072266	0.49679684448242184	0.054468087768554684	1.270294189453125	-5.035400390625	-3.39508056640625	9.983820922851562	0.3495534423828125	-0.23104046020507812	3.41033935546875	-4.878997802734375	-2.08282470703125	
150	0.6	0.0	0.0	0.0	0.0	0.003	0.003	0.006	0.009000000000000001	9.80605144958496	0.08259995727539061	0.1801636749267578	-0.80108642578125	-1.5106201171875	-1.12152099609375	9.662997900390625	0.5686228942871093	0.2549824768066406	0.92315673828125	-5.08880615234375	-3.368377685546875	9.950900650024414	0.22385785522460935	-0.08259995727539061	3.589630126953125	-4.90570068359375	-2.086639404296875	
151	0.604	0.0	0.0	0.0	0.0	0.006	0.003	0.003	0.003	9.980229620361328	0.469263525390625	-0.06045359191894531	2.41851806640625	-3.635406494140625	-0.919342041015625	9.947907897949218	0.4417302062988281	0.07422025146484375	0.86212158203125	-4.92095947265625	-3.30352783203125	10.101136804199218	0.297479556274414	-0.3435679382324219	3.631591796875	-4.82177734375	-1.861572265625	
152	0.608	0.0	0.0	0.0	0.0	0.006	0.006	0.003	0.006	9.886257205200195	0.1945288848876953	0.07302315063476562	-0.232696533203125	-1.8768310546875	-1.3275146484375	9.745597857666015	0.5632359405517577	0.2507926239013672	0.591278076171875	-4.55474853515625	-3.452301025390625	9.82520506286621	-0.0053869537353515625	0.008379705810546874	3.742218017578125	-4.474639892578125	-2.685546875	
153	0.612	0.0	0.0	0.0	0.0	0.006	0.003	0.003	0.003	9.913790524291992	0.5548562347412109	-0.051475335693359374	2.9449462890625	-3.856658935546875	-0.79345703125	9.688735568237304	0.39983167724609375	0.21966800231933592	0.400543212890625	-5.07354736328125	-2.971649169921875	9.93414123840332	0.41539398803710936	-0.31064766540527344	3.6163330078125	-4.96673583984375	-2.124786376953125	
154	0.616	0.0	0.0	0.0	0.0	0.003	0.003	0.003	0.006	9.928754284667969	-0.052073886108398436	0.03531447448730469	-0.8392333984375	-1.48773193359375	-0.9918212890625	9.777321029663085	0.565630142211914	0.18375497741699218	0.63323974609375	-5.077362060546875	-3.01361083984375	9.82580361328125	0.059256491088867186	-0.029927520751953124	3.662109375	-4.398345947265625	-2.262115478515625	
155	0.62	0.0	0.0	0.0	0.0	0.003	0.003	0.003	0.003	10.016142645263672	0.3399766357421875	-0.14544775085449219	2.674102783203125	-3.803253173828125	-0.81634521484375	9.819818109130859	0.33518823242187495	0.17178396911621094	0.850677490234375	-4.81414794921875	-3.04412841796875	9.986215124511718	0.2723404388427734	-0.06943184814453125	3.5247802734375	-4.6844482421875	-2.20489501953125	
156	0.624	0.0	0.0	0.0	0.0	0.003	0.006	0.006	0.006	9.95389340209961	0.40761283264160153	0.044292730712890624	6.000518798828125	-5.725860595703125	-0.57220458984375	9.72345149230957	0.49320554199218747	0.21128829650878905	0.804901123046875	-4.99725341796875	-3.08990478515625	9.776123928833007	0.11073182678222655	-0.006584054565429687	3.6773681640625	-4.543304443359375	-2.288818359375	
157	0.628	0.0	0.0	0.0	0.0	0.006	0.003	0.003	0.003	9.931148486328125	0.5440823272705078	-0.13168109130859373	3.9215087890625	-4.360198974609375	-1.079559326171875	9.686341366577148	0.4381389038085937	0.2537853759765625	0.598907470703125	-4.93621826171875	-3.108978271484375	9.78031378173828	0.3399766357421875	0.016160861206054686	3.650665283203125	-4.58526611328125	-2.14385986328125	
158	0.632	0.0	0.0	0.0	0.0	0.003	0.003	0.006	0.003	10.001178884887695	0.24181436767578124	-0.00239420166015625	5.954742431640625	-5.77545166015625	-0.78582763671875	9.801861596679688	0.39983167724609375	0.14963760375976562	0.58746337890625	-4.90570068359375	-3.139495849609375	9.918578927612304	0.08140285644531249	-0.029328970336914062	3.704071044921875	-4.589080810546875	-2.02178955078125	
159	0.636	0.0	0.0	0.0	0.0	0.003	0.003	0.003	0.003	10.092158547973632	0.5303156677246094	0.018555062866210937	5.214691162109375	-5.88226318359375	-0.9002685546875	9.797073193359374	0.4267664459228515	0.13168109130859373	0.667572021484375	-5.069732666015625	-2.994537353515625	9.916783276367187	0.18555062866210936	-0.08978256225585937	3.3111572265625	-4.72259521484375	-2.170562744140625	
160	0.64	0.0	0.0	0.0	0.0	0.009000000000000001	0.003	0.006	0.003	9.95389340209961	0.5297171173095703	0.0005985504150390625	6.832122802734375	-6.34765625	-0.621795654296875	9.636661682128906	0.5003881469726562	0.14305354919433594	0.7781982421875	-4.95147705078125	-3.02886962890625	10.032303506469725	0.28790274963378903	-0.4225765930175781	3.932952880859375	-4.398345947265625	-1.895904541015625	
161	0.644	0.0	0.0	0.0	0.0	0.003	0.003	0.006	0.003	9.910797772216796	-0.0430956298828125	0.031124621582031248	5.588531494140625	-6.008148193359375	-0.766754150390625	9.821015209960937	0.4537012145996093	-0.00239420166015625	0.942230224609375	-5.138397216796875	-2.674102783203125	9.988010775756836	0.1514332550048828	-0.1897404815673828	3.658294677734375	-4.817962646484375	-2.277374267578125	
162	0.648	0.0	0.0	0.0	0.0	0.006	0.003	0.006	0.003	10.046070166015625	0.1131260284423828	-0.09038111267089843	7.160186767578125	-6.649017333984375	-0.789642333984375	9.993397729492187	0.4465186096191406	-0.07122749938964844	1.7852783203125	-5.1116943359375	-3.08990478515625	10.281300479125976	0.13467384338378904	-0.46507367248535153	3.505706787109375	-4.505157470703125	-2.239227294921875	
163	0.652	0.0	0.0	0.0	0.0	0.003	0.006	0.006	0.006	9.852139831542969	-0.37409400939941406	0.12090718383789062	3.71551513671875	-4.44793701171875	-0.827789306640625	9.658209497070311	0.4608838195800781	0.08858546142578125	0.949859619140625	-5.191802978515625	-2.960205078125	10.013149893188476	0.18854338073730467	-0.2855085479736328	3.91387939453125	-4.76837158203125	-2.1514892578125	
164	0.656	0.0	0.0	0.0	0.0	0.006	0.006	0.006	0.006	9.753977563476562	-0.34177228698730466	0.06284779357910156	-0.1220703125	-1.99127197265625	-0.865936279296875	9.846154327392577	0.612915625	-0.05805939025878906	1.964569091796875	-5.290985107421875	-3.063201904296875	10.079588989257813	0.3651157531738281	-0.43155484924316406	3.692626953125	-4.35638427734375	-2.06756591796875	
165	0.66	0.0	0.0	0.0	0.0	0.0	0.003	0.003	0.003	9.899425314331054	-0.3226186737060547	0.13826514587402344	4.76837158203125	-5.229949951171875	-0.885009765625	9.74799205932617	0.4782417816162109	0.3950432739257812	1.110076904296875	-4.8828125	-3.16619873046875	10.237606298828124	0.07781155395507812	-0.2711433380126953	3.643035888671875	-4.795074462890625	-1.922607421875	
166	0.664	0.0	0.0	0.0	0.0	0.009000000000000001	0.003	0.003	0.006	9.763554370117188	-0.2998737579345703	0.12389993591308593	-0.133514404296875	-1.934051513671875	-1.232147216796875	9.90900212097168	0.4471171600341797	-0.07362170104980469	1.983642578125	-5.092620849609375	-3.2196044921875	10.245986004638672	0.12868833923339842	-0.5500678314208984	3.448486328125	-4.550933837890625	-2.349853515625	
167	0.668	0.0	0.0	0.0	0.0	0.003	0.006	0.006	0.003	9.759364517211914	-0.39803602600097654	0.2753331909179687	3.41796875	-4.299163818359375	-0.789642333984375	9.532513909912108	0.7248445526123046	0.39324762268066404	0.92315673828125	-5.069732666015625	-3.4332275390625	9.94671079711914	0.25258827514648435	-0.2825157958984375	3.665924072265625	-4.8370361328125	-1.796722412109375	
168	0.672	0.0	0.0	0.0	0.0	0.003	0.003	0.003	0.006	9.722254391479492	-0.4531026641845703	0.24061726684570311	-2.08282470703125	-0.629425048828125	-0.659942626953125	9.988609326171874	0.3298012786865234	0.047285482788085934	0.6561279296875	-4.84466552734375	-3.047943115234375	10.302249743652343	0.1753752716064453	-0.6338648895263671	3.68499755859375	-4.79888916015625	-2.140045166015625	
169	0.676	0.0	0.0	0.0	0.0	0.006	0.003	0.006	0.009000000000000001	9.745597857666015	0.04908113403320312	0.296881005859375	-1.712799072265625	-0.80108642578125	-1.148223876953125	9.81862100830078	0.5105635040283203	0.36810850524902344	0.988006591796875	-4.82177734375	-3.414154052734375	10.296264239501953	0.011372457885742187	-0.3806780639648437	3.60107421875	-4.99725341796875	-1.7852783203125	
170	0.68	0.0	0.0	0.0	0.0	0.009000000000000001	0.003	0.003	0.003	9.662997900390625	0.13766659545898435	0.2914940521240234	-1.64794921875	-0.701904296875	-1.07574462890625	9.798270294189452	0.43514615173339843	0.08140285644531249	0.43487548828125	-4.84466552734375	-3.101348876953125	9.963470208740233	0.27353753967285155	-0.5416881256103515	3.7384033203125	-4.444122314453125	-2.475738525390625	
171	0.684	0.0	0.0	0.0	0.0	0.006	0.003	0.006	0.003	9.733626849365233	0.3812766143798828	0.2442085693359375	-0.232696533203125	-1.628875732421875	-1.010894775390625	9.694122521972655	0.4513070129394531	0.4590881683349609	0.499725341796875	-5.039215087890625	-2.4566650390625	9.896432562255859	0.41539398803710936	-0.11911153259277343	3.406524658203125	-4.787445068359375	-1.461029052734375	
172	0.6880000000000001	0.0	0.0	0.0	0.0	0.003	0.003	0.003	0.003	9.90241806640625	-0.24181436767578124	0.12150573425292968	2.727508544921875	-4.18853759765625	-0.75531005859375	10.114304913330077	0.2950853546142578	-0.06823474731445311	0.42724609375	-4.718780517578125	-2.84576416015625	10.408791717529295	-0.09516951599121093	-0.7338228088378905	3.658294677734375	-4.6539306640625	-2.544403076171875	
173	0.6920000000000001	0.0	0.0	0.0	0.0	0.003	0.003	0.003	0.003	9.887454306030273	0.32561142578124996	-0.007781155395507812	1.384735107421875	-2.74658203125	-0.92315673828125	9.702502227783203	0.4213794921875	0.17298106994628906	0.698089599609375	-4.9591064453125	-2.941131591796875	9.883264453125	0.38367081604003905	-0.16699556579589842	3.3416748046875	-4.749298095703125	-1.949310302734375	
174	0.6960000000000001	0.0	0.0	0.0	0.0	0.003	0.003	0.003	0.003	9.861118087768554	0.46686932373046874	-0.05746083984375	3.8299560546875	-4.55474853515625	-0.705718994140625	9.79946739501953	0.6667851623535156	-0.04608838195800781	0.652313232421875	-4.9591064453125	-2.689361572265625	9.805452899169921	0.11133037719726561	-0.3064578125	3.70025634765625	-4.8065185546875	-2.010345458984375	
175	0.7000000000000001	0.0	0.0	0.0	0.0	0.006	0.003	0.003	0.006	9.928754284667969	0.07122749938964844	-0.037708676147460936	3.032684326171875	-4.1046142578125	-0.91552734375	9.906607919311522	0.2328361114501953	0.07841010437011718	0.553131103515625	-5.115509033203125	-2.93731689453125	10.245387454223632	0.24121581726074218	-0.18255787658691405	3.44085693359375	-4.82177734375	-1.728057861328125	
176	0.704	0.0	0.0	0.0	0.0	0.006	0.006	0.003	0.003	9.886855755615233	0.22505495605468748	-0.018555062866210937	3.82232666015625	-4.611968994140625	-1.2359619140625	9.777321029663085	0.4800374328613281	0.029927520751953124	1.346588134765625	-5.13458251953125	-3.749847412109375	10.10712230834961	-0.21248539733886718	-0.3393780853271484	3.47900390625	-5.016326904296875	-2.46429443359375	
177	0.708	0.0	0.0	0.0	0.0	0.0	0.003	0.006	0.003	9.769539874267577	0.11192892761230468	0.1975216369628906	2.14385986328125	-3.28826904296875	-0.9918212890625	9.548674771118163	0.4830301849365234	0.37768531188964843	0.881195068359375	-4.57763671875	-3.238677978515625	9.654618194580078	0.5967547637939453	-0.08259995727539061	3.80706787109375	-4.486083984375	-2.292633056640625	
178	0.712	0.0	0.0	0.0	0.0	0.003	0.003	0.003	0.006	9.815029705810547	0.24839842224121092	0.20530279235839843	2.719879150390625	-3.7078857421875	-0.67901611328125	9.816226806640625	0.5267243652343749	0.16041151123046873	0.804901123046875	-5.039215087890625	-3.0670166015625	10.165181698608398	-0.13407529296874998	-0.3022679595947265	3.360748291015625	-4.75311279296875	-1.8463134765625	
179	0.716	0.0	0.0	0.0	0.0	0.003	0.003	0.006	0.006	9.919177478027343	0.031124621582031248	0.03890577697753906	3.22723388671875	-4.283905029296875	-0.911712646484375	9.839570272827148	0.10235212097167969	0.22206220397949217	0.705718994140625	-4.764556884765625	-3.498077392578125	10.050858569335936	0.11552023010253906	-0.03591302490234375	3.86810302734375	-4.566192626953125	-2.7618408203125	
180	0.72	0.0	0.0	0.0	0.0	0.0	0.003	0.003	0.006	9.87009634399414	0.34237083740234375	0.031124621582031248	1.316070556640625	-3.0670166015625	-1.110076904296875	9.689334118652344	0.5339069702148437	0.0383072265625	0.67138671875	-4.96673583984375	-2.574920654296875	9.738415252685547	0.26396073303222656	-0.0383072265625	3.65447998046875	-4.535675048828125	-2.05230712890625	
181	0.724	0.0	0.0	0.0	0.0	0.003	0.006	0.003	0.006	9.823409411621093	0.07481880187988281	0.19093758239746092	3.551483154296875	-4.337310791015625	-0.499725341796875	9.52533130493164	0.5548562347412109	0.39743747558593745	0.759124755859375	-4.84466552734375	-2.910614013671875	9.74859060974121	0.3597287994384765	0.054468087768554684	3.3416748046875	-4.306793212890625	-2.079010009765625	
182	0.728	0.0	0.0	0.0	0.0	0.003	0.003	0.006	0.003	10.070012182617187	-0.16519991455078123	-0.14544775085449219	3.99017333984375	-4.8370361328125	-0.83160400390625	9.952696301269532	0.09636661682128905	0.10654197387695312	1.194000244140625	-5.01251220703125	-2.7923583984375	10.122684619140625	-0.06105214233398437	0.015562310791015624	3.56292724609375	-4.734039306640625	-1.9683837890625	
183	0.732	0.0	0.0	0.0	0.0	0.003	0.003	0.006	0.003	9.89523546142578	0.2615665313720703	0.06105214233398437	5.6610107421875	-5.519866943359375	-1.064300537109375	9.579200842285156	0.651821401977539	0.21068974609375	0.988006591796875	-4.909515380859375	-3.253936767578125	9.739612353515625	0.35673604736328124	-0.06284779357910156	3.57818603515625	-4.2724609375	-2.666473388671875	
184	0.736	0.0	0.0	0.0	0.0	0.006	0.006	0.006	0.003	9.859322436523437	0.10714052429199218	0.07900865478515624	3.82232666015625	-4.73785400390625	-0.51116943359375	9.624092123413085	0.4261678955078125	0.2597708801269531	0.7781982421875	-5.2947998046875	-2.483367919921875	9.629479077148437	0.43155484924316406	0.15861585998535155	3.421783447265625	-4.53948974609375	-1.5716552734375	
185	0.74	0.0	0.0	0.0	0.0	0.0	0.006	0.003	0.003	9.882067352294921	0.1879448303222656	0.028131869506835935	2.5634765625	-3.814697265625	-0.865936279296875	9.920973129272461	0.44532150878906246	0.08678981018066406	1.590728759765625	-5.008697509765625	-2.704620361328125	10.356119281005858	-0.15263035583496093	-0.39444472351074217	3.73077392578125	-4.47845458984375	-2.2430419921875	
186	0.744	0.0	0.0	0.0	0.0	0.006	0.003	0.003	0.006	10.116699114990233	0.023942016601562498	-0.2214636535644531	5.04302978515625	-5.420684814453125	-1.10626220703125	9.922768780517577	0.45549686584472654	-0.06464344482421874	1.21307373046875	-5.1727294921875	-3.116607666015625	10.019733947753906	0.3142389678955078	-0.21787235107421873	3.406524658203125	-4.245758056640625	-2.132415771484375	
187	0.748	0.0	0.0	0.0	0.0	0.003	0.003	0.006	0.006	9.854534033203125	0.001197100830078125	0.00239420166015625	3.1585693359375	-4.184722900390625	-0.81634521484375	9.698910925292969	0.612915625	0.0939724151611328	1.323699951171875	-4.7607421875	-2.872467041015625	9.932345587158203	0.14245499877929688	-0.39983167724609375	3.7994384765625	-4.45556640625	-2.124786376953125	
188	0.752	0.0	0.0	0.0	0.0	4.311	4.599	4.6080000000000005	4.5600000000000005	9.98561657409668	-0.03172317199707031	-0.040701428222656245	4.940032958984375	-5.550384521484375	-0.675201416015625	9.841964474487304	0.3651157531738281	0.1304839904785156	0.804901123046875	-5.046844482421875	-2.7008056640625	10.053252770996092	0.5165490081787109	-0.2693476867675781	3.589630126953125	-4.894256591796875	-1.659393310546875	
189	0.756	0.0	0.0	0.0	0.0	4.5600000000000005	4.611	4.599	4.542	10.01733974609375	-0.17238251953125	-0.1083376251220703	4.634857177734375	-4.85992431640625	-1.3275146484375	10.028113653564452	0.3902548706054687	-0.11851298217773437	1.522064208984375	-4.5318603515625	-3.078460693359375	10.436923587036132	-0.19812018737792966	-0.5488707305908203	3.574371337890625	-4.390716552734375	-2.193450927734375	
190	0.76	0.0	0.0	0.0	0.0	4.5600000000000005	4.611	4.611	4.53	9.6151138671875	0.24779987182617186	0.37229835815429685	1.659393310546875	-2.819061279296875	-0.499725341796875	9.698910925292969	0.6123170745849609	0.25258827514648435	0.69427490234375	-5.352020263671875	-2.74658203125	10.00417163696289	0.5847837554931641	-0.40462008056640625	3.391265869140625	-4.383087158203125	-2.227783203125	
191	0.764	0.0	0.0	0.0	0.0	4.563	4.605	4.605	4.524	9.789890588378906	-0.010773907470703125	0.1879448303222656	4.314422607421875	-5.05828857421875	-1.216888427734375	9.743203656005859	0.612915625	0.1801636749267578	1.216888427734375	-5.25665283203125	-3.30352783203125	9.928754284667969	0.24061726684570311	-0.25318682556152344	3.704071044921875	-4.688262939453125	-1.590728759765625	
192	0.768	0.0	0.0	0.0	0.0	4.563	4.605	4.611	4.548	9.687538467407226	0.37289690856933594	0.40581718139648437	3.07464599609375	-4.077911376953125	-1.392364501953125	9.932345587158203	0.33399113159179683	0.23343466186523437	0.93841552734375	-5.035400390625	-2.84576416015625	10.367491738891601	0.2472013214111328	-0.40940848388671874	3.66973876953125	-4.85992431640625	-1.9073486328125	
193	0.772	0.0	0.0	0.0	0.0	4.554	4.614	4.617	4.554	9.911396322631836	0.23523031311035156	-0.08858546142578125	4.665374755859375	-4.917144775390625	-1.071929931640625	9.99220062866211	0.556053335571289	-0.16280571289062498	1.70135498046875	-4.627227783203125	-3.383636474609375	10.223241088867187	0.051475335693359374	-0.48183308410644526	3.383636474609375	-4.4708251953125	-2.00653076171875	
194	0.776	0.0	0.0	0.0	0.0	4.563	4.611	4.611	4.548	9.502586389160156	0.239420166015625	0.49799394531249996	1.16729736328125	-2.777099609375	-0.38909912109375	9.64025298461914	0.613514175415039	0.34117373657226563	0.64849853515625	-5.25665283203125	-2.712249755859375	9.87009634399414	0.6368576416015624	-0.32920272827148434	3.406524658203125	-4.47845458984375	-1.983642578125	
195	0.78	0.0	0.0	0.0	0.0	4.545	4.614	4.6080000000000005	4.563	9.865307940673828	-0.16759411621093748	0.09756371765136718	-1.3427734375	-1.24359130859375	-1.31988525390625	10.008960040283203	0.4560954162597656	-0.05985504150390625	1.590728759765625	-5.130767822265625	-3.0670166015625	10.30404539489746	0.04908113403320312	-0.5099649536132812	3.6773681640625	-5.02777099609375	-1.8463134765625	
196	0.784	0.0	0.0	0.0	0.0	4.563	4.6080000000000005	4.614	4.539	9.753379013061522	0.13347674255371092	0.13646949462890623	1.834869384765625	-3.05938720703125	-0.5645751953125	9.874884747314452	0.49320554199218747	0.16639701538085935	0.637054443359375	-4.993438720703125	-3.54766845703125	10.180145458984374	0.023343466186523436	-0.2059013427734375	3.673553466796875	-4.7149658203125	-2.29644775390625	
197	0.788	0.0	0.0	0.0	0.0	4.5600000000000005	4.614	4.614	4.527	9.74859060974121	-0.003591302490234375	0.14903905334472656	-1.743316650390625	-1.03759765625	-0.988006591796875	9.673173257446289	0.6248866333007812	0.08738836059570312	1.31988525390625	-5.077362060546875	-3.01361083984375	9.9461122467041	0.3573345977783203	-0.5398924743652344	3.612518310546875	-4.901885986328125	-1.651763916015625	
198	0.792	0.0	0.0	0.0	0.0	1.488	0.003	0.006	0.003	9.609726913452148	0.07601590270996093	0.3268085266113281	0.659942626953125	-2.32696533203125	-1.04522705078125	9.67856021118164	0.5955576629638671	0.3585316986083984	0.606536865234375	-5.05828857421875	-2.8228759765625	9.945513696289062	0.2059013427734375	-0.1514332550048828	3.162384033203125	-4.92095947265625	-1.735687255859375	
199	0.796	0.0	0.0	0.0	0.0	0.003	0.003	0.003	0.009000000000000001	9.944316595458984	0.013766659545898436	-0.011971008300781249	-0.19073486328125	-1.86920166015625	-1.190185546875	9.996989031982421	0.23343466186523437	0.07541735229492187	1.068115234375	-4.974365234375	-3.284454345703125	10.279504827880858	0.1466448516845703	-0.39923312683105466	3.520965576171875	-4.8828125	-2.315521240234375	
200	0.8	0.0	0.0	0.0	0.0	0.003	0.003	0.003	0.003	9.91498762512207	0.08140285644531249	-0.06045359191894531	0.316619873046875	-1.77001953125	-1.323699951171875	9.592967501831055	0.7134720947265625	0.2603694305419922	0.81634521484375	-4.79888916015625	-3.27301025390625	9.873089096069336	0.2771288421630859	-0.19213468322753904	3.681182861328125	-4.596710205078125	-2.254486083984375	
201	0.804	0.0	0.0	0.0	0.0	0.003	0.003	0.003	0.003	9.668384854125977	-0.04908113403320312	0.3058592620849609	-2.635955810546875	-0.4119873046875	-0.75531005859375	9.571419686889648	0.4285620971679687	0.35194764404296874	0.782012939453125	-5.14984130859375	-3.0670166015625	9.78031378173828	0.4052186309814453	-0.22565350646972654	3.70025634765625	-4.8370361328125	-1.8310546875	
202	0.808	0.0	0.0	0.0	0.0	0.006	0.003	0.003	0.006	9.962871658325195	0.10773907470703124	-0.07601590270996093	0.42724609375	-2.429962158203125	-1.1138916015625	9.813234054565429	0.4327519500732422	0.11133037719726561	0.96893310546875	-5.10406494140625	-3.208160400390625	9.959280355834961	-0.028131869506835935	-0.08080430603027343	3.726959228515625	-4.528045654296875	-2.044677734375	
203	0.812	0.0	0.0	0.0	0.0	0.006	0.003	0.003	0.006	10.111312161254883	0.37289690856933594	-0.3854664672851562	4.596710205078125	-4.909515380859375	-1.285552978515625	9.80665	0.3441664886474609	0.20769699401855468	0.835418701171875	-4.726409912109375	-3.2501220703125	10.05564697265625	0.21487959899902342	-0.3908534210205078	3.5552978515625	-4.451751708984375	-2.300262451171875	
204	0.8160000000000001	0.0	0.0	0.0	0.0	0.006	0.006	0.006	0.003	9.759364517211914	0.2609679809570312	0.08978256225585937	0.675201416015625	-2.54058837890625	-1.13677978515625	9.488221179199218	0.5518634826660156	0.32441432495117184	0.91552734375	-4.680633544921875	-3.2806396484375	9.612121115112304	0.17956512451171874	0.07721300354003906	3.551483154296875	-4.241943359375	-2.094268798828125	
205	0.8200000000000001	0.0	0.0	0.0	0.0	0.003	0.003	0.003	0.006	9.993397729492187	0.34835634155273437	-0.24899697265624998	4.5013427734375	-5.458831787109375	-0.732421875	9.745597857666015	0.3800795135498047	0.0939724151611328	0.835418701171875	-5.401611328125	-2.37274169921875	10.092158547973632	0.17776947326660156	-0.46507367248535153	3.383636474609375	-4.4708251953125	-2.044677734375	
206	0.8240000000000001	0.0	0.0	0.0	0.0	0.006	0.006	0.006	0.003	10.02392380065918	0.15322890625	-0.2041056915283203	1.3580322265625	-2.712249755859375	-1.068115234375	9.873687646484374	0.3950432739257812	0.014963760375976562	0.774383544921875	-4.642486572265625	-3.50189208984375	10.007762939453125	0.023942016601562498	-0.07302315063476562	3.726959228515625	-4.322052001953125	-2.4566650390625	
207	0.8280000000000001	0.0	0.0	0.0	0.0	0.006	0.006	0.006	0.003	9.97903251953125	0.5680243438720702	-0.28790274963378903	6.031036376953125	-5.9967041015625	-1.117706298828125	9.673771807861328	0.36571430358886714	0.07062894897460938	0.652313232421875	-4.76837158203125	-2.826690673828125	9.769539874267577	0.18914193115234373	0.011971008300781249	3.59344482421875	-4.21905517578125	-2.23541259765625	
208	0.8320000000000001	0.0	0.0	0.0	0.0	0.003	0.006	0.003	0.003	9.899425314331054	0.1292868896484375	-0.0005985504150390625	6.908416748046875	-6.465911865234375	-0.79345703125	9.740210903930663	0.5117606048583984	0.06763619689941405	1.15966796875	-5.2337646484375	-2.84576416015625	9.713276135253906	0.23403321228027343	0.105344873046875	3.551483154296875	-4.57000732421875	-1.888275146484375	
209	0.836	0.0	0.0	0.0	0.0	0.003	0.003	0.003	0.006	10.166977349853514	0.2166752502441406	-0.43634325256347656	5.92803955078125	-6.06536865234375	-0.823974609375	9.967061511230469	0.15562310791015624	-0.13407529296874998	0.70953369140625	-4.924774169921875	-2.429962158203125	10.084975942993163	-0.028131869506835935	-0.11372457885742186	3.5247802734375	-4.32586669921875	-1.964569091796875	
210	0.84	0.0	0.0	0.0	0.0	0.003	0.003	0.006	0.006	10.063428128051758	0.12689268798828124	-0.2597708801269531	6.931304931640625	-6.214141845703125	-0.89263916015625	9.8694977935791	0.43514615173339843	-0.01975216369628906	1.216888427734375	-4.985809326171875	-3.082275390625	10.235212097167969	0.1388636962890625	-0.4572925170898437	3.719329833984375	-4.24957275390625	-2.105712890625	
211	0.844	0.0	0.0	0.0	0.0	0.006	0.003	0.003	0.006	9.922768780517577	0.5865794067382812	-0.17477672119140625	3.875732421875	-4.547119140625	-1.06048583984375	9.617508068847656	0.33578678283691404	0.03890577697753906	1.01470947265625	-5.11932373046875	-2.7618408203125	9.707290631103515	0.17836802368164062	0.028131869506835935	3.353118896484375	-4.43267822265625	-2.06756591796875	
212	0.848	0.0	0.0	0.0	0.0	0.003	0.006	0.003	0.006	9.997587582397461	-0.12808978881835936	-0.16819266662597654	7.05718994140625	-6.67572021484375	-0.9002685546875	9.910797772216796	0.4590881683349609	-0.062249243164062495	1.155853271484375	-5.11932373046875	-2.727508544921875	10.220248336791991	0.18734627990722655	-0.42018239135742186	3.5400390625	-4.4403076171875	-2.155303955078125	
213	0.852	0.0	0.0	0.0	0.0	0.006	0.003	0.003	0.003	9.827599264526366	-0.4848258361816406	0.2932897033691406	2.54058837890625	-3.574371337890625	-1.0223388671875	9.949703549194336	0.2567781280517578	0.2059013427734375	0.9918212890625	-5.001068115234375	-3.51715087890625	10.380061297607421	0.03890577697753906	-0.44113165588378905	3.543853759765625	-4.558563232421875	-1.895904541015625	
214	0.856	0.0	0.0	0.0	0.0	0.003	0.003	0.006	0.003	9.867702142333984	-0.08858546142578125	0.040701428222656245	5.1422119140625	-5.558013916015625	-0.78582763671875	9.666589202880859	0.6153098266601562	0.16519991455078123	1.67083740234375	-5.0811767578125	-2.9754638671875	10.02332525024414	0.40761283264160153	-0.3387795349121094	3.688812255859375	-4.2877197265625	-2.109527587890625	
215	0.86	0.0	0.0	0.0	0.0	0.003	0.003	0.006	0.003	9.62109937133789	-0.17896657409667968	0.5871779571533203	2.09808349609375	-3.376007080078125	-0.904083251953125	9.8311905670166	0.37409400939941406	0.4064157318115234	1.03759765625	-5.035400390625	-3.143310546875	10.065822329711914	0.201112939453125	-0.30466216125488277	3.360748291015625	-4.730224609375	-1.644134521484375	
216	0.864	0.0	0.0	0.0	0.0	0.003	0.006	0.006	0.003	9.86291373901367	-0.18315642700195311	0.0526724365234375	-2.166748046875	-0.286102294921875	-1.262664794921875	10.028113653564452	0.488417138671875	-0.004189852905273437	1.13677978515625	-4.840850830078125	-3.025054931640625	10.366294638061524	0.1274912384033203	-0.39145197143554683	3.7384033203125	-4.63104248046875	-2.101898193359375	
217	0.868	0.0	0.0	0.0	0.0	0.006	0.006	0.003	0.006	9.629479077148437	-0.06943184814453125	0.5973533142089843	0.58746337890625	-2.368927001953125	-1.12152099609375	9.781510882568359	0.42317514343261714	0.42317514343261714	0.55694580078125	-5.11932373046875	-3.23486328125	10.08677159423828	0.1592144104003906	-0.2885013000488281	3.7689208984375	-4.60052490234375	-1.903533935546875	
218	0.872	0.0	0.0	0.0	0.0	0.003	0.003	0.006	0.003	9.847949978637695	0.19991583862304688	0.03591302490234375	-1.705169677734375	-0.812530517578125	-0.7476806640625	9.788094937133788	0.6171054779052734	0.12030863342285156	0.797271728515625	-5.0048828125	-2.62451171875	9.91438907470703	0.31962592163085934	-0.48243163452148435	3.574371337890625	-4.718780517578125	-2.1209716796875	
219	0.876	0.0	0.0	0.0	0.0	0.009000000000000001	0.003	0.006	0.006	9.790489138793944	0.0047884033203125	0.32441432495117184	1.186370849609375	-2.696990966796875	-0.6866455078125	9.803058697509766	0.4159925384521484	0.21248539733886718	0.1983642578125	-5.046844482421875	-2.742767333984375	10.302848294067383	0.07900865478515624	-0.36272155151367186	3.604888916015625	-4.665374755859375	-1.667022705078125	
220	0.88	0.0	0.0	0.0	0.0	0.003	0.003	0.003	0.006	10.050260018920898	0.00718260498046875	-0.21188684692382811	0.05340576171875	-2.166748046875	-0.96893310546875	9.974244116210937	0.5321113189697265	-0.012569558715820313	0.835418701171875	-4.913330078125	-2.834320068359375	10.209474429321288	0.0526724365234375	-0.5638344909667968	3.59344482421875	-4.40216064453125	-2.437591552734375	
221	0.884	0.0	0.0	0.0	0.0	-0.003	0.003	0.006	0.003	9.840168823242188	0.2316390106201172	0.14425065002441406	2.132415771484375	-3.604888916015625	-0.93841552734375	9.495403784179686	0.6189011291503906	0.4423287567138672	0.152587890625	-4.970550537109375	-2.994537353515625	9.788693487548828	0.5039794494628906	-0.03950432739257812	3.53240966796875	-4.53948974609375	-1.89208984375	
222	0.888	0.0	0.0	0.0	0.0	0.003	0.006	0.003	0.006	9.886855755615233	-0.020350714111328123	0.05327098693847656	0.492095947265625	-2.628326416015625	-0.79345703125	9.872490545654296	0.5446808776855468	-0.01975216369628906	1.270294189453125	-5.100250244140625	-3.398895263671875	10.193313568115233	0.054468087768554684	-0.488417138671875	3.5247802734375	-4.58526611328125	-2.00653076171875	
223	0.892	0.0	0.0	0.0	0.0	0.006	0.006	0.003	0.003	9.931747036743163	-0.03411737365722656	0.029927520751953124	1.476287841796875	-2.716064453125	-1.415252685546875	9.779116680908203	0.42437224426269526	0.3651157531738281	0.74005126953125	-4.6844482421875	-3.11279296875	10.178948358154296	0.2867056488037109	-0.2088940948486328	3.299713134765625	-4.596710205078125	-1.934051513671875	
224	0.896	0.0	0.0	0.0	0.0	0.003	0.003	0.006	0.006	9.753977563476562	0.1801636749267578	0.32620997619628905	2.3956298828125	-3.59344482421875	-1.003265380859375	9.78629928588867	0.6177040283203125	0.1352723937988281	1.06048583984375	-4.79888916015625	-3.4332275390625	9.926360083007811	0.02693476867675781	-0.2088940948486328	3.62396240234375	-5.096435546875	-2.29644775390625	
225	0.9	0.0	0.0	0.0	0.0	0.006	0.003	0.003	0.003	9.854534033203125	0.2723404388427734	0.06584054565429687	0.698089599609375	-2.3651123046875	-1.3275146484375	9.59476315307617	0.49859249572753905	0.3806780639648437	0.34332275390625	-4.856109619140625	-2.979278564453125	9.90840357055664	0.4734533782958984	-0.06643909606933593	3.53240966796875	-4.6844482421875	-2.02178955078125	
226	0.904	0.0	0.0	0.0	0.0	0.003	0.003	0.003	0.006	10.011354241943359	0.2136824981689453	-0.1131260284423828	3.002166748046875	-4.329681396484375	-0.934600830078125	9.987412225341796	0.4830301849365234	0.1149216796875	0.9307861328125	-5.107879638671875	-3.269195556640625	10.166977349853514	-0.05327098693847656	-0.2507926239013672	3.72314453125	-4.60052490234375	-2.201080322265625	
227	0.908	0.0	0.0	0.0	0.0	0.003	0.003	0.006	0.006	9.941323843383788	0.15981296081542967	0.03232172241210937	0.4119873046875	-2.50244140625	-1.369476318359375	9.681552963256836	0.38666356811523434	0.38666356811523434	0.324249267578125	-4.833221435546875	-3.47900390625	9.90241806640625	0.36212300109863277	-0.05087678527832031	3.65447998046875	-3.94439697265625	-2.777099609375	
228	0.912	0.0	0.0	0.0	0.0	0.003	0.006	0.003	0.003	9.871293444824218	0.3890577697753906	0.07481880187988281	2.55584716796875	-3.85284423828125	-0.8697509765625	9.662997900390625	0.5859808563232421	0.20290859069824219	0.827789306640625	-4.985809326171875	-2.758026123046875	9.83837317199707	0.26336218261718747	-0.15442600708007811	3.520965576171875	-4.87518310546875	-1.94549560546875	
229	0.916	0.0	0.0	0.0	0.0	0.003	0.006	3.4410000000000003	4.539	9.866505041503906	0.30705636291503907	0.12629413757324218	5.649566650390625	-5.809783935546875	-0.591278076171875	9.75517466430664	0.38247371520996093	0.41838674011230464	0.9307861328125	-5.039215087890625	-3.551483154296875	9.886257205200195	0.12449848632812499	0.03531447448730469	3.711700439453125	-4.398345947265625	-2.29644775390625	
230	0.92	0.0	0.0	0.0	0.0	4.557	4.6080000000000005	4.611	4.524	9.982025271606444	0.3758896606445312	-0.037708676147460936	2.986907958984375	-3.749847412109375	-1.1138916015625	9.879673150634765	0.35015199279785153	0.025139117431640625	0.782012939453125	-4.64630126953125	-2.826690673828125	10.058639724731444	0.14544775085449219	-0.20171148986816406	3.787994384765625	-4.40216064453125	-2.14385986328125	
231	0.924	0.0	0.0	0.0	0.0	4.566	4.6080000000000005	4.611	4.53	9.851541281127929	0.4608838195800781	0.07422025146484375	5.847930908203125	-5.573272705078125	-0.934600830078125	9.50677624206543	0.7242460021972655	0.4830301849365234	0.812530517578125	-4.85992431640625	-3.25775146484375	9.6917283203125	0.23403321228027343	-0.03232172241210937	3.72314453125	-4.29534912109375	-2.521514892578125	
232	0.928	0.0	0.0	0.0	0.0	4.5600000000000005	4.602	4.611	4.542	9.950302099609374	0.38187516479492184	-0.05626373901367187	2.74658203125	-3.810882568359375	-1.216888427734375	9.789890588378906	0.28790274963378903	0.11611878051757812	0.827789306640625	-5.107879638671875	-2.67791748046875	9.937732540893554	0.4429273071289062	-0.13407529296874998	3.704071044921875	-4.7149658203125	-1.865386962890625	
233	0.932	0.0	0.0	0.0	0.0	4.557	4.611	4.617	4.557	9.991003527832031	0.15861585998535155	-0.059256491088867186	5.5389404296875	-5.767822265625	-0.9002685546875	9.89583401184082	0.4531026641845703	0.09995791931152344	1.033782958984375	-4.901885986328125	-3.292083740234375	9.93294413757324	-0.03651157531738281	-0.033518823242187495	3.620147705078125	-4.3792724609375	-2.872467041015625	
234	0.936	0.0	0.0	0.0	0.0	4.557	4.614	4.614	4.557	9.979631069946288	0.16759411621093748	-0.08738836059570312	5.07354736328125	-5.584716796875	-0.652313232421875	9.676166009521484	0.3525461944580078	0.22445640563964842	0.69427490234375	-5.084991455078125	-3.192901611328125	9.83178911743164	0.4914098907470703	-0.016160861206054686	3.57818603515625	-4.535675048828125	-2.048492431640625	
235	0.9400000000000001	0.0	0.0	0.0	0.0	4.548	4.614	4.605	4.563	9.90122096557617	0.2885013000488281	0.03172317199707031	5.924224853515625	-5.435943603515625	-1.140594482421875	9.660603698730467	0.5542576843261718	0.316034619140625	0.9613037109375	-4.8980712890625	-2.99835205078125	10.136451278686522	0.06763619689941405	-0.5123591552734374	3.56292724609375	-4.413604736328125	-1.895904541015625	
236	0.9440000000000001	0.0	0.0	0.0	0.0	4.563	4.6080000000000005	4.611	4.539	10.026318002319336	-0.06883329772949218	-0.1131260284423828	4.863739013671875	-5.5084228515625	-0.92315673828125	9.986813674926758	0.3064578125	0.1292868896484375	0.58746337890625	-5.039215087890625	-2.5787353515625	10.09335564880371	0.2825157958984375	-0.09636661682128905	3.498077392578125	-4.67681884765625	-2.0294189453125	
237	0.9480000000000001	0.0	0.0	0.0	0.0	4.563	4.611	4.614	4.524	9.920374578857421	0.4572925170898437	0.010175357055664061	2.52532958984375	-3.84521484375	-0.942230224609375	9.719261639404296	0.44412440795898434	0.229843359375	1.01470947265625	-4.497528076171875	-3.31878662109375	10.25975266418457	-0.027533319091796873	-0.517746109008789	3.559112548828125	-4.17327880859375	-2.197265625	
238	0.9520000000000001	0.0	0.0	0.0	0.0	0.003	0.003	0.003	0.003	9.878476049804688	-0.3321954803466797	0.025737667846679687	3.50189208984375	-4.589080810546875	-0.377655029296875	9.719860189819336	0.5428852264404297	0.19512743530273435	0.392913818359375	-5.07354736328125	-2.597808837890625	9.791087689208984	0.4842272857666015	-0.010773907470703125	3.528594970703125	-4.7760009765625	-2.254486083984375	
239	0.9560000000000001	0.0	0.0	0.0	0.0	0.0	0.006	0.003	0.003	9.923367330932617	0.008978256225585938	-0.181959326171875	3.589630126953125	-4.2724609375	-0.896453857421875	9.94730934753418	0.4447229583740234	-0.09995791931152344	1.605987548828125	-5.413055419921875	-3.116607666015625	10.250774407958984	-0.014963760375976562	-0.45669396667480466	3.711700439453125	-4.486083984375	-1.8463134765625	
240	0.96	0.0	0.0	0.0	0.0	0.003	0.003	0.006	0.006	10.018536846923828	0.037708676147460936	-0.12150573425292968	5.298614501953125	-5.86700439453125	-0.8544921875	9.900023864746093	0.3800795135498047	0.06823474731445311	0.583648681640625	-4.940032958984375	-2.483367919921875	10.24000050048828	0.2184709014892578	-0.4740519287109375	3.4942626953125	-4.337310791015625	-2.239227294921875	
241	0.964	0.0	0.0	0.0	0.0	0.006	0.003	0.006	0.006	9.852139831542969	-0.1322796417236328	-0.13646949462890623	3.238677978515625	-4.2572021484375	-0.8544921875	9.795277542114258	0.5572504364013672	-0.016759411621093748	1.52587890625	-5.146026611328125	-2.89154052734375	10.087968695068358	0.16460136413574217	-0.5201403106689453	3.692626953125	-4.5623779296875	-1.8463134765625	
242	0.968	0.0	0.0	0.0	0.0	0.006	0.006	0.006	0.006	9.554061724853515	-0.07541735229492187	0.41958384094238277	0.6866455078125	-2.475738525390625	-0.873565673828125	9.591770401000977	0.6554127044677734	0.22266075439453123	0.560760498046875	-4.886627197265625	-2.834320068359375	10.032902056884765	0.26276363220214843	-0.2861070983886719	3.543853759765625	-4.619598388671875	-2.132415771484375	
243	0.972	0.0	0.0	0.0	0.0	0.003	0.006	0.003	0.003	9.935338339233398	-0.2813186950683594	-0.13587094421386717	2.758026123046875	-3.47137451171875	-1.056671142578125	9.98501802368164	0.4267664459228515	-0.13347674255371092	1.65557861328125	-5.084991455078125	-3.139495849609375	10.290278735351562	0.1352723937988281	-0.5351040710449219	3.528594970703125	-4.619598388671875	-1.83868408203125	
244	0.976	0.0	0.0	0.0	0.0	0.003	0.003	0.003	0.006	9.611522564697266	0.04608838195800781	0.28909985046386716	-0.102996826171875	-1.91497802734375	-1.09100341796875	9.624092123413085	0.6979097839355468	0.17178396911621094	0.9002685546875	-5.0506591796875	-3.154754638671875	10.086173043823242	0.19871873779296872	-0.3794809631347656	3.77655029296875	-4.764556884765625	-2.300262451171875	
245	0.98	0.0	0.0	0.0	0.0	0.006	0.003	0.006	0.006	9.79348189086914	-0.11252747802734374	-0.03651157531738281	1.6326904296875	-2.99835205078125	-1.15966796875	9.713276135253906	0.4578910675048828	0.19692308654785154	0.865936279296875	-4.856109619140625	-2.99072265625	10.031704956054687	0.34237083740234375	-0.42975919799804685	3.4332275390625	-4.35638427734375	-1.8157958984375	
246	0.984	0.0	0.0	0.0	0.0	0.003	0.003	0.003	0.003	9.629479077148437	-0.1083376251220703	0.39444472351074217	-0.576019287109375	-1.651763916015625	-0.9307861328125	9.717465988159178	0.5428852264404297	0.22086510314941404	0.926971435546875	-5.16510009765625	-2.964019775390625	9.968258612060547	0.0143652099609375	-0.14006079711914063	3.44085693359375	-4.57000732421875	-2.1820068359375	
247	0.988	0.0	0.0	0.0	0.0	0.003	0.003	0.003	0.009000000000000001	9.907206469726562	0.12689268798828124	-0.07302315063476562	-1.4495849609375	-1.071929931640625	-0.8697509765625	9.861716638183593	0.40880993347167965	0.06703764648437499	0.759124755859375	-4.947662353515625	-3.63922119140625	10.165780249023436	0.24301146850585936	-0.5129577056884765	3.5247802734375	-4.41741943359375	-2.38037109375	
248	0.992	0.0	0.0	0.0	0.0	0.003	0.003	0.003	0.003	9.534908111572266	0.023343466186523436	0.46806642456054687	-1.705169677734375	-1.068115234375	-0.705718994140625	9.679757312011718	0.489015689086914	0.27293898925781246	0.362396240234375	-4.848480224609375	-3.223419189453125	9.849745629882811	0.11252747802734374	-0.11731588134765625	3.429412841796875	-4.5928955078125	-2.2125244140625	
249	0.996	0.0	0.0	0.0	0.0	0.003	0.003	0.003	0.006	9.909600671386718	0.29388825378417965	-0.05386953735351562	-0.96893310546875	-1.39617919921875	-1.02996826171875	9.880870251464843	0.3962403747558593	0.12150573425292968	0.713348388671875	-4.94384765625	-3.3111572265625	10.251971508789062	0.19812018737792966	-0.729034405517578	3.414154052734375	-4.665374755859375	-2.349853515625	
250	1.0	0.0	0.0	0.0	0.0	0.006	0.003	0.003	0.003	9.740210903930663	-0.0383072265625	0.19333178405761717	3.97491455078125	-4.41741943359375	-0.9918212890625	9.888052856445311	0.37828386230468747	0.09157821350097656	0.713348388671875	-4.695892333984375	-3.017425537109375	10.007164389038085	0.08140285644531249	-0.14903905334472656	3.559112548828125	-4.5928955078125	-2.20489501953125	
251	1.004	0.0	0.0	0.0	0.0	0.003	0.006	0.006	0.003	9.886855755615233	0.3908534210205078	-0.03591302490234375	-0.030517578125	-1.728057861328125	-0.8392333984375	9.790489138793944	0.5374982727050781	0.20949264526367187	0.652313232421875	-4.901885986328125	-3.047943115234375	9.865307940673828	0.1149216796875	-0.33698388366699217	3.65447998046875	-4.638671875	-2.34222412109375	
252	1.008	0.0	0.0	0.0	0.0	0.003	0.003	0.006	0.003	9.919776028442381	0.32561142578124996	-0.11911153259277343	4.100799560546875	-4.581451416015625	-0.640869140625	9.781510882568359	0.39444472351074217	0.13108254089355467	0.49591064453125	-4.802703857421875	-2.841949462890625	9.919776028442381	0.18914193115234373	-0.12210428466796874	3.57818603515625	-4.940032958984375	-1.918792724609375	
253	1.012	0.0	0.0	0.0	0.0	0.003	0.003	0.003	0.006	10.027515103149414	0.2914940521240234	-0.3016694091796875	1.16729736328125	-2.635955810546875	-0.946044921875	9.822212310791015	0.35793314819335936	-0.06045359191894531	0.762939453125	-5.04302978515625	-2.9754638671875	9.991003527832031	-0.012569558715820313	-0.3112462158203125	3.662109375	-4.82940673828125	-2.35748291015625	
254	1.016	0.0	0.0	0.0	0.0	0.006	0.003	0.006	0.003	9.917980377197265	0.33758243408203126	-0.07541735229492187	5.4931640625	-5.56182861328125	-0.7476806640625	9.779715231323241	0.40402153015136716	0.14425065002441406	1.117706298828125	-4.6844482421875	-2.971649169921875	9.892841259765625	0.35673604736328124	-0.08379705810546874	3.643035888671875	-4.283905029296875	-2.40325927734375	
255	1.02	0.0	0.0	0.0	0.0	0.009000000000000001	0.006	0.003	0.006	9.93952819213867	0.008978256225585938	-0.12808978881835936	5.340576171875	-5.649566650390625	-0.774383544921875	9.669581954956055	0.4387374542236328	0.008379705810546874	1.232147216796875	-5.2490234375	-3.25775146484375	9.867103591918944	0.06464344482421874	-0.26336218261718747	3.894805908203125	-5.001068115234375	-2.170562744140625	
256	1.024	0.0	0.0	0.0	0.0	0.006	0.003	0.003	0.003	9.93952819213867	0.027533319091796873	-0.05686228942871093	5.054473876953125	-5.619049072265625	-0.881195068359375	9.713276135253906	0.43454760131835934	0.2214636535644531	1.35040283203125	-4.8675537109375	-2.895355224609375	9.828197814941406	0.3950432739257812	0.08798691101074219	3.604888916015625	-4.276275634765625	-2.44140625	
257	1.028	0.0	0.0	0.0	0.0	0.003	0.006	0.003	0.006	9.989207876586914	-0.05327098693847656	-0.04129997863769531	4.60052490234375	-5.062103271484375	-0.98419189453125	9.78629928588867	0.44412440795898434	-0.010773907470703125	1.293182373046875	-5.0811767578125	-3.444671630859375	10.034099157714843	-0.0987608184814453	0.03890577697753906	3.4942626953125	-4.505157470703125	-1.8463134765625	
258	1.032	0.0	0.0	0.0	0.0	0.006	0.006	0.006	0.006	9.76894132385254	0.20470424194335937	0.2603694305419922	4.3792724609375	-4.543304443359375	-0.797271728515625	9.683348614501952	0.4435258575439453	0.32620997619628905	1.02996826171875	-4.795074462890625	-3.116607666015625	9.718064538574218	0.4165910888671875	0.16519991455078123	3.7689208984375	-4.37164306640625	-2.67791748046875	
259	1.036	0.0	0.0	0.0	0.0	0.003	0.006	0.003	0.003	9.993996279907225	-0.16699556579589842	-0.059256491088867186	2.674102783203125	-4.199981689453125	-0.988006591796875	9.759364517211914	0.4177881896972656	0.24660277099609373	0.522613525390625	-5.298614501953125	-2.933502197265625	9.84555577697754	0.052073886108398436	0.1388636962890625	3.490447998046875	-4.7454833984375	-2.033233642578125	
260	1.04	0.0	0.0	0.0	0.0	0.006	0.003	0.003	0.003	9.929352835083007	-0.06284779357910156	0.011372457885742187	3.5247802734375	-4.375457763671875	-0.667572021484375	9.78629928588867	0.2663549346923828	0.25797522888183594	0.858306884765625	-4.573822021484375	-3.307342529296875	10.341754071044921	0.1406593475341797	-0.4908113403320312	3.72314453125	-4.52423095703125	-2.292633056640625	
261	1.044	0.0	0.0	0.0	0.0	0.003	0.006	0.006	0.006	10.002974536132811	0.07541735229492187	-0.07242460021972656	3.73077392578125	-4.638671875	-0.8087158203125	9.75517466430664	0.47644613037109373	0.296881005859375	0.530242919921875	-5.245208740234375	-2.62451171875	9.922768780517577	0.12330138549804687	0.10295067138671875	3.5247802734375	-4.4097900390625	-1.79290771484375	
262	1.048	0.0	0.0	0.0	0.0	0.006	0.003	0.003	0.006	9.920973129272461	-0.15682020874023436	-0.008978256225585938	3.772735595703125	-4.581451416015625	-0.6866455078125	9.834183319091796	0.46028526916503903	0.08499415893554688	1.682281494140625	-5.123138427734375	-3.002166748046875	10.123881719970703	0.18914193115234373	-0.31064766540527344	3.833770751953125	-4.650115966796875	-2.3040771484375	
263	1.052	0.0	0.0	0.0	0.0	0.006	0.006	0.003	0.012	10.096348400878906	-0.09277531433105468	-0.11911153259277343	4.283905029296875	-4.46319580078125	-0.743865966796875	9.832986218261718	0.38367081604003905	0.2741360900878906	0.54168701171875	-5.237579345703125	-2.559661865234375	9.943718045043944	0.16639701538085935	0.10893617553710937	3.74603271484375	-4.70733642578125	-2.040863037109375	
264	1.056	0.0	0.0	0.0	0.0	0.006	0.006	0.003	0.003	9.910797772216796	-0.04608838195800781	0.040701428222656245	4.29534912109375	-4.89044189453125	-0.782012939453125	9.94671079711914	0.46507367248535153	0.03411737365722656	1.659393310546875	-5.01251220703125	-3.391265869140625	10.311826550292968	0.047884033203124995	-0.4165910888671875	3.5858154296875	-4.26483154296875	-2.414703369140625	
265	1.06	0.0	0.0	0.0	0.0	0.006	0.006	0.003	4.539	9.630676177978515	0.12689268798828124	0.5105635040283203	2.44903564453125	-3.421783447265625	-0.95367431640625	9.587580548095703	0.6572083557128906	0.5506663818359374	0.675201416015625	-5.397796630859375	-2.70843505859375	10.028712203979492	0.45190556335449217	-0.1753752716064453	3.513336181640625	-4.795074462890625	-1.834869384765625	
266	1.064	0.0	0.0	0.0	0.0	4.551	4.605	4.6080000000000005	4.557	9.936535440063476	-0.12389993591308593	-0.012569558715820313	3.77655029296875	-4.46319580078125	-0.957489013671875	9.958083255004881	0.5285200164794922	-0.002992752075195312	1.77764892578125	-4.92095947265625	-3.0059814453125	10.207678778076172	0.04608838195800781	-0.2501940734863281	3.894805908203125	-4.421234130859375	-2.1514892578125	
267	1.068	0.0	0.0	0.0	0.0	4.557	4.611	4.611	4.554	9.719860189819336	-0.001197100830078125	0.37229835815429685	2.67791748046875	-3.4942626953125	-1.110076904296875	9.730035546875	0.5345055206298828	0.41838674011230464	0.63323974609375	-5.1727294921875	-2.84576416015625	10.189722265624999	0.36571430358886714	-0.23044190979003906	3.79180908203125	-4.886627197265625	-1.922607421875	
268	1.072	0.0	0.0	0.0	0.0	4.545	4.611	4.605	4.563	9.821015209960937	0.002992752075195312	0.23104046020507812	-1.834869384765625	-0.728607177734375	-0.78582763671875	9.90840357055664	0.5147533569335937	0.058657940673828124	1.35040283203125	-5.077362060546875	-3.4332275390625	10.140641131591796	0.10115502014160156	-0.316034619140625	3.6773681640625	-4.7149658203125	-2.03704833984375	
269	1.076	0.0	0.0	0.0	0.0	4.563	4.614	4.614	4.5360000000000005	9.6151138671875	0.1801636749267578	0.46627077331542965	2.696990966796875	-3.749847412109375	-0.698089599609375	9.686939916992188	0.5716156463623047	0.2980781066894531	0.484466552734375	-5.115509033203125	-2.74658203125	10.078391888427733	0.4435258575439453	-0.27892449340820313	3.627777099609375	-4.78363037109375	-1.9989013671875	
270	1.08	0.0	0.0	0.0	0.0	4.563	4.611	4.614	4.527	9.891045608520507	-0.3274070770263672	0.09217676391601562	-1.556396484375	-0.86212158203125	-0.896453857421875	9.958681805419921	0.4878185882568359	0.03651157531738281	1.0833740234375	-5.008697509765625	-3.223419189453125	10.205883126831054	0.1197100830078125	-0.38247371520996093	3.5552978515625	-4.795074462890625	-1.6021728515625	
271	1.084	0.0	0.0	0.0	0.0	4.563	4.611	4.614	4.5360000000000005	9.636661682128906	0.18914193115234373	0.3705027069091797	1.750946044921875	-3.3111572265625	-0.576019287109375	9.669581954956055	0.4955997436523437	0.26695348510742184	0.965118408203125	-4.90570068359375	-3.48663330078125	9.952696301269532	0.1753752716064453	-0.08379705810546874	3.620147705078125	-4.87518310546875	-2.34222412109375	
272	1.088	0.0	0.0	0.0	0.0	4.563	4.599	4.617	4.548	9.792284790039062	-0.28431144714355466	0.16460136413574217	-1.36566162109375	-1.117706298828125	-0.84686279296875	9.846154327392577	0.5997475158691405	0.03531447448730469	1.659393310546875	-5.18035888671875	-3.0517578125	10.110115060424803	0.23642741394042968	-0.45669396667480466	3.53240966796875	-4.489898681640625	-1.80816650390625	
273	1.092	0.0	0.0	0.0	0.0	4.557	2.307	0.006	0.006	9.90241806640625	0.2645592834472656	0.06105214233398437	0.789642333984375	-2.60162353515625	-1.3427734375	9.726444244384766	0.5494692810058593	0.2705447875976562	0.568389892578125	-4.924774169921875	-3.28826904296875	9.925761532592773	0.2154781494140625	-0.055066638183593745	3.574371337890625	-4.688262939453125	-2.353668212890625	
274	1.096	0.0	0.0	0.0	0.0	0.006	0.003	0.006	0.006	9.874884747314452	-0.028131869506835935	0.016160861206054686	-1.117706298828125	-1.2359619140625	-0.4425048828125	9.961076007080077	0.4590881683349609	-0.105344873046875	1.15203857421875	-5.039215087890625	-3.19671630859375	10.184933862304687	0.11611878051757812	-0.4878185882568359	3.490447998046875	-4.638671875	-1.80816650390625	
275	1.1	0.0	0.0	0.0	0.0	0.006	0.003	0.003	0.006	9.835380419921874	0.8074445098876952	0.04129997863769531	2.239227294921875	-3.4027099609375	-1.1749267578125	9.647435589599608	0.6679822631835937	0.2184709014892578	0.919342041015625	-5.252838134765625	-3.414154052734375	9.847351428222655	0.2454056701660156	-0.15502455749511718	3.650665283203125	-4.650115966796875	-2.20489501953125	
276	1.104	0.0	0.0	0.0	0.0	0.003	0.003	0.006	0.006	9.771934075927733	0.3459621398925781	0.12808978881835936	2.841949462890625	-4.119873046875	-1.2054443359375	9.738415252685547	0.37229835815429685	0.18375497741699218	0.54931640625	-4.913330078125	-2.89154052734375	9.900023864746093	0.33399113159179683	-0.2885013000488281	3.559112548828125	-4.50897216796875	-1.987457275390625	
277	1.108	0.0	0.0	0.0	0.0	0.003	0.006	0.003	0.006	9.945513696289062	-0.17836802368164062	-0.10414777221679687	-0.080108642578125	-1.93023681640625	-1.0223388671875	9.773729727172851	0.5734112976074218	0.14784195251464843	0.579833984375	-4.8828125	-3.253936767578125	9.97783541870117	0.105344873046875	-0.13766659545898435	3.80706787109375	-4.680633544921875	-2.38037109375	
278	1.112	0.0	0.0	0.0	0.0	0.003	0.003	0.003	0.003	10.008960040283203	0.4686649749755859	-0.3082534637451172	2.5634765625	-3.88336181640625	-0.83160400390625	9.700108026123047	0.37409400939941406	0.15861585998535155	0.74005126953125	-4.96673583984375	-3.376007080078125	9.969455712890625	0.3130418670654297	-0.48123453369140623	3.5400390625	-4.45556640625	-2.13623046875	
279	1.116	0.0	0.0	0.0	0.0	0.0	0.003	0.006	0.003	9.890447058105469	0.3172317199707031	-0.09995791931152344	0.041961669921875	-2.025604248046875	-0.965118408203125	9.63307037963867	0.5674257934570313	0.0987608184814453	0.8544921875	-5.046844482421875	-3.22723388671875	9.896432562255859	0.07601590270996093	-0.35194764404296874	3.513336181640625	-4.398345947265625	-2.185821533203125	
280	1.12	0.0	0.0	0.0	0.0	0.003	0.003	0.003	0.006	10.047865817260742	0.297479556274414	-0.3968389251708984	4.467010498046875	-5.039215087890625	-1.178741455078125	9.82580361328125	0.3633201019287109	0.05626373901367187	0.1983642578125	-4.993438720703125	-2.98309326171875	10.079588989257813	0.22864625854492185	-0.5943605621337891	3.3111572265625	-4.634857177734375	-1.918792724609375	
281	1.124	0.0	0.0	0.0	0.0	0.006	0.006	0.003	0.006	10.031106405639648	0.11432312927246092	-0.23403321228027343	5.889892578125	-5.725860595703125	-0.9613037109375	9.698910925292969	0.43933600463867184	-0.00718260498046875	0.568389892578125	-4.8980712890625	-3.009796142578125	9.944316595458984	0.08678981018066406	-0.35134909362792965	3.4027099609375	-4.367828369140625	-2.06756591796875	
282	1.1280000000000001	0.0	0.0	0.0	0.0	0.006	0.003	0.006	0.006	10.005368737792969	0.3184288208007812	-0.4429273071289062	4.489898681640625	-5.237579345703125	-0.827789306640625	9.673771807861328	0.51714755859375	-0.0939724151611328	1.03759765625	-4.909515380859375	-2.933502197265625	9.886257205200195	0.20231004028320312	-0.19812018737792966	3.42559814453125	-4.848480224609375	-2.25830078125	
283	1.1320000000000001	0.0	0.0	0.0	0.0	0.003	0.003	0.003	0.003	9.987412225341796	0.2041056915283203	-0.2184709014892578	6.481170654296875	-6.328582763671875	-0.72479248046875	9.721057290649414	0.38367081604003905	-0.01915361328125	0.5950927734375	-4.8370361328125	-2.994537353515625	9.913790524291992	0.14125789794921875	-0.20709844360351562	3.627777099609375	-4.4403076171875	-2.1209716796875	
284	1.1360000000000001	0.0	0.0	0.0	0.0	0.003	0.006	0.003	0.003	10.035296258544921	0.4129997863769531	-0.43993455505371093	6.816864013671875	-6.374359130859375	-0.911712646484375	9.804255798339844	0.3842693664550781	-0.2184709014892578	1.346588134765625	-5.2337646484375	-2.849578857421875	10.008960040283203	0.05985504150390625	-0.21068974609375	3.719329833984375	-4.497528076171875	-2.254486083984375	
285	1.1400000000000001	0.0	0.0	0.0	0.0	0.0	0.006	0.003	0.009000000000000001	9.964667309570311	0.13766659545898435	-0.20829554443359374	6.46209716796875	-6.11114501953125	-0.9307861328125	9.828197814941406	0.5698199951171875	-0.09756371765136718	1.506805419921875	-4.802703857421875	-3.223419189453125	9.801861596679688	0.2980781066894531	-0.2059013427734375	3.70025634765625	-4.18853759765625	-2.140045166015625	
286	1.1440000000000001	0.0	0.0	0.0	0.0	0.006	0.003	0.003	0.003	9.835380419921874	-0.39324762268066404	0.02454056701660156	2.99072265625	-4.077911376953125	-0.988006591796875	9.730035546875	0.24779987182617186	-0.08319850769042968	1.007080078125	-4.8675537109375	-3.021240234375	9.942520944213866	0.047285482788085934	-0.15861585998535155	3.51715087890625	-4.58526611328125	-2.166748046875	
287	1.1480000000000001	0.0	0.0	0.0	0.0	0.0	0.003	0.003	0.003	10.000580334472655	-0.11073182678222655	-0.19692308654785154	5.802154541015625	-5.924224853515625	-0.9613037109375	9.91558617553711	0.6039373687744141	-0.004189852905273437	1.79290771484375	-5.298614501953125	-3.15093994140625	10.324396109008788	0.2454056701660156	-0.5805939025878906	3.383636474609375	-4.4708251953125	-2.044677734375	
288	1.1520000000000001	0.0	0.0	0.0	0.0	0.003	0.003	0.003	0.003	9.795876092529296	-0.37409400939941406	0.23702596435546874	2.254486083984375	-3.559112548828125	-0.823974609375	9.840168823242188	0.25258827514648435	0.36631285400390623	0.86212158203125	-4.75311279296875	-3.1280517578125	9.94072529296875	-0.017357962036132813	0.022146365356445312	3.3416748046875	-4.482269287109375	-1.804351806640625	
289	1.156	0.0	0.0	0.0	0.0	0.003	0.003	0.003	0.006	9.861716638183593	-0.10235212097167969	0.11372457885742186	-1.430511474609375	-1.018524169921875	-0.934600830078125	9.829993466186522	0.6260837341308594	0.05985504150390625	1.495361328125	-4.817962646484375	-2.9754638671875	10.269928021240235	0.24660277099609373	-0.6458358978271485	3.787994384765625	-4.535675048828125	-2.117156982421875	
290	1.16	0.0	0.0	0.0	0.0	0.006	0.003	0.003	0.003	9.788094937133788	-0.31184476623535157	0.35134909362792965	1.392364501953125	-2.685546875	-1.064300537109375	9.906009368896484	0.23104046020507812	0.31663316955566406	0.278472900390625	-4.901885986328125	-3.017425537109375	10.134655627441406	0.1610100616455078	-0.3327940307617187	3.582000732421875	-4.486083984375	-1.8310546875	
291	1.164	0.0	0.0	0.0	0.0	0.003	0.006	0.003	0.006	9.943718045043944	-0.10474632263183593	-0.1562216583251953	-1.552581787109375	-1.01470947265625	-0.888824462890625	9.968258612060547	0.5309142181396485	0.022744915771484374	0.64849853515625	-5.0811767578125	-2.628326416015625	10.344148272705077	0.1867477294921875	-0.5829881042480468	3.7384033203125	-4.3792724609375	-2.323150634765625	
292	1.168	0.0	0.0	0.0	0.0	0.006	0.003	0.006	0.003	9.764152920532226	-0.03651157531738281	0.39923312683105466	2.349853515625	-3.520965576171875	-0.736236572265625	9.77432827758789	0.4100070343017578	0.3956418243408203	0.48828125	-5.146026611328125	-3.04412841796875	10.005368737792969	0.22445640563964842	-0.20829554443359374	3.54766845703125	-4.688262939453125	-1.621246337890625	
293	1.172	0.0	0.0	0.0	0.0	0.003	0.003	0.003	0.003	9.913191973876952	-0.12509703674316405	-0.07481880187988281	-0.31280517578125	-1.911163330078125	-0.98419189453125	9.874884747314452	0.4465186096191406	0.07242460021972656	0.98419189453125	-4.756927490234375	-2.6092529296875	10.107720858764647	0.06464344482421874	-0.32441432495117184	3.47900390625	-4.61578369140625	-1.850128173828125	
294	1.176	0.0	0.0	0.0	0.0	0.0	0.003	0.003	0.006	9.803058697509766	0.0143652099609375	0.20649989318847656	1.361846923828125	-2.96783447265625	-1.163482666015625	9.874286196899414	0.40581718139648437	0.3752911102294922	0.911712646484375	-5.039215087890625	-3.292083740234375	10.134655627441406	0.21248539733886718	-0.20470424194335937	3.570556640625	-4.543304443359375	-1.827239990234375	
295	1.18	0.0	0.0	0.0	0.0	0.006	0.003	0.006	0.003	9.836577520751952	-0.10235212097167969	0.16220716247558592	-0.171661376953125	-1.77764892578125	-1.102447509765625	9.88266590270996	0.469862075805664	0.10953472595214843	1.407623291015625	-4.85992431640625	-3.16619873046875	10.200496173095702	0.05985504150390625	-0.3525461944580078	3.322601318359375	-4.57763671875	-2.2430419921875	
296	1.184	0.0	0.0	0.0	0.0	0.003	0.003	0.003	0.006	9.741408004760741	0.011372457885742187	0.3076549133300781	0.1220703125	-2.246856689453125	-1.255035400390625	9.699509475708007	0.5686228942871093	0.5063736511230469	0.518798828125	-5.01251220703125	-3.139495849609375	10.026318002319336	0.3076549133300781	-0.12090718383789062	3.80706787109375	-4.84466552734375	-2.056121826171875	
297	1.188	0.0	0.0	0.0	0.0	0.003	0.003	0.006	0.003	9.840168823242188	-0.10594342346191406	0.2902969512939453	-0.54168701171875	-1.544952392578125	-0.9765625	9.962273107910155	0.5309142181396485	0.0718260498046875	1.46484375	-4.703521728515625	-3.086090087890625	10.301052642822265	-0.023343466186523436	-0.4321533996582031	3.597259521484375	-4.7149658203125	-2.117156982421875	
298	1.192	0.0	0.0	0.0	0.0	0.006	0.006	2.133	4.545	9.833584768676758	-0.012569558715820313	0.3268085266113281	-0.026702880859375	-2.079010009765625	-1.468658447265625	9.753977563476562	0.48722003784179685	0.4381389038085937	0.274658203125	-4.791259765625	-3.13568115234375	9.926958633422851	0.3028665100097656	0.023343466186523436	3.604888916015625	-4.791259765625	-2.197265625	
299	1.196	0.0	0.0	0.0	0.0	4.554	4.611	4.614	4.554	9.90181951599121	0.34656069030761716	0.20649989318847656	0.637054443359375	-2.437591552734375	-0.934600830078125	9.78031378173828	0.4991910461425781	0.31962592163085934	0.843048095703125	-4.89044189453125	-3.15093994140625	10.190320816040039	0.029328970336914062	-0.3076549133300781	3.620147705078125	-4.7760009765625	-2.1514892578125	
300	1.2	0.0	0.0	0.0	0.0	4.557	4.611	4.614	4.551	9.809044201660155	-0.05626373901367187	0.39743747558593745	-0.030517578125	-1.93023681640625	-0.885009765625	9.701305126953125	0.5141548065185546	0.5069722015380859	0.75531005859375	-5.04302978515625	-2.7923583984375	9.880870251464843	0.3232172241210937	0.032920272827148434	3.482818603515625	-4.44793701171875	-2.101898193359375	
301	1.204	0.0	0.0	0.0	0.0	4.545	4.605	4.605	4.563	9.950302099609374	0.26396073303222656	0.11611878051757812	0.87738037109375	-2.5177001953125	-0.98419189453125	9.87009634399414	0.364517202758789	0.2759317413330078	0.881195068359375	-5.0811767578125	-3.223419189453125	9.952696301269532	0.08918401184082031	0.06045359191894531	3.57818603515625	-4.45556640625	-2.147674560546875	
302	1.208	0.0	0.0	0.0	0.0	4.563	4.611	4.617	4.539	9.765948571777344	0.09995791931152344	0.3842693664550781	4.238128662109375	-4.6234130859375	-0.896453857421875	9.586383447265625	0.4997895965576172	0.604535919189453	0.591278076171875	-4.688262939453125	-3.673553466796875	9.805452899169921	0.2962824554443359	0.17956512451171874	3.6468505859375	-4.44793701171875	-2.28118896484375	
303	1.212	0.0	0.0	0.0	0.0	4.563	4.614	4.614	4.524	9.90840357055664	0.2346317626953125	0.08140285644531249	0.52642822265625	-2.5177001953125	-1.102447509765625	9.80665	0.3082534637451172	0.2741360900878906	0.92315673828125	-5.06591796875	-3.31878662109375	9.886257205200195	0.1945288848876953	0.037708676147460936	3.74603271484375	-4.73785400390625	-1.979827880859375	
304	1.216	0.0	0.0	0.0	0.0	4.563	4.6080000000000005	4.611	4.533	9.88386300354004	0.17657237243652343	0.16819266662597654	4.291534423828125	-4.608154296875	-1.377105712890625	9.726444244384766	0.594959112548828	0.4016273284912109	0.972747802734375	-4.8065185546875	-3.505706787109375	9.850344180297851	0.08678981018066406	0.10115502014160156	4.047393798828125	-4.63104248046875	-2.532958984375	
305	1.22	0.0	0.0	0.0	0.0	4.563	0.003	0.003	0.003	9.949104998779296	0.22266075439453123	0.002992752075195312	0.9918212890625	-2.5482177734375	-0.995635986328125	9.815029705810547	0.18255787658691405	0.2615665313720703	0.751495361328125	-4.993438720703125	-2.84576416015625	9.917980377197265	0.22744915771484372	-0.05386953735351562	3.589630126953125	-4.756927490234375	-2.14385986328125	
306	1.224	0.0	0.0	0.0	0.0	0.003	0.003	0.003	0.003	9.83777462158203	0.3651157531738281	0.14724340209960937	4.52423095703125	-4.909515380859375	-1.27410888671875	9.68454571533203	0.5434837768554687	0.2932897033691406	-0.00762939453125	-4.73785400390625	-3.16619873046875	9.790489138793944	0.18255787658691405	0.031124621582031248	3.997802734375	-4.413604736328125	-2.6092529296875	
