	time	dac1	dac2	dac3	dac4	adc1.3	adc2.3	adc3.3	adc4.3	imu1accx	imu1accy	imu1accz	imu1gyrox	imu1gyroy	imu1gyroz	imu2accx	imu2accy	imu2accz	imu2gyrox	imu2gyroy	imu2gyroz	imu3accx	imu3accy	imu3accz	imu3gyrox	imu3gyroy	imu3gyroz	log
0	0.0	0.0	0.0	0.0	0.0	0.003	0.003	0.003	0.003	9.803058697509766	0.16519991455078123	0.1640028137207031	2.216339111328125	-3.5400390625	-0.762939453125	9.76894132385254	0.5680243438720702	0.19991583862304688	0.98419189453125	-4.93621826171875	-3.147125244140625	10.050260018920898	0.30705636291503907	-0.22206220397949217	3.482818603515625	-4.596710205078125	-2.170562744140625	Estabilizou em 4s, 454  rpm
1	0.004	0.0	0.0	0.0	0.0	0.003	0.006	0.006	0.003	9.858125335693359	0.09995791931152344	0.13347674255371092	2.109527587890625	-3.376007080078125	-1.079559326171875	9.815029705810547	0.4333505004882812	0.13587094421386717	1.03759765625	-4.993438720703125	-2.960205078125	10.082581741333007	0.15203180541992187	-0.2807201446533203	3.66973876953125	-4.67681884765625	-2.124786376953125	Started
2	0.008	0.0	0.0	0.0	0.0	0.003	0.003	0.003	0.003	9.785102185058593	0.15382745666503905	0.19393033447265623	2.376556396484375	-3.528594970703125	-0.965118408203125	9.76116016845703	0.5979518646240234	0.23582886352539062	1.071929931640625	-5.214691162109375	-2.8839111328125	10.03050785522461	0.32082302246093747	-0.20470424194335937	3.25775146484375	-4.474639892578125	-2.12860107421875	IMU1|LSM6DS3|0x6A|I2C-1|±2g (±19,6m/s²)|±125º/s|400Hz
3	0.012	0.0	0.0	0.0	0.0	0.003	0.003	0.003	0.003	9.854534033203125	0.04967968444824218	0.18315642700195311	1.71661376953125	-3.16619873046875	-0.91552734375	9.805452899169921	0.3872621185302734	0.21487959899902342	0.8087158203125	-5.100250244140625	-2.948760986328125	10.089165795898436	0.076614453125	-0.25258827514648435	3.345489501953125	-4.695892333984375	-2.02178955078125	IMU2|LSM6DS3|0x6B|I2C-1|±2g (±19,6m/s²)|±125º/s|400Hz
4	0.016	0.0	0.0	0.0	0.0	0.003	0.006	0.006	0.003	9.891045608520507	0.18734627990722655	0.06284779357910156	2.223968505859375	-3.208160400390625	-1.026153564453125	9.769539874267577	0.612915625	0.2328361114501953	1.064300537109375	-5.046844482421875	-3.0517578125	10.00417163696289	0.2980781066894531	-0.1562216583251953	3.559112548828125	-4.79888916015625	-2.532958984375	IMU3|LSM6DS3|0x6B|I2C-2|±2g (±19,6m/s²)|±125º/s|400Hz
5	0.02	0.0	0.0	0.0	0.0	0.003	0.003	0.006	0.009000000000000001	9.84435867614746	0.022744915771484374	0.1879448303222656	1.636505126953125	-3.0975341796875	-0.823974609375	9.809044201660155	0.36631285400390623	0.2166752502441406	0.690460205078125	-4.726409912109375	-2.960205078125	10.086173043823242	0.04848258361816406	-0.25737667846679685	3.604888916015625	-4.57000732421875	-2.162933349609375	ADC|ADS1015|0|0|1|0|±6,144 V|2400 SPS
6	0.024	0.0	0.0	0.0	0.0	0.003	0.003	0.003	0.006	9.892841259765625	0.17657237243652343	0.05626373901367187	2.223968505859375	-3.4637451171875	-0.95367431640625	9.7683427734375	0.5159504577636719	0.229843359375	1.18255615234375	-4.924774169921875	-3.376007080078125	9.974244116210937	0.2825157958984375	-0.14604630126953125	3.490447998046875	-4.619598388671875	-2.64739990234375	Gen1|Disabled
7	0.028	0.0	0.0	0.0	0.0	0.0	0.006	0.003	0.006	9.8449572265625	-0.010773907470703125	0.201112939453125	1.33514404296875	-2.925872802734375	-0.827789306640625	9.821015209960937	0.3387795349121094	0.23403321228027343	0.77056884765625	-4.93621826171875	-2.887725830078125	9.964068759155273	0.1149216796875	-0.16280571289062498	3.60107421875	-4.7760009765625	-2.155303955078125	Gen2|Enabled|Noise|0.0|10.0|1668
8	0.032	0.0	0.0	0.0	0.0	0.006	0.003	0.003	0.006	9.890447058105469	0.17357962036132812	0.06703764648437499	1.9683837890625	-3.337860107421875	-0.934600830078125	9.7683427734375	0.5129577056884765	0.23223756103515625	0.69427490234375	-4.962921142578125	-3.22723388671875	9.97125136413574	0.27353753967285155	-0.14245499877929688	3.711700439453125	-4.53948974609375	-2.44903564453125	Gen3|Enabled|Noise|0.0|10.0|128
9	0.036000000000000004	0.0	0.0	0.0	0.0	0.009000000000000001	0.003	0.003	0.006	9.90122096557617	0.2747346405029297	-0.003591302490234375	3.253936767578125	-3.932952880859375	-0.8392333984375	9.759963067626952	0.3758896606445312	0.1771709228515625	0.972747802734375	-4.978179931640625	-2.902984619140625	9.926360083007811	0.10414777221679687	-0.15083470458984374	3.72314453125	-4.87518310546875	-2.155303955078125	Gen4|Enabled|Noise|0.0|10.0|128
10	0.04	0.0	0.0	0.0	0.0	0.006	0.003	0.003	0.003	9.886257205200195	0.18255787658691405	0.07242460021972656	2.147674560546875	-3.284454345703125	-0.99945068359375	9.783905084228515	0.5183446594238281	0.23044190979003906	0.84686279296875	-5.0201416015625	-3.253936767578125	9.97903251953125	0.2825157958984375	-0.14544775085449219	3.589630126953125	-4.5928955078125	-2.132415771484375	Ctrl|Disabled
11	0.044	0.0	0.0	0.0	0.0	0.003	0.006	0.006	0.003	9.907206469726562	0.2759317413330078	-0.020949264526367185	3.406524658203125	-4.17327880859375	-0.86212158203125	9.76116016845703	0.34656069030761716	0.17896657409667968	0.6561279296875	-4.85992431640625	-2.468109130859375	9.937133990478515	0.08858546142578125	-0.19572598571777342	3.543853759765625	-4.642486572265625	-2.197265625	
12	0.048	0.0	0.0	0.0	0.0	0.006	0.003	0.003	0.006	9.8694977935791	0.21068974609375	0.06284779357910156	4.45556640625	-4.89044189453125	-1.102447509765625	9.785102185058593	0.5303156677246094	0.20709844360351562	1.071929931640625	-4.955291748046875	-3.055572509765625	9.964667309570311	0.1640028137207031	-0.15023615417480468	3.444671630859375	-4.43267822265625	-2.38037109375	
13	0.052000000000000005	0.0	0.0	0.0	0.0	0.006	0.003	0.006	0.006	9.916783276367187	0.28730419921875	-0.05566518859863281	3.559112548828125	-4.302978515625	-0.74005126953125	9.745597857666015	0.36152445068359373	0.19572598571777342	0.79345703125	-5.0048828125	-2.7313232421875	9.932345587158203	0.10594342346191406	-0.1945288848876953	3.4637451171875	-4.489898681640625	-2.044677734375	
14	0.056	0.0	0.0	0.0	0.0	0.003	0.003	0.003	0.003	9.90241806640625	0.1945288848876953	0.05566518859863281	4.825592041015625	-5.28717041015625	-1.010894775390625	9.785102185058593	0.3298012786865234	0.14185644836425781	0.946044921875	-4.909515380859375	-3.1280517578125	9.957484704589843	0.16519991455078123	-0.1771709228515625	3.7384033203125	-4.566192626953125	-2.674102783203125	
15	0.06	0.0	0.0	0.0	0.0	0.006	0.003	0.006	0.006	9.923367330932617	0.31543606872558594	-0.08798691101074219	3.3721923828125	-4.09698486328125	-0.858306884765625	9.739612353515625	0.3573345977783203	0.18435352783203124	0.873565673828125	-5.092620849609375	-2.613067626953125	9.958681805419921	0.2603694305419922	-0.11552023010253906	3.5552978515625	-4.49371337890625	-2.071380615234375	
16	0.064	0.0	0.0	0.0	0.0	0.006	0.006	0.003	0.006	9.910797772216796	0.1849520782470703	0.032920272827148434	4.878997802734375	-4.917144775390625	-0.942230224609375	9.784503634643555	0.32142157287597656	0.1227028350830078	1.18255615234375	-5.069732666015625	-3.284454345703125	9.962273107910155	0.16519991455078123	-0.1771709228515625	3.444671630859375	-4.512786865234375	-2.3956298828125	
17	0.068	0.0	0.0	0.0	0.0	0.006	0.006	0.003	0.003	9.861716638183593	0.006584054565429687	0.15263035583496093	3.36456298828125	-4.367828369140625	-0.7171630859375	9.76894132385254	0.5057751007080078	0.15023615417480468	0.896453857421875	-5.084991455078125	-2.727508544921875	9.96047745666504	0.2765302917480469	-0.10893617553710937	3.68499755859375	-4.482269287109375	-2.13623046875	
18	0.07200000000000001	0.0	0.0	0.0	0.0	0.003	0.006	0.003	0.006	9.910199221801758	0.18255787658691405	-0.00718260498046875	4.695892333984375	-4.8980712890625	-0.84686279296875	9.785102185058593	0.34715924072265625	0.1227028350830078	1.1138916015625	-4.9285888671875	-3.265380859375	10.127473022460936	-0.023942016601562498	-0.3333925811767578	3.6468505859375	-4.436492919921875	-2.544403076171875	
19	0.076	0.0	0.0	0.0	0.0	0.003	0.006	0.003	0.003	9.854534033203125	-0.015562310791015624	0.16220716247558592	3.50189208984375	-4.199981689453125	-0.762939453125	9.733626849365233	0.5207388610839844	0.1406593475341797	0.885009765625	-5.084991455078125	-2.620697021484375	9.948506448364258	0.26216508178710934	-0.08678981018066406	3.482818603515625	-4.726409912109375	-1.995086669921875	
20	0.08	0.0	0.0	0.0	0.0	-0.003	0.003	0.003	0.003	9.928754284667969	0.14724340209960937	-0.03411737365722656	4.87518310546875	-5.077362060546875	-1.194000244140625	9.89523546142578	0.29927520751953124	0.023343466186523436	1.308441162109375	-5.06591796875	-3.261566162109375	10.134057077026366	-0.05985504150390625	-0.34177228698730466	3.6163330078125	-4.314422607421875	-2.529144287109375	
21	0.084	0.0	0.0	0.0	0.0	0.003	0.006	0.003	0.006	9.835978970336914	-0.023343466186523436	0.16819266662597654	3.307342529296875	-4.35638427734375	-0.804901123046875	9.730035546875	0.565630142211914	0.14305354919433594	1.094818115234375	-4.70733642578125	-2.655029296875	9.93952819213867	0.31483751831054685	-0.0652419952392578	3.711700439453125	-4.6539306640625	-2.1514892578125	
22	0.088	0.0	0.0	0.0	0.0	0.006	0.003	0.003	0.006	9.875483297729492	-0.35793314819335936	0.01975216369628906	0.66375732421875	-2.54058837890625	-0.89263916015625	9.903016616821288	0.32501287536621093	-0.001197100830078125	1.064300537109375	-5.023956298828125	-3.0059814453125	10.151415039062499	-0.06943184814453125	-0.3573345977783203	3.528594970703125	-4.47845458984375	-2.38800048828125	
23	0.092	0.0	0.0	0.0	0.0	0.006	0.003	0.003	0.003	9.830592016601562	-0.0718260498046875	0.181959326171875	2.83050537109375	-3.917694091796875	-0.545501708984375	9.661202249145507	0.7128735443115234	0.34237083740234375	0.8544921875	-4.756927490234375	-2.89154052734375	10.073603485107421	0.3286041778564453	-0.18914193115234373	3.475189208984375	-4.6844482421875	-2.09808349609375	
24	0.096	0.0	0.0	0.0	0.0	0.003	0.003	0.003	0.006	9.849745629882811	-0.3860650177001953	0.04548983154296875	0.43487548828125	-2.445220947265625	-1.071929931640625	9.909600671386718	0.30885201416015623	-0.03232172241210937	1.392364501953125	-5.21087646484375	-3.131866455078125	10.165780249023436	-0.11791443176269531	-0.3591302490234375	3.5552978515625	-4.459381103515625	-2.521514892578125	
25	0.1	0.0	0.0	0.0	0.0	0.006	0.003	0.003	0.003	9.817423907470703	-0.1292868896484375	0.1867477294921875	0.492095947265625	-1.983642578125	-0.698089599609375	9.65940659790039	0.7398083129882812	0.3333925811767578	0.95367431640625	-4.8828125	-2.99835205078125	10.060435375976562	0.3345896820068359	-0.18375497741699218	3.566741943359375	-4.634857177734375	-1.926422119140625	
26	0.10400000000000001	0.0	0.0	0.0	0.0	-0.003	0.003	0.003	0.006	9.84435867614746	-0.3537432952880859	0.055066638183593745	0.278472900390625	-2.227783203125	-0.942230224609375	9.846154327392577	0.3705027069091797	0.13587094421386717	0.896453857421875	-5.16510009765625	-2.9754638671875	10.101136804199218	-0.09576806640624999	-0.34715924072265625	3.528594970703125	-4.596710205078125	-1.979827880859375	
27	0.108	0.0	0.0	0.0	0.0	0.003	0.003	0.006	0.003	9.81263550415039	0.17477672119140625	0.13168109130859373	0.579833984375	-2.361297607421875	-0.8392333984375	9.665990652465819	0.7308300567626953	0.3321954803466797	1.422882080078125	-4.901885986328125	-3.154754638671875	10.056245523071288	0.32082302246093747	-0.1753752716064453	3.60107421875	-4.55474853515625	-1.8310546875	
28	0.112	0.0	0.0	0.0	0.0	0.003	0.006	0.006	0.006	9.848548529052733	-0.37888241271972656	0.09157821350097656	0.03814697265625	-2.05230712890625	-0.835418701171875	9.860519537353515	0.34237083740234375	0.11671733093261719	0.827789306640625	-5.229949951171875	-3.078460693359375	10.136451278686522	-0.12629413757324218	-0.36691140441894526	3.620147705078125	-4.7760009765625	-2.063751220703125	
29	0.116	0.0	0.0	0.0	0.0	0.006	0.003	0.003	0.003	9.801861596679688	0.2771288421630859	0.1304839904785156	0.95367431640625	-2.44903564453125	-0.911712646484375	9.80066449584961	0.6260837341308594	0.13646949462890623	0.946044921875	-5.01251220703125	-3.170013427734375	9.929352835083007	0.479438882446289	-0.20290859069824219	3.459930419921875	-4.245758056640625	-2.544403076171875	
30	0.12	0.0	0.0	0.0	0.0	0.003	0.003	0.003	0.006	9.913790524291992	0.469263525390625	-0.051475335693359374	2.468109130859375	-3.513336181640625	-0.873565673828125	9.866505041503906	0.37828386230468747	0.12030863342285156	0.804901123046875	-5.096435546875	-3.101348876953125	10.116699114990233	-0.08858546142578125	-0.35194764404296874	3.3721923828125	-4.52423095703125	-1.8157958984375	
31	0.124	0.0	0.0	0.0	0.0	0.006	0.006	0.006	0.006	9.824007962036132	0.373495458984375	0.12689268798828124	0.843048095703125	-2.445220947265625	-1.071929931640625	9.798270294189452	0.5973533142089843	0.143652099609375	0.9765625	-4.85992431640625	-3.154754638671875	9.928754284667969	0.479438882446289	-0.20649989318847656	3.76129150390625	-4.772186279296875	-2.475738525390625	
32	0.128	0.0	0.0	0.0	0.0	0.006	0.003	0.003	0.003	9.922768780517577	0.5165490081787109	-0.06105214233398437	3.086090087890625	-3.86810302734375	-0.896453857421875	9.874884747314452	0.3633201019287109	0.06404489440917968	0.377655029296875	-4.993438720703125	-2.5177001953125	10.117896215820313	-0.15382745666503905	-0.34536358947753903	3.60870361328125	-4.550933837890625	-2.08282470703125	
33	0.132	0.0	0.0	0.0	0.0	0.003	0.006	0.003	0.006	9.842563024902343	0.43454760131835934	0.1292868896484375	1.15203857421875	-2.6092529296875	-0.980377197265625	9.791087689208984	0.6380547424316406	0.15741875915527342	1.13677978515625	-4.99725341796875	-3.185272216796875	9.928155734252929	0.489015689086914	-0.181959326171875	3.360748291015625	-4.512786865234375	-2.7313232421875	
34	0.136	0.0	0.0	0.0	0.0	0.003	0.003	0.006	0.003	9.931747036743163	0.6356605407714844	-0.07302315063476562	3.15093994140625	-3.688812255859375	-1.03759765625	9.74859060974121	0.40940848388671874	0.24301146850585936	0.518798828125	-5.05828857421875	-2.685546875	9.879673150634765	0.29269115295410153	-0.26396073303222656	3.528594970703125	-4.756927490234375	-2.193450927734375	
35	0.14	0.0	0.0	0.0	0.0	0.003	0.003	0.003	0.006	9.871891995239258	0.5961562133789062	0.06943184814453125	5.2032470703125	-5.5694580078125	-1.163482666015625	9.798868844604492	0.6344634399414062	0.16460136413574217	0.522613525390625	-4.52423095703125	-3.032684326171875	9.926360083007811	0.5153519073486328	-0.16879121704101563	3.665924072265625	-4.360198974609375	-2.471923828125	
36	0.14400000000000002	0.0	0.0	0.0	0.0	0.006	0.003	0.003	0.003	9.94072529296875	0.6871358764648438	-0.06943184814453125	3.604888916015625	-4.29534912109375	-0.83160400390625	9.742605105590819	0.34656069030761716	0.25318682556152344	0.263214111328125	-4.680633544921875	-2.391815185546875	9.873687646484374	0.21308394775390624	-0.24959552307128904	3.76129150390625	-4.497528076171875	-2.31170654296875	
37	0.148	0.0	0.0	0.0	0.0	0.003	0.003	0.003	0.006	9.860519537353515	0.5680243438720702	0.076614453125	5.420684814453125	-5.42449951171875	-1.171112060546875	9.679158761596678	0.37409400939941406	0.2316390106201172	0.827789306640625	-4.57763671875	-3.23486328125	9.928754284667969	0.25737667846679685	-0.1388636962890625	3.589630126953125	-4.322052001953125	-2.956390380859375	
38	0.152	0.0	0.0	0.0	0.0	0.003	0.003	0.003	0.003	9.9461122467041	0.8020575561523438	-0.07541735229492187	3.757476806640625	-4.825592041015625	-1.819610595703125	9.739612353515625	0.4034229797363281	0.28969840087890625	0.244140625	-4.970550537109375	-2.521514892578125	9.85752678527832	0.29448680419921874	-0.23223756103515625	3.7994384765625	-4.638671875	-2.101898193359375	
39	0.156	0.0	0.0	0.0	0.0	0.012	0.006	0.003	0.003	9.854534033203125	0.5033808990478515	0.10654197387695312	5.3558349609375	-5.374908447265625	-1.132965087890625	9.664195001220703	0.3321954803466797	0.23223756103515625	0.77056884765625	-5.08880615234375	-3.093719482421875	9.919177478027343	0.24779987182617186	-0.14006079711914063	3.650665283203125	-4.33349609375	-2.7923583984375	
40	0.16	0.0	0.0	0.0	0.0	0.003	0.003	0.006	0.003	9.892841259765625	-0.11552023010253906	-0.02693476867675781	3.05938720703125	-4.37164306640625	-0.843048095703125	9.71686743774414	0.42317514343261714	0.047285482788085934	1.1749267578125	-5.168914794921875	-2.735137939453125	9.989806427001952	0.3124433166503906	-0.02454056701660156	3.60107421875	-4.718780517578125	-1.70135498046875	
41	0.164	0.0	0.0	0.0	0.0	0.006	0.003	0.003	0.006	9.83777462158203	0.45968671875	0.1466448516845703	5.611419677734375	-5.3863525390625	-1.300811767578125	9.652223992919922	0.31543606872558594	0.2693476867675781	0.614166259765625	-4.787445068359375	-3.299713134765625	9.929352835083007	0.2507926239013672	-0.16460136413574217	3.849029541015625	-4.497528076171875	-3.0670166015625	
42	0.168	0.0	0.0	0.0	0.0	0.0	0.006	0.003	0.006	9.894038360595703	-0.22565350646972654	-0.002992752075195312	2.544403076171875	-4.039764404296875	-0.865936279296875	9.697115274047851	0.41419688720703124	0.022744915771484374	1.007080078125	-4.985809326171875	-2.811431884765625	9.995791931152343	0.3603273498535156	-0.047285482788085934	3.6773681640625	-4.8370361328125	-1.922607421875	
43	0.17200000000000001	0.0	0.0	0.0	0.0	0.006	0.003	0.003	0.006	9.920973129272461	-0.8092401611328125	-0.11911153259277343	1.12152099609375	-3.002166748046875	-0.9918212890625	9.848548529052733	0.3381809844970703	0.05027823486328125	1.59454345703125	-4.955291748046875	-2.96783447265625	9.92755718383789	0.2166752502441406	-0.17238251953125	3.787994384765625	-4.413604736328125	-2.4871826171875	
44	0.176	0.0	0.0	0.0	0.0	0.006	0.003	0.006	0.003	9.89463691101074	-0.35673604736328124	0.03411737365722656	2.00653076171875	-3.7384033203125	-0.766754150390625	9.708487731933593	0.36750995483398435	0.011971008300781249	1.255035400390625	-4.96673583984375	-2.727508544921875	10.004770187377929	0.3537432952880859	-0.06883329772949218	3.482818603515625	-4.57000732421875	-1.697540283203125	
45	0.18	0.0	0.0	0.0	0.0	0.006	0.006	0.003	0.006	9.910199221801758	-0.8637082489013671	-0.09756371765136718	0.545501708984375	-2.49481201171875	-0.732421875	9.841365924072266	0.3190273712158203	0.054468087768554684	1.583099365234375	-5.0048828125	-3.253936767578125	10.194510668945313	-0.28311434631347654	-0.32501287536621093	3.734588623046875	-4.4097900390625	-2.376556396484375	
46	0.184	0.0	0.0	0.0	0.0	0.003	0.003	0.003	0.006	9.886855755615233	-0.49380409240722656	0.051475335693359374	1.5869140625	-3.376007080078125	-0.652313232421875	9.792284790039062	0.7398083129882812	0.40222587890625	0.86212158203125	-5.046844482421875	-3.177642822265625	9.991003527832031	0.35134909362792965	-0.07900865478515624	3.60107421875	-4.76837158203125	-1.71661376953125	
47	0.188	0.0	0.0	0.0	0.0	0.006	0.003	0.003	0.003	9.919177478027343	-0.8750807067871094	-0.07362170104980469	0.179290771484375	-2.422332763671875	-0.9765625	9.85094273071289	0.36571430358886714	0.05386953735351562	1.468658447265625	-5.069732666015625	-3.406524658203125	10.214262832641602	-0.26336218261718747	-0.32022447204589843	3.4637451171875	-4.100799560546875	-2.338409423828125	
48	0.192	0.0	0.0	0.0	0.0	0.006	0.006	0.006	0.003	9.70968483276367	0.059256491088867186	0.4339490509033203	1.4495849609375	-2.407073974609375	-0.5035400390625	9.791087689208984	0.7224503509521484	0.40402153015136716	1.102447509765625	-4.924774169921875	-3.131866455078125	10.050858569335936	0.4584896179199218	-0.11611878051757812	3.47900390625	-4.5928955078125	-1.964569091796875	
49	0.196	0.0	0.0	0.0	0.0	0.003	0.003	0.003	0.003	9.91498762512207	-0.8696937530517578	-0.07302315063476562	0.026702880859375	-1.94549560546875	-1.049041748046875	9.885658654785155	0.4842272857666015	0.14963760375976562	0.946044921875	-4.924774169921875	-3.0975341796875	10.218452685546874	-0.2759317413330078	-0.31663316955566406	3.6163330078125	-4.421234130859375	-2.5787353515625	
50	0.2	0.0	0.0	0.0	0.0	0.003	0.003	0.003	0.003	9.700706576538085	0.23882161560058593	0.4273649963378906	1.644134521484375	-2.902984619140625	-0.35858154296875	9.803657247924804	0.7547720733642578	0.4147954376220703	0.850677490234375	-4.993438720703125	-3.021240234375	10.058041174316406	0.5380968231201172	-0.09756371765136718	3.719329833984375	-4.581451416015625	-1.796722412109375	
51	0.20400000000000001	0.0	0.0	0.0	0.0	0.006	0.003	0.006	0.006	9.90241806640625	-0.9187748870849609	-0.06823474731445311	1.6632080078125	-2.780914306640625	-0.766754150390625	9.893439810180663	0.3705027069091797	0.1304839904785156	1.071929931640625	-5.260467529296875	-3.093719482421875	10.133458526611328	-0.2567781280517578	-0.49260699157714843	3.70025634765625	-4.41741943359375	-2.044677734375	
52	0.20800000000000002	0.0	0.0	0.0	0.0	0.003	0.006	0.003	0.003	9.695918173217773	0.3806780639648437	0.40581718139648437	1.972198486328125	-2.864837646484375	-0.614166259765625	9.809044201660155	0.7152677459716796	0.16879121704101563	0.736236572265625	-5.092620849609375	-3.2196044921875	10.078990438842773	0.5213374114990235	-0.09457096557617187	3.47900390625	-4.650115966796875	-1.983642578125	
53	0.212	0.0	0.0	0.0	0.0	0.009000000000000001	0.003	0.003	0.003	9.892242709350585	0.48722003784179685	0.14484920043945312	2.239227294921875	-3.177642822265625	-0.457763671875	9.882067352294921	0.4285620971679687	0.11372457885742186	1.1749267578125	-5.336761474609375	-2.9754638671875	10.110713610839843	-0.1322796417236328	-0.48063598327636714	3.77655029296875	-4.547119140625	-1.7852783203125	
54	0.216	0.0	0.0	0.0	0.0	0.006	0.006	0.003	0.006	9.712079034423828	0.47165772705078124	0.37229835815429685	2.628326416015625	-3.162384033203125	-0.484466552734375	9.810839852905273	0.6308721374511719	0.15442600708007811	0.835418701171875	-4.909515380859375	-2.89154052734375	10.076596237182617	0.40222587890625	-0.11133037719726561	3.62396240234375	-4.547119140625	-2.57110595703125	
55	0.22	0.0	0.0	0.0	0.0	0.003	0.003	0.003	0.003	9.917980377197265	0.48123453369140623	0.08858546142578125	2.719879150390625	-3.406524658203125	-0.83160400390625	9.919776028442381	0.38367081604003905	0.10115502014160156	-0.0762939453125	-4.833221435546875	-2.57110595703125	10.152013589477539	-0.16759411621093748	-0.5207388610839844	3.482818603515625	-4.688262939453125	-2.31170654296875	
56	0.224	0.0	0.0	0.0	0.0	0.0	0.006	0.003	0.006	9.996390481567381	0.9193734375	-0.13407529296874998	5.146026611328125	-5.24139404296875	-1.31988525390625	9.776123928833007	0.8409633331298828	0.16819266662597654	0.621795654296875	-5.08880615234375	-2.887725830078125	9.896432562255859	0.6979097839355468	-0.11073182678222655	3.45611572265625	-4.58526611328125	-2.2430419921875	
57	0.228	0.0	0.0	0.0	0.0	0.006	0.003	0.003	0.006	9.922768780517577	0.4333505004882812	0.025139117431640625	3.0517578125	-3.9825439453125	-0.659942626953125	9.764751470947266	0.1945288848876953	0.19692308654785154	-0.02288818359375	-4.72259521484375	-2.315521240234375	10.098742602539062	-0.34835634155273437	-0.5159504577636719	3.620147705078125	-4.665374755859375	-1.895904541015625	
58	0.232	0.0	0.0	0.0	0.0	0.0	0.003	0.006	0.003	9.983820922851562	0.6859387756347656	-0.11911153259277343	5.252838134765625	-5.329132080078125	-1.636505126953125	9.798270294189452	0.7092822418212891	0.14484920043945312	1.12152099609375	-4.917144775390625	-3.12042236328125	9.935936889648437	0.49021278991699213	-0.11851298217773437	3.414154052734375	-4.428863525390625	-2.5634765625	
59	0.23600000000000002	0.0	0.0	0.0	0.0	0.006	0.006	0.003	0.006	9.947907897949218	0.5746083984375	-0.034715924072265626	3.704071044921875	-4.180908203125	-0.4425048828125	9.77432827758789	0.4285620971679687	0.14903905334472656	0.316619873046875	-5.199432373046875	-2.483367919921875	9.920374578857421	0.1927332336425781	-0.22744915771484372	3.719329833984375	-4.8828125	-1.9073486328125	
60	0.24	0.0	0.0	0.0	0.0	0.009000000000000001	0.003	0.006	0.003	9.93414123840332	0.5931634613037109	-0.10235212097167969	4.940032958984375	-5.14984130859375	-1.35040283203125	9.68514426574707	0.47105917663574215	0.1149216796875	1.18255615234375	-4.81414794921875	-3.326416015625	9.865307940673828	0.5063736511230469	-0.16759411621093748	3.8604736328125	-4.43267822265625	-2.346038818359375	
61	0.244	0.0	0.0	0.0	0.0	0.003	0.003	0.006	0.003	9.807847100830077	0.12090718383789062	-0.017956512451171875	2.819061279296875	-4.329681396484375	-1.15966796875	9.80006594543457	0.27293898925781246	0.1352723937988281	0.278472900390625	-5.054473876953125	-2.780914306640625	9.925761532592773	0.013766659545898436	-0.2154781494140625	3.77655029296875	-5.035400390625	-2.12860107421875	
62	0.248	0.0	0.0	0.0	0.0	0.003	0.006	0.003	0.003	9.922768780517577	0.49679684448242184	-0.07900865478515624	5.031585693359375	-5.30242919921875	-1.422882080078125	9.733626849365233	0.6973112335205077	0.12689268798828124	1.064300537109375	-4.90570068359375	-3.650665283203125	9.967061511230469	0.22206220397949217	-0.14484920043945312	3.932952880859375	-4.31060791015625	-3.078460693359375	
63	0.252	0.0	0.0	0.0	0.0	0.003	0.003	0.003	0.003	9.78031378173828	0.12449848632812499	0.007781155395507812	2.3345947265625	-3.8604736328125	-0.896453857421875	9.686939916992188	0.5530605834960938	0.06464344482421874	1.251220703125	-5.04302978515625	-2.643585205078125	9.865307940673828	0.13108254089355467	-0.2537853759765625	3.45611572265625	-4.604339599609375	-1.617431640625	
64	0.256	0.0	0.0	0.0	0.0	0.006	0.003	0.003	0.003	9.87009634399414	0.2807201446533203	-0.02693476867675781	0.896453857421875	-5.718231201171875	-1.430511474609375	9.7162688873291	0.6769605194091797	0.15263035583496093	1.5869140625	-5.18035888671875	-3.986358642578125	9.889249957275391	0.18136077575683593	-0.12808978881835936	3.971099853515625	-4.3487548828125	-3.345489501953125	
65	0.26	0.0	0.0	0.0	0.0	0.003	0.006	0.003	0.006	9.796474642944336	0.037708676147460936	0.047285482788085934	1.895904541015625	-3.421783447265625	-0.835418701171875	9.738415252685547	0.6368576416015624	0.08559270935058594	0.98419189453125	-5.367279052734375	-3.01361083984375	9.97184991455078	0.07781155395507812	-0.2232593048095703	3.42559814453125	-4.398345947265625	-1.76239013671875	
66	0.264	0.0	0.0	0.0	0.0	0.003	0.003	0.006	0.006	9.90840357055664	-0.373495458984375	0.004189852905273437	1.560211181640625	-2.74658203125	-0.896453857421875	9.89463691101074	0.28730419921875	0.09217676391601562	0.919342041015625	-4.817962646484375	-3.6773681640625	9.854534033203125	0.17357962036132812	-0.12988544006347655	3.826141357421875	-4.3182373046875	-3.223419189453125	
67	0.268	0.0	0.0	0.0	0.0	0.006	0.006	0.006	0.006	9.80006594543457	-0.19931728820800781	0.07721300354003906	1.194000244140625	-3.19671630859375	-0.5035400390625	9.709086282348633	0.651821401977539	0.13766659545898435	1.13677978515625	-5.2337646484375	-3.124237060546875	9.859322436523437	0.48722003784179685	0.062249243164062495	3.505706787109375	-4.53948974609375	-1.842498779296875	
68	0.272	0.0	0.0	0.0	0.0	0.006	0.003	0.006	0.006	9.951499200439452	0.051475335693359374	0.00239420166015625	2.605438232421875	-3.650665283203125	-0.95367431640625	9.938331091308592	0.37768531188964843	0.10953472595214843	0.732421875	-4.8980712890625	-3.7078857421875	9.90241806640625	0.18555062866210936	-0.07481880187988281	3.9215087890625	-4.29534912109375	-2.948760986328125	
69	0.276	0.0	0.0	0.0	0.0	0.009000000000000001	0.003	0.003	0.006	9.889249957275391	-0.08499415893554688	0.13587094421386717	2.6092529296875	-3.589630126953125	-1.190185546875	9.848548529052733	0.42317514343261714	0.31064766540527344	0.02288818359375	-5.077362060546875	-2.37274169921875	9.906009368896484	0.3633201019287109	0.04908113403320312	3.53240966796875	-4.657745361328125	-1.85394287109375	
70	0.28	0.0	0.0	0.0	0.0	0.006	0.003	0.003	0.003	9.897031112670899	0.025737667846679687	0.03591302490234375	2.910614013671875	-3.696441650390625	-0.827789306640625	9.87608184814453	0.5165490081787109	0.12569558715820311	0.614166259765625	-4.749298095703125	-3.444671630859375	10.216058483886718	-0.11432312927246092	-0.4495113616943359	3.856658935546875	-4.375457763671875	-2.18963623046875	
71	0.28400000000000003	0.0	0.0	0.0	0.0	0.003	0.003	0.003	0.006	9.85632968444824	0.0143652099609375	0.2136824981689453	2.06756591796875	-3.47900390625	-0.89263916015625	9.87727894897461	0.3333925811767578	0.3022679595947265	0.1983642578125	-4.90570068359375	-2.3345947265625	9.949703549194336	0.31064766540527344	0.10953472595214843	3.444671630859375	-4.444122314453125	-1.57928466796875	
72	0.28800000000000003	0.0	0.0	0.0	0.0	0.006	0.003	0.006	0.006	9.913191973876952	0.14125789794921875	0.05027823486328125	3.520965576171875	-3.986358642578125	-1.033782958984375	9.947907897949218	-0.12389993591308593	-0.006584054565429687	0.58746337890625	-4.8675537109375	-2.8533935546875	10.35492218017578	-0.13108254089355467	-0.603338818359375	3.83758544921875	-4.486083984375	-2.44903564453125	
73	0.292	0.0	0.0	0.0	0.0	0.003	0.006	0.003	0.003	9.822212310791015	-0.031124621582031248	0.27353753967285155	1.789093017578125	-2.99072265625	-0.83160400390625	9.819818109130859	0.4746504791259765	0.27952304382324217	0.003814697265625	-5.0811767578125	-2.197265625	10.079588989257813	0.565630142211914	-0.31483751831054685	3.681182861328125	-4.49371337890625	-1.9378662109375	
74	0.296	0.0	0.0	0.0	0.0	0.003	0.006	0.003	0.006	9.886855755615233	0.09157821350097656	-0.04548983154296875	0.79345703125	-2.620697021484375	-0.843048095703125	9.95389340209961	-0.09935936889648436	-0.02154781494140625	0.934600830078125	-5.123138427734375	-2.83050537109375	10.332775814819335	-0.09337386474609374	-0.6428431457519531	3.597259521484375	-4.40216064453125	-2.307891845703125	
75	0.3	0.0	0.0	0.0	0.0	0.003	0.003	0.003	0.003	9.834183319091796	-0.05746083984375	0.2765302917480469	1.651763916015625	-3.200531005859375	-0.61798095703125	9.772532626342773	0.8373720306396484	0.22685060729980466	1.544952392578125	-4.7149658203125	-2.635955810546875	10.16338604736328	0.4955997436523437	-0.3794809631347656	3.59344482421875	-4.8370361328125	-2.32696533203125	
76	0.304	0.0	0.0	0.0	0.0	0.003	0.006	0.003	0.0	9.918578927612304	0.1897404815673828	-0.10893617553710937	1.22833251953125	-2.593994140625	-0.949859619140625	9.975441217041014	0.03591302490234375	-0.028730419921875	1.6326904296875	-4.840850830078125	-3.925323486328125	10.364498986816406	-0.11552023010253906	-0.42497079467773435	3.63922119140625	-4.657745361328125	-1.873016357421875	
77	0.308	0.0	0.0	0.0	0.0	0.0	0.006	0.003	0.003	9.795277542114258	0.09636661682128905	0.32441432495117184	2.22015380859375	-3.322601318359375	-0.789642333984375	9.605537060546874	0.9642647186279296	0.28730419921875	0.6866455078125	-4.924774169921875	-2.044677734375	10.126874472045898	0.47884033203125	-0.39923312683105466	3.437042236328125	-4.82940673828125	-2.109527587890625	
78	0.312	0.0	0.0	0.0	0.0	0.003	0.003	0.003	0.006	9.9461122467041	0.09516951599121093	-0.12689268798828124	1.941680908203125	-3.34930419921875	-1.041412353515625	9.916184725952148	0.9032125762939452	-0.06823474731445311	1.60980224609375	-4.802703857421875	-3.658294677734375	10.04906291809082	0.00718260498046875	-0.3896563201904297	3.589630126953125	-4.985809326171875	-2.216339111328125	
79	0.316	0.0	0.0	0.0	0.0	0.006	0.003	0.003	0.003	9.855731134033203	0.19812018737792966	0.07062894897460938	2.3193359375	-3.37982177734375	-0.99945068359375	9.679757312011718	0.17298106994628906	0.2597708801269531	0.42724609375	-5.077362060546875	-2.132415771484375	10.135852728271484	0.48063598327636714	-0.4070142822265625	3.8604736328125	-4.730224609375	-2.231597900390625	
80	0.32	0.0	0.0	0.0	0.0	0.006	0.003	0.003	0.006	9.951499200439452	0.010175357055664061	-0.12090718383789062	1.392364501953125	-3.173828125	-1.0833740234375	9.826402163696288	0.8254010223388671	-0.006584054565429687	1.216888427734375	-4.95147705078125	-3.757476806640625	10.098742602539062	0.022146365356445312	-0.39264907226562495	3.368377685546875	-4.7607421875	-1.7852783203125	
81	0.324	0.0	0.0	0.0	0.0	0.003	0.003	0.003	0.006	9.824007962036132	0.10235212097167969	0.09038111267089843	1.804351806640625	-3.284454345703125	-0.77056884765625	9.712079034423828	-0.03232172241210937	0.3124433166503906	0.469207763671875	-4.84466552734375	-2.994537353515625	9.941323843383788	0.25797522888183594	-0.02454056701660156	3.536224365234375	-4.726409912109375	-2.048492431640625	
82	0.328	0.0	0.0	0.0	0.0	0.006	0.003	0.003	0.003	9.817423907470703	0.15382745666503905	0.15023615417480468	2.735137939453125	-3.673553466796875	-0.732421875	9.826402163696288	0.987009634399414	-0.04369418029785156	1.46484375	-5.161285400390625	-2.9144287109375	10.079588989257813	0.054468087768554684	-0.43155484924316406	3.459930419921875	-4.9285888671875	-1.8310546875	
83	0.332	0.0	0.0	0.0	0.0	0.003	0.003	0.003	0.003	9.849745629882811	0.009576806640625	0.08259995727539061	1.861572265625	-3.185272216796875	-0.934600830078125	9.7545761138916	0.016160861206054686	0.30466216125488277	1.155853271484375	-4.913330078125	-3.01361083984375	9.980229620361328	0.25139117431640623	-0.07242460021972656	3.62396240234375	-4.726409912109375	-2.349853515625	
84	0.336	0.0	0.0	0.0	0.0	0.003	0.003	0.006	0.003	9.819219558715819	0.19512743530273435	0.1771709228515625	2.57110595703125	-3.513336181640625	-0.8544921875	9.879673150634765	0.5279214660644531	-0.04548983154296875	1.064300537109375	-4.924774169921875	-2.655029296875	9.936535440063476	0.17298106994628906	-0.13587094421386717	3.551483154296875	-4.913330078125	-2.101898193359375	
85	0.34	0.0	0.0	0.0	0.0	0.003	0.006	0.003	0.003	9.89463691101074	-0.032920272827148434	0.013168109130859374	1.5716552734375	-3.01361083984375	-0.949859619140625	9.71686743774414	0.4369418029785156	0.2867056488037109	1.262664794921875	-4.67681884765625	-3.459930419921875	9.938929641723632	0.2609679809570312	-0.11372457885742186	3.711700439453125	-4.688262939453125	-2.3040771484375	
86	0.34400000000000003	0.0	0.0	0.0	0.0	0.006	0.006	0.003	0.003	9.828197814941406	0.28730419921875	0.1592144104003906	2.6397705078125	-4.0283203125	-0.812530517578125	9.69771382446289	0.37289690856933594	0.2914940521240234	0.713348388671875	-4.98199462890625	-2.880096435546875	9.913191973876952	0.21128829650878905	-0.15861585998535155	3.509521484375	-4.886627197265625	-2.079010009765625	
87	0.34800000000000003	0.0	0.0	0.0	0.0	0.0	0.003	0.003	0.003	9.852139831542969	0.0	0.1562216583251953	2.819061279296875	-3.753662109375	-0.736236572265625	9.692925421142577	0.7338228088378905	0.2537853759765625	1.1444091796875	-5.04302978515625	-3.0517578125	9.849147079467773	0.09217676391601562	0.07541735229492187	3.74603271484375	-4.413604736328125	-2.593994140625	
88	0.352	0.0	0.0	0.0	0.0	0.006	0.006	0.006	0.003	9.833584768676758	0.3447650390625	0.10654197387695312	3.025054931640625	-3.978729248046875	-0.850677490234375	9.756970315551758	0.15083470458984374	0.18136077575683593	0.843048095703125	-5.252838134765625	-3.16619873046875	9.937133990478515	0.2328361114501953	-0.2232593048095703	3.66973876953125	-4.96673583984375	-2.50244140625	
89	0.356	0.0	0.0	0.0	0.0	0.003	0.006	0.003	0.006	9.835380419921874	0.011971008300781249	0.19572598571777342	2.910614013671875	-3.44085693359375	-0.949859619140625	9.69771382446289	0.7020996368408202	0.258573779296875	1.09100341796875	-4.810333251953125	-3.131866455078125	9.780912332153319	0.14125789794921875	0.09756371765136718	3.406524658203125	-4.34112548828125	-2.532958984375	
90	0.36	0.0	0.0	0.0	0.0	0.006	0.003	0.003	0.006	9.826402163696288	0.2693476867675781	0.14006079711914063	2.338409423828125	-4.833221435546875	-0.820159912109375	9.731232647705077	0.30526071166992186	0.25139117431640623	0.789642333984375	-5.279541015625	-3.448486328125	9.957484704589843	0.22685060729980466	-0.17417817077636719	3.696441650390625	-4.5928955078125	-2.170562744140625	
91	0.364	0.0	0.0	0.0	0.0	0.006	0.003	0.003	0.006	9.843760125732421	0.15083470458984374	0.17956512451171874	3.749847412109375	-4.34112548828125	-0.81634521484375	9.71686743774414	0.5315127685546874	0.29448680419921874	1.13677978515625	-4.848480224609375	-2.8839111328125	9.828796365356444	0.09038111267089843	0.08379705810546874	3.66973876953125	-4.329681396484375	-2.76947021484375	
92	0.368	0.0	0.0	0.0	0.0	0.0	0.006	0.003	0.006	10.01733974609375	-0.17178396911621094	-0.201112939453125	2.719879150390625	-3.85284423828125	-0.995635986328125	9.77432827758789	0.3711012573242187	0.1879448303222656	0.8087158203125	-5.191802978515625	-2.8533935546875	9.868899243164062	0.3363853332519531	0.11911153259277343	3.452301025390625	-4.28009033203125	-2.1514892578125	
93	0.372	0.0	0.0	0.0	0.0	0.003	0.003	0.003	0.0	9.810241302490233	0.27892449340820313	0.22685060729980466	3.94439697265625	-4.45556640625	-0.568389892578125	9.690531219482422	0.35314474487304687	0.2597708801269531	1.102447509765625	-4.8065185546875	-3.1280517578125	9.81263550415039	0.07781155395507812	0.0718260498046875	3.536224365234375	-4.425048828125	-2.3956298828125	
94	0.376	0.0	0.0	0.0	0.0	0.003	0.003	0.003	0.003	10.032303506469725	-0.2184709014892578	-0.18076222534179687	2.8533935546875	-4.08935546875	-1.129150390625	9.789292037963866	0.5039794494628906	0.17417817077636719	1.0833740234375	-5.107879638671875	-2.803802490234375	9.931747036743163	0.28431144714355466	0.1227028350830078	3.7994384765625	-4.31060791015625	-2.26593017578125	
95	0.38	0.0	0.0	0.0	0.0	0.003	0.006	0.003	0.003	9.950900650024414	-0.0143652099609375	-0.16340426330566404	2.765655517578125	-3.864288330078125	-0.9307861328125	9.67137760620117	0.2980781066894531	0.28371289672851563	1.190185546875	-4.901885986328125	-2.75421142578125	10.277709176635742	0.0	-0.5422866760253906	3.849029541015625	-4.177093505859375	-2.063751220703125	
96	0.384	0.0	0.0	0.0	0.0	0.003	0.003	0.003	0.003	9.962273107910155	-0.011971008300781249	-0.08738836059570312	3.10516357421875	-4.2266845703125	-0.89263916015625	9.722254391479492	0.5512649322509765	0.17597382202148437	0.888824462890625	-5.2642822265625	-2.60162353515625	9.82520506286621	0.354940396118164	0.17178396911621094	3.66973876953125	-4.802703857421875	-2.41851806640625	
97	0.388	0.0	0.0	0.0	0.0	0.003	0.003	0.003	0.003	9.923965881347655	-0.16879121704101563	-0.15442600708007811	2.32696533203125	-3.604888916015625	-1.064300537109375	9.944316595458984	0.3902548706054687	0.008978256225585938	1.461029052734375	-4.94384765625	-2.796173095703125	10.263942517089843	0.06404489440917968	-0.5470750793457031	3.80706787109375	-4.505157470703125	-2.017974853515625	
98	0.392	0.0	0.0	0.0	0.0	0.003	0.003	0.003	0.003	10.006565838623047	-0.1005564697265625	-0.044891281127929686	3.353118896484375	-4.1046142578125	-0.823974609375	9.854534033203125	0.30047230834960936	0.08439560852050781	0.37384033203125	-4.970550537109375	-2.02178955078125	10.219649786376953	0.19033903198242186	-0.4495113616943359	3.437042236328125	-4.52423095703125	-2.44903564453125	
99	0.396	0.0	0.0	0.0	0.0	0.006	0.006	0.003	0.006	9.89463691101074	0.012569558715820313	-0.1849520782470703	2.750396728515625	-3.91387939453125	-1.300811767578125	9.843760125732421	0.5979518646240234	0.011372457885742187	1.277923583984375	-4.638671875	-3.10516357421875	10.127473022460936	0.12389993591308593	-0.47584757995605464	3.414154052734375	-4.177093505859375	-2.166748046875	
100	0.4	0.0	0.0	0.0	0.0	0.003	0.003	0.006	0.0	9.615712417602538	0.1592144104003906	0.39923312683105466	2.3956298828125	-3.696441650390625	-0.6866455078125	9.612719665527344	0.47584757995605464	0.48183308410644526	0.408172607421875	-4.993438720703125	-2.788543701171875	10.084975942993163	0.3226186737060547	-0.42317514343261714	3.498077392578125	-4.5928955078125	-2.094268798828125	
101	0.404	0.0	0.0	0.0	0.0	0.006	0.003	0.003	0.006	9.982623822021484	-0.181959326171875	-0.26396073303222656	1.54876708984375	-3.11279296875	-0.843048095703125	10.018536846923828	0.5117606048583984	-0.06284779357910156	1.461029052734375	-4.833221435546875	-2.704620361328125	10.321403356933594	0.001197100830078125	-0.41898529052734373	3.44085693359375	-4.619598388671875	-2.05230712890625	
102	0.40800000000000003	0.0	0.0	0.0	0.0	0.006	0.003	0.006	0.003	9.649829791259766	0.27832594299316404	0.27892449340820313	3.078460693359375	-3.77655029296875	-1.129150390625	9.605537060546874	0.4590881683349609	0.5686228942871093	0.34332275390625	-4.8675537109375	-3.021240234375	10.036493359375	0.2597708801269531	-0.3226186737060547	3.570556640625	-4.688262939453125	-2.47955322265625	
103	0.41200000000000003	0.0	0.0	0.0	0.0	0.0	0.003	0.003	0.003	9.874884747314452	-0.20470424194335937	-0.12689268798828124	1.220703125	-3.37982177734375	-1.10626220703125	9.884461553955077	0.5823895538330078	-0.12808978881835936	0.9307861328125	-4.985809326171875	-2.819061279296875	10.096946951293944	0.3381809844970703	-0.6147112762451171	3.452301025390625	-4.82177734375	-1.861572265625	
104	0.41600000000000004	0.0	0.0	0.0	0.0	0.003	0.003	0.003	0.003	9.677363110351562	0.21248539733886718	0.22445640563964842	2.2430419921875	-3.28826904296875	-0.843048095703125	9.717465988159178	0.5153519073486328	0.48542438659667964	0.3814697265625	-5.08880615234375	-3.0364990234375	10.168174450683592	0.17178396911621094	-0.2723404388427734	3.47137451171875	-4.82177734375	-2.552032470703125	
105	0.42	0.0	0.0	0.0	0.0	0.006	0.006	0.003	0.003	9.860519537353515	0.20470424194335937	0.14484920043945312	0.26702880859375	-1.850128173828125	-1.2054443359375	9.97783541870117	0.38367081604003905	-0.11911153259277343	1.399993896484375	-4.78363037109375	-3.173828125	10.20229182434082	0.2088940948486328	-0.565630142211914	3.62396240234375	-4.688262939453125	-2.0904541015625	
106	0.424	0.0	0.0	0.0	0.0	0.006	0.003	0.003	0.006	9.617508068847656	-0.031124621582031248	0.22744915771484372	1.331329345703125	-2.964019775390625	-1.041412353515625	9.600150106811522	0.7128735443115234	0.30346506042480464	0.69427490234375	-5.16510009765625	-3.31878662109375	9.818022457885741	0.15322890625	-0.2154781494140625	3.54766845703125	-4.283905029296875	-2.1820068359375	
107	0.428	0.0	0.0	0.0	0.0	0.006	0.003	1.992	4.575	9.860519537353515	0.1562216583251953	0.12090718383789062	-0.92315673828125	-1.377105712890625	-0.457763671875	10.011354241943359	0.3860650177001953	-0.08439560852050781	1.041412353515625	-4.87518310546875	-3.147125244140625	10.206481677246094	0.19333178405761717	-0.4914098907470703	3.498077392578125	-4.791259765625	-1.983642578125	
108	0.432	0.0	0.0	0.0	0.0	4.5840000000000005	4.635	4.635	4.5840000000000005	9.75517466430664	0.29927520751953124	0.04967968444824218	3.185272216796875	-3.99017333984375	-1.674652099609375	9.739612353515625	0.5416881256103515	0.30526071166992186	0.637054443359375	-4.69970703125	-3.143310546875	9.99220062866211	-0.03232172241210937	-0.1484405029296875	3.47137451171875	-4.58526611328125	-2.422332763671875	
109	0.436	0.0	0.0	0.0	0.0	4.5840000000000005	4.6290000000000004	4.635	4.593	9.82460651245117	0.00718260498046875	0.13826514587402344	-0.51116943359375	-1.895904541015625	-1.220703125	9.78689783630371	0.35314474487304687	0.07422025146484375	0.823974609375	-5.126953125	-2.796173095703125	9.879673150634765	0.40880993347167965	-0.20350714111328125	3.631591796875	-4.772186279296875	-2.231597900390625	
110	0.44	0.0	0.0	0.0	0.0	4.593	4.635	4.623	4.5840000000000005	9.797073193359374	-0.023343466186523436	0.14185644836425781	0.55694580078125	-2.2430419921875	-0.499725341796875	9.609726913452148	0.6093243225097655	0.4626794708251953	0.682830810546875	-5.130767822265625	-2.925872802734375	9.826402163696288	0.07422025146484375	-0.06404489440917968	3.5552978515625	-4.596710205078125	-2.346038818359375	
111	0.444	0.0	0.0	0.0	0.0	4.593	4.635	4.635	4.563	9.95987890625	0.10893617553710937	0.013766659545898436	-1.97601318359375	-0.5645751953125	-0.60272216796875	9.89523546142578	0.24001871643066405	0.0987608184814453	0.701904296875	-5.18035888671875	-3.0670166015625	10.066420880126952	0.28431144714355466	-0.1514332550048828	3.589630126953125	-4.817962646484375	-2.422332763671875	
112	0.448	0.0	0.0	0.0	0.0	4.596	4.635	4.632	4.5600000000000005	9.828197814941406	0.6452373474121094	0.11252747802734374	4.31060791015625	-4.31060791015625	-1.4495849609375	9.611522564697266	0.49679684448242184	0.32022447204589843	0.89263916015625	-4.604339599609375	-3.284454345703125	9.828197814941406	0.06284779357910156	-0.05566518859863281	3.810882568359375	-4.1656494140625	-2.7313232421875	
113	0.452	0.0	0.0	0.0	0.0	4.596	4.6290000000000004	4.632	4.575	9.90241806640625	-0.04189852905273437	0.003591302490234375	2.75421142578125	-4.192352294921875	-0.8697509765625	9.724050042724608	0.4159925384521484	0.19213468322753904	0.701904296875	-5.222320556640625	-2.872467041015625	9.803657247924804	0.4848258361816406	-0.07062894897460938	3.749847412109375	-4.482269287109375	-2.197265625	
114	0.456	0.0	0.0	0.0	0.0	4.587	4.635	4.635	4.5840000000000005	9.813832604980469	-0.3286041778564453	0.13347674255371092	-0.2899169921875	-1.7242431640625	-0.34332275390625	9.613916766357422	0.44412440795898434	0.3848679168701172	0.58746337890625	-4.611968994140625	-3.60870361328125	9.91558617553711	-0.055066638183593745	-0.07541735229492187	3.871917724609375	-4.611968994140625	-2.35748291015625	
115	0.46	0.0	0.0	0.0	0.0	4.59	4.635	4.638	4.5840000000000005	10.059238275146484	0.9516951599121093	-0.23044190979003906	5.374908447265625	-5.390167236328125	-0.8544921875	9.906607919311522	0.31543606872558594	0.025139117431640625	0.823974609375	-5.25665283203125	-2.58636474609375	9.9981861328125	0.33099837951660155	-0.14125789794921875	3.803253173828125	-4.5318603515625	-2.300262451171875	
116	0.464	0.0	0.0	0.0	0.0	4.578	4.632	4.632	4.593	9.750984811401366	1.0516530792236327	0.13587094421386717	4.474639892578125	-4.116058349609375	-1.19781494140625	9.550470422363281	0.5943605621337891	0.3633201019287109	0.766754150390625	-4.581451416015625	-3.2196044921875	9.71686743774414	0.09935936889648436	-0.020350714111328123	3.818511962890625	-4.245758056640625	-2.613067626953125	
117	0.468	0.0	0.0	0.0	0.0	4.593	4.632	4.635	4.578	9.942520944213866	0.06943184814453125	-0.008978256225585938	4.543304443359375	-4.795074462890625	-1.30462646484375	9.731831198120117	0.3758896606445312	0.2645592834472656	-0.041961669921875	-5.07354736328125	-2.277374267578125	9.90122096557617	0.38187516479492184	0.06404489440917968	3.498077392578125	-4.825592041015625	-2.071380615234375	
118	0.47200000000000003	0.0	0.0	0.0	0.0	4.593	4.638	4.635	4.5600000000000005	10.08078609008789	-0.2346317626953125	-0.1610100616455078	3.4027099609375	-4.33349609375	0.125885009765625	9.660603698730467	0.4638765716552734	0.3687070556640625	1.57928466796875	-4.78363037109375	-3.08990478515625	9.976638317871092	-0.06105214233398437	-0.12389993591308593	3.696441650390625	-4.43267822265625	-2.552032470703125	
119	0.47600000000000003	0.0	0.0	0.0	0.0	4.599	4.632	4.632	4.563	10.050858569335936	0.4273649963378906	-0.18914193115234373	2.101898193359375	-3.582000732421875	-0.293731689453125	9.731831198120117	0.3860650177001953	0.19213468322753904	0.9918212890625	-4.9285888671875	-2.819061279296875	9.909600671386718	0.3920505218505859	-0.028730419921875	3.28826904296875	-4.26483154296875	-2.26593017578125	
120	0.48	0.0	0.0	0.0	0.0	4.596	4.6290000000000004	4.632	4.581	9.909600671386718	1.1354501373291015	0.0143652099609375	10.30731201171875	-8.01849365234375	-1.132965087890625	9.78629928588867	0.5728127471923827	0.105344873046875	1.33514404296875	-4.871368408203125	-2.574920654296875	10.13824692993164	0.13587094421386717	-0.4369418029785156	3.68499755859375	-4.505157470703125	-1.842498779296875	
121	0.484	0.0	0.0	0.0	0.0	4.593	4.635	4.638	4.5840000000000005	9.963470208740233	0.7757213378906249	0.38845921936035155	5.22613525390625	-5.767822265625	-1.27410888671875	9.91558617553711	0.31184476623535157	0.07721300354003906	0.17547607421875	-5.062103271484375	-2.02178955078125	10.088567245483398	0.28790274963378903	-0.00718260498046875	3.360748291015625	-4.459381103515625	-2.101898193359375	
122	0.488	0.0	0.0	0.0	0.0	4.59	4.635	4.632	4.5840000000000005	9.956886154174803	-0.4327519500732422	0.02693476867675781	4.67681884765625	-5.023956298828125	-0.751495361328125	9.850344180297851	0.5255272644042969	0.055066638183593745	0.934600830078125	-5.1116943359375	-3.24249267578125	10.396820709228516	0.017357962036132813	-0.6362590911865234	3.543853759765625	-4.50897216796875	-2.11334228515625	
123	0.492	0.0	0.0	0.0	0.0	4.578	4.632	4.632	4.593	9.739612353515625	0.051475335693359374	0.3537432952880859	2.002716064453125	-3.56292724609375	-0.080108642578125	9.727641345214844	0.5093664031982421	0.28371289672851563	1.2054443359375	-4.810333251953125	-2.9754638671875	9.805452899169921	0.3920505218505859	0.08678981018066406	3.574371337890625	-4.444122314453125	-2.353668212890625	
124	0.496	0.0	0.0	0.0	0.0	4.593	4.635	4.638	0.003	9.944316595458984	0.3399766357421875	-0.027533319091796873	5.138397216796875	-5.3253173828125	-0.00762939453125	9.892841259765625	0.36152445068359373	0.07302315063476562	1.48773193359375	-4.8828125	-2.864837646484375	10.275314974975585	0.018555062866210937	-0.5129577056884765	3.53240966796875	-4.367828369140625	-1.728057861328125	
125	0.5	0.0	0.0	0.0	0.0	0.003	0.003	0.003	0.003	9.834781869506836	0.5255272644042969	0.19991583862304688	7.3089599609375	-6.793975830078125	-1.430511474609375	9.949104998779296	0.47285482788085936	0.10474632263183593	0.789642333984375	-5.3558349609375	-2.552032470703125	10.225036740112303	0.20530279235839843	-0.36272155151367186	3.513336181640625	-4.87518310546875	-2.410888671875	
126	0.504	0.0	0.0	0.0	0.0	0.003	0.003	0.003	0.003	9.868300692749022	-0.37708676147460934	-0.03232172241210937	-0.347137451171875	-2.086639404296875	-1.476287841796875	9.87727894897461	0.565630142211914	-0.1227028350830078	1.140594482421875	-4.886627197265625	-3.0517578125	10.227430941772461	0.1562216583251953	-0.5973533142089843	3.803253173828125	-4.791259765625	-1.9378662109375	
127	0.508	0.0	0.0	0.0	0.0	0.003	0.003	0.003	0.006	9.647435589599608	-0.10115502014160156	0.49739539489746093	3.71551513671875	-4.817962646484375	-0.8697509765625	9.827000714111328	0.47105917663574215	0.14245499877929688	0.274658203125	-5.016326904296875	-2.61688232421875	9.98561657409668	0.3399766357421875	-0.16280571289062498	3.509521484375	-4.688262939453125	-2.3956298828125	
128	0.512	0.0	0.0	0.0	0.0	0.006	0.003	0.003	0.006	9.963470208740233	-0.5345055206298828	-0.06344634399414062	-2.6702880859375	-0.057220458984375	-0.77056884765625	10.026916552734374	0.4961982940673828	-0.14544775085449219	1.811981201171875	-5.0048828125	-3.231048583984375	10.237606298828124	0.11911153259277343	-0.3746925598144531	3.6163330078125	-4.72259521484375	-2.044677734375	
129	0.516	0.0	0.0	0.0	0.0	0.003	0.003	0.003	0.006	9.677363110351562	-0.14604630126953125	0.48183308410644526	1.651763916015625	-3.2501220703125	-0.698089599609375	9.68514426574707	0.507570751953125	0.2920926025390625	1.0833740234375	-5.138397216796875	-3.543853759765625	10.078990438842773	0.2316390106201172	-0.28790274963378903	3.448486328125	-4.611968994140625	-2.201080322265625	
130	0.52	0.0	0.0	0.0	0.0	0.003	0.003	0.003	0.006	9.873687646484374	-0.24121581726074218	-0.03950432739257812	-1.865386962890625	-0.484466552734375	-0.91552734375	9.819219558715819	0.5482721801757812	0.020350714111328123	1.708984375	-5.191802978515625	-3.0517578125	9.936535440063476	0.2753331909179687	-0.24779987182617186	3.467559814453125	-4.604339599609375	-1.880645751953125	
131	0.524	0.0	0.0	0.0	0.0	0.006	0.006	0.003	0.003	9.83837317199707	0.08080430603027343	0.023942016601562498	1.140594482421875	-2.55584716796875	-0.9613037109375	9.724050042724608	0.5111620544433594	0.30705636291503907	0.81634521484375	-5.06591796875	-2.98309326171875	9.94671079711914	0.09756371765136718	-0.0796072052001953	3.66973876953125	-4.772186279296875	-2.43377685546875	
132	0.528	0.0	0.0	0.0	0.0	0.006	0.006	0.003	0.003	9.948506448364258	-0.07302315063476562	-0.12689268798828124	-0.339508056640625	-1.850128173828125	-0.99945068359375	9.822212310791015	0.39444472351074217	0.23523031311035156	0.576019287109375	-4.802703857421875	-3.002166748046875	10.217255584716796	0.18375497741699218	-0.44891281127929683	3.528594970703125	-4.67681884765625	-1.97601318359375	
133	0.532	0.0	0.0	0.0	0.0	0.0	0.006	0.006	0.006	9.759364517211914	0.29089550170898437	0.12330138549804687	0.698089599609375	-2.29644775390625	-1.323699951171875	9.595960253906249	0.6883329772949218	0.2501940734863281	0.67138671875	-5.01251220703125	-3.0517578125	9.790489138793944	0.21068974609375	-0.061650692749023434	3.574371337890625	-4.35638427734375	-2.490997314453125	
134	0.536	0.0	0.0	0.0	0.0	0.006	0.006	0.006	0.006	9.65940659790039	0.10714052429199218	0.1610100616455078	1.262664794921875	-2.620697021484375	-0.96893310546875	9.725247143554688	0.4674678741455078	0.2759317413330078	0.507354736328125	-5.168914794921875	-3.116607666015625	10.190919366455077	0.2214636535644531	-0.4327519500732422	3.536224365234375	-4.680633544921875	-2.285003662109375	
135	0.54	0.0	0.0	0.0	0.0	0.003	0.003	0.006	0.003	9.906009368896484	-0.13826514587402344	0.00239420166015625	-1.346588134765625	-1.178741455078125	-1.51824951171875	9.848548529052733	0.36571430358886714	0.09157821350097656	0.637054443359375	-4.726409912109375	-3.131866455078125	9.993996279907225	0.1352723937988281	-0.0939724151611328	3.54766845703125	-4.245758056640625	-2.689361572265625	
136	0.544	0.0	0.0	0.0	0.0	0.003	0.003	0.003	0.006	9.952696301269532	0.21248539733886718	-0.12090718383789062	0.72479248046875	-2.57110595703125	-0.675201416015625	9.673771807861328	0.42497079467773435	0.35613749694824215	0.335693359375	-4.596710205078125	-3.39508056640625	9.879673150634765	0.19153613281249998	-0.2950853546142578	3.520965576171875	-4.5013427734375	-2.4261474609375	
137	0.548	0.0	0.0	0.0	0.0	0.006	0.003	0.006	0.006	9.896432562255859	-0.1304839904785156	0.04189852905273437	-2.593994140625	-0.598907470703125	-0.92315673828125	9.65282254333496	0.4327519500732422	0.29448680419921874	0.9765625	-5.08880615234375	-3.204345703125	9.733626849365233	0.23882161560058593	0.07841010437011718	3.826141357421875	-4.70733642578125	-2.3651123046875	
138	0.552	0.0	0.0	0.0	0.0	0.006	0.003	0.003	0.006	10.08078609008789	0.20769699401855468	-0.3226186737060547	3.009796142578125	-3.993988037109375	-0.762939453125	9.824007962036132	0.354341845703125	0.3226186737060547	1.094818115234375	-4.962921142578125	-2.685546875	9.904213717651366	0.13766659545898435	-0.14784195251464843	3.627777099609375	-4.55474853515625	-2.34222412109375	
139	0.556	0.0	0.0	0.0	0.0	0.003	0.003	0.003	0.006	9.995193380737303	0.3459621398925781	-0.08319850769042968	7.59124755859375	-6.66046142578125	-0.782012939453125	9.770736975097655	0.3477577911376953	0.2454056701660156	0.835418701171875	-4.772186279296875	-3.3111572265625	9.9078050201416	0.1370680450439453	-0.05985504150390625	3.8299560546875	-4.123687744140625	-2.269744873046875	
140	0.56	0.0	0.0	0.0	0.0	0.006	0.003	0.006	0.0	9.964068759155273	0.44592005920410155	-0.16280571289062498	4.0435791015625	-4.81414794921875	-0.86212158203125	9.683348614501952	0.4273649963378906	0.1227028350830078	0.934600830078125	-4.81414794921875	-2.51007080078125	9.739612353515625	0.19812018737792966	-0.09217676391601562	3.60107421875	-4.543304443359375	-2.471923828125	
141	0.5640000000000001	0.0	0.0	0.0	0.0	0.0	0.003	0.006	0.003	9.975441217041014	0.4070142822265625	-0.06045359191894531	7.419586181640625	-6.37054443359375	-0.614166259765625	9.796474642944336	0.34117373657226563	0.2454056701660156	0.957489013671875	-4.711151123046875	-2.979278564453125	9.879673150634765	0.23523031311035156	-0.052073886108398436	3.6468505859375	-4.08172607421875	-2.338409423828125	
142	0.5680000000000001	0.0	0.0	0.0	0.0	0.003	0.003	0.006	0.003	10.040683212280273	0.44891281127929683	-0.2950853546142578	4.833221435546875	-4.795074462890625	-0.7476806640625	9.811438403320311	0.3058592620849609	0.028131869506835935	0.8087158203125	-5.3558349609375	-2.696990966796875	10.115502014160155	-0.005985504150390624	-0.1466448516845703	3.44085693359375	-4.627227783203125	-2.23541259765625	
143	0.5720000000000001	0.0	0.0	0.0	0.0	0.003	0.006	0.003	0.006	9.99220062866211	0.3585316986083984	-0.12988544006347655	7.106781005859375	-6.6375732421875	-0.522613525390625	9.81263550415039	0.4513070129394531	-0.05985504150390625	1.270294189453125	-5.1727294921875	-2.838134765625	9.815029705810547	0.34177228698730466	-0.07422025146484375	3.818511962890625	-4.550933837890625	-2.6702880859375	
144	0.5760000000000001	0.0	0.0	0.0	0.0	0.006	0.003	0.003	0.006	9.892841259765625	-0.08259995727539061	0.00239420166015625	6.015777587890625	-6.290435791015625	-0.942230224609375	9.746794958496093	0.37229835815429685	0.06284779357910156	0.804901123046875	-5.14984130859375	-2.437591552734375	9.945513696289062	0.0718260498046875	-0.05027823486328125	3.589630126953125	-4.665374755859375	-2.22015380859375	
145	0.58	0.0	0.0	0.0	0.0	0.003	0.006	0.006	0.009000000000000001	10.041880313110351	0.2088940948486328	-0.1131260284423828	7.915496826171875	-7.40814208984375	-0.43487548828125	9.907206469726562	0.37888241271972656	-0.06584054565429687	1.300811767578125	-5.06591796875	-2.7923583984375	9.970054263305663	0.15502455749511718	-0.12210428466796874	3.68499755859375	-4.47845458984375	-2.353668212890625	
146	0.584	0.0	0.0	0.0	0.0	0.006	0.003	0.003	0.006	9.87668039855957	-0.2950853546142578	0.09277531433105468	5.054473876953125	-5.60760498046875	-1.003265380859375	9.823409411621093	0.40880993347167965	0.26874913635253905	1.102447509765625	-4.89044189453125	-2.933502197265625	9.987412225341796	0.01975216369628906	-0.07721300354003906	3.60107421875	-4.398345947265625	-2.178192138671875	
147	0.588	0.0	0.0	0.0	0.0	0.0	0.003	0.006	0.003	9.961076007080077	0.054468087768554684	-0.054468087768554684	-0.3662109375	-1.811981201171875	-0.995635986328125	9.801861596679688	0.49260699157714843	0.0047884033203125	1.434326171875	-5.023956298828125	-2.979278564453125	10.15680199279785	0.29448680419921874	-0.38845921936035155	3.757476806640625	-4.57000732421875	-2.346038818359375	
148	0.592	0.0	0.0	0.0	0.0	0.0	0.006	0.003	0.003	9.835380419921874	-0.5404910247802734	0.23223756103515625	2.918243408203125	-4.276275634765625	-0.957489013671875	9.852139831542969	0.4483142608642578	0.3178302703857422	1.354217529296875	-5.321502685546875	-3.269195556640625	10.035894808959961	-0.01915361328125	0.017956512451171875	3.3416748046875	-4.58526611328125	-2.231597900390625	
149	0.596	0.0	0.0	0.0	0.0	0.003	0.006	0.006	0.006	9.725845693969726	-0.13407529296874998	0.26276363220214843	-1.21307373046875	-1.201629638671875	-0.942230224609375	9.929352835083007	0.5039794494628906	0.09576806640624999	1.46484375	-5.062103271484375	-3.19671630859375	10.293870037841796	0.16819266662597654	-0.373495458984375	3.711700439453125	-4.2266845703125	-2.376556396484375	
150	0.6	0.0	0.0	0.0	0.0	0.006	0.006	0.006	0.003	9.728239895629882	-0.49380409240722656	0.3920505218505859	1.1444091796875	-2.98309326171875	-0.9002685546875	9.750386260986328	0.517746109008789	0.4327519500732422	0.9765625	-5.0811767578125	-3.10516357421875	10.026916552734374	0.3226186737060547	-0.19093758239746092	3.62396240234375	-4.5928955078125	-1.918792724609375	
151	0.604	0.0	0.0	0.0	0.0	0.003	0.003	0.003	0.006	9.72345149230957	-0.1149216796875	0.2855085479736328	-2.00653076171875	-0.31280517578125	-0.75531005859375	9.937732540893554	0.507570751953125	0.10654197387695312	1.071929931640625	-5.001068115234375	-2.92205810546875	10.309432348632813	0.1897404815673828	-0.40940848388671874	3.59344482421875	-4.1961669921875	-2.307891845703125	
152	0.608	0.0	0.0	0.0	0.0	0.006	0.003	0.006	0.006	9.805452899169921	0.4914098907470703	0.18435352783203124	0.438690185546875	-2.1209716796875	-0.89263916015625	9.743203656005859	0.5506663818359374	0.30346506042480464	0.396728515625	-5.023956298828125	-2.384185791015625	10.197503421020507	0.19632453613281248	-0.27892449340820313	3.749847412109375	-4.608154296875	-2.00653076171875	
153	0.612	0.0	0.0	0.0	0.0	0.003	0.006	0.003	0.006	9.749189160156249	0.13766659545898435	0.1484405029296875	-1.377105712890625	-0.89263916015625	-0.988006591796875	9.847949978637695	0.5793968017578125	0.06045359191894531	1.03759765625	-4.95147705078125	-3.154754638671875	9.974842666625976	0.07541735229492187	-0.49200844116210934	3.314971923828125	-4.657745361328125	-2.52532958984375	
154	0.616	0.0	0.0	0.0	0.0	0.006	0.006	0.006	0.003	9.801861596679688	0.5195417602539062	0.07003039855957031	2.288818359375	-3.47900390625	-0.980377197265625	9.634866030883789	0.604535919189453	0.23403321228027343	-0.0457763671875	-4.787445068359375	-2.323150634765625	10.032902056884765	0.3705027069091797	-0.24899697265624998	3.48663330078125	-4.505157470703125	-1.9989013671875	
155	0.62	0.0	0.0	0.0	0.0	0.0	0.003	0.003	0.003	9.961076007080077	-0.009576806640625	-0.19333178405761717	-0.7476806640625	-1.789093017578125	-1.026153564453125	9.903615167236328	0.41539398803710936	-0.09696516723632811	0.911712646484375	-5.18035888671875	-3.16619873046875	10.179546908569336	-0.009576806640625	-0.47884033203125	3.4027099609375	-4.547119140625	-2.349853515625	
156	0.624	0.0	0.0	0.0	0.0	0.003	0.003	0.003	0.003	9.811438403320311	0.3938461730957031	0.05805939025878906	3.559112548828125	-4.2266845703125	-0.8544921875	9.60793126220703	0.49021278991699213	0.3184288208007812	0.45013427734375	-4.764556884765625	-2.6092529296875	9.983222372436522	0.38786066894531246	-0.10474632263183593	3.650665283203125	-4.825592041015625	-2.300262451171875	
157	0.628	0.0	0.0	0.0	0.0	0.0	0.003	0.006	0.003	9.809044201660155	0.3238157745361328	0.13946224670410157	3.3721923828125	-4.413604736328125	-0.74005126953125	9.743802206420899	0.6596025573730468	0.01975216369628906	1.377105712890625	-5.359649658203125	-3.376007080078125	9.943119494628906	0.11611878051757812	-0.25139117431640623	3.47137451171875	-4.69970703125	-2.06756591796875	
158	0.632	0.0	0.0	0.0	0.0	0.003	0.003	0.003	0.003	9.776722479248047	0.3890577697753906	0.18076222534179687	3.99017333984375	-4.467010498046875	-0.8087158203125	9.688735568237304	0.4082113830566406	0.30466216125488277	1.422882080078125	-4.871368408203125	-2.90679931640625	9.950302099609374	0.36930560607910157	0.0526724365234375	3.662109375	-4.787445068359375	-2.285003662109375	
159	0.636	0.0	0.0	0.0	0.0	0.006	0.006	0.003	0.003	9.847949978637695	0.17178396911621094	0.17477672119140625	2.25067138671875	-3.383636474609375	-1.1138916015625	9.907206469726562	0.6159083770751953	-0.010175357055664061	1.4801025390625	-4.85992431640625	-3.528594970703125	10.162787496948242	-0.0718260498046875	-0.31543606872558594	3.79180908203125	-4.8828125	-2.15911865234375	
160	0.64	0.0	0.0	0.0	0.0	0.006	0.006	0.006	0.006	9.668983404541015	0.35673604736328124	0.32920272827148434	1.4801025390625	-2.76947021484375	-0.9307861328125	9.665990652465819	0.4064157318115234	0.33039982910156246	0.72479248046875	-4.711151123046875	-3.3416748046875	9.802460147094726	0.43574470214843747	0.011971008300781249	3.536224365234375	-4.566192626953125	-2.292633056640625	
161	0.644	0.0	0.0	0.0	0.0	0.003	0.003	0.003	0.0	9.805452899169921	0.36750995483398435	0.23582886352539062	1.316070556640625	-2.98309326171875	-0.911712646484375	9.92755718383789	0.5829881042480468	-0.023942016601562498	0.67138671875	-5.092620849609375	-3.093719482421875	9.788094937133788	0.13407529296874998	-0.06643909606933593	3.582000732421875	-4.5928955078125	-2.0599365234375	
162	0.648	0.0	0.0	0.0	0.0	0.003	0.003	0.003	0.006	9.945513696289062	0.06105214233398437	-0.034715924072265626	2.719879150390625	-4.06646728515625	-1.03759765625	9.805452899169921	0.3345896820068359	0.2807201446533203	0.732421875	-4.8980712890625	-3.437042236328125	10.08018753967285	0.2519897247314453	-0.076614453125	3.570556640625	-4.642486572265625	-2.47955322265625	
163	0.652	0.0	0.0	0.0	0.0	0.006	0.006	0.006	0.006	9.89523546142578	0.27174188842773433	0.044292730712890624	1.2054443359375	-2.70843505859375	-0.91552734375	9.76235726928711	0.4213794921875	0.10115502014160156	0.8087158203125	-5.1727294921875	-2.796173095703125	9.86411083984375	0.11372457885742186	-0.1131260284423828	3.7994384765625	-4.5928955078125	-2.54058837890625	
164	0.656	0.0	0.0	0.0	0.0	0.006	0.003	0.003	0.006	9.792284790039062	0.23582886352539062	0.15322890625	3.54766845703125	-4.283905029296875	-0.720977783203125	9.592967501831055	0.5973533142089843	0.3687070556640625	0.858306884765625	-4.985809326171875	-3.093719482421875	9.669581954956055	0.2819172454833984	0.09576806640624999	3.643035888671875	-4.33349609375	-2.44903564453125	
165	0.66	0.0	0.0	0.0	0.0	0.006	0.006	0.003	0.003	10.035296258544921	0.12509703674316405	-0.20171148986816406	3.8604736328125	-4.7760009765625	-0.89263916015625	9.85094273071289	0.2645592834472656	0.12689268798828124	0.690460205078125	-5.313873291015625	-2.529144287109375	9.995791931152343	0.10474632263183593	-0.09337386474609374	3.749847412109375	-4.6539306640625	-2.239227294921875	
166	0.664	0.0	0.0	0.0	0.0	0.003	0.003	0.003	0.003	9.850344180297851	0.1657984649658203	0.10953472595214843	4.5013427734375	-4.63104248046875	-0.995635986328125	9.791686239624022	0.4447229583740234	0.22026655273437498	0.89263916015625	-4.230499267578125	-3.3721923828125	9.9215716796875	0.08020575561523437	0.051475335693359374	3.66973876953125	-4.329681396484375	-2.899169921875	
167	0.668	0.0	0.0	0.0	0.0	0.003	0.003	0.003	0.006	9.944915145874022	0.14784195251464843	-0.1197100830078125	3.95965576171875	-4.6539306640625	-0.8392333984375	9.65282254333496	0.4261678955078125	0.13108254089355467	0.640869140625	-5.077362060546875	-2.834320068359375	9.782109432983399	0.3705027069091797	0.11731588134765625	3.57818603515625	-4.520416259765625	-1.880645751953125	
168	0.672	0.0	0.0	0.0	0.0	0.003	0.006	0.006	0.003	9.809642752075195	0.2651578338623047	0.17058686828613281	3.9215087890625	-4.497528076171875	-0.79345703125	9.70369932861328	0.508169302368164	0.2609679809570312	0.995635986328125	-4.734039306640625	-2.8839111328125	9.80605144958496	0.11851298217773437	0.05985504150390625	3.826141357421875	-4.364013671875	-2.628326416015625	
169	0.676	0.0	0.0	0.0	0.0	0.006	0.006	0.006	0.006	10.116699114990233	0.10235212097167969	-0.2328361114501953	4.230499267578125	-4.75311279296875	-0.74005126953125	9.950302099609374	0.2765302917480469	0.12988544006347655	0.54168701171875	-5.340576171875	-2.86102294921875	10.18373676147461	0.19153613281249998	-0.07422025146484375	3.604888916015625	-4.78363037109375	-1.972198486328125	
170	0.68	0.0	0.0	0.0	0.0	0.003	0.006	0.003	0.003	9.962273107910155	0.06584054565429687	-0.14425065002441406	4.974365234375	-4.985809326171875	-1.1749267578125	9.612719665527344	0.4626794708251953	0.2651578338623047	0.774383544921875	-4.67681884765625	-2.86865234375	9.787496386718749	0.086191259765625	-0.08439560852050781	3.437042236328125	-4.161834716796875	-2.872467041015625	
171	0.684	0.0	0.0	0.0	0.0	0.003	0.003	0.999	4.566	9.975441217041014	0.2376245147705078	-0.14724340209960937	4.8675537109375	-5.51605224609375	-0.6866455078125	9.639055883789062	0.4991910461425781	0.2723404388427734	0.54168701171875	-5.10406494140625	-2.658843994140625	9.798868844604492	0.49260699157714843	0.07721300354003906	3.650665283203125	-4.4708251953125	-1.85394287109375	
172	0.6880000000000001	0.0	0.0	0.0	0.0	4.5840000000000005	4.635	4.632	4.5600000000000005	10.02332525024414	-0.20171148986816406	-0.1849520782470703	4.291534423828125	-5.0048828125	-0.8544921875	10.059238275146484	0.4525041137695312	-0.1370680450439453	1.6326904296875	-4.863739013671875	-2.811431884765625	10.380061297607421	-0.1149216796875	-0.4213794921875	3.818511962890625	-4.344940185546875	-2.109527587890625	
173	0.6920000000000001	0.0	0.0	0.0	0.0	4.593	4.632	4.6290000000000004	4.563	10.052654220581054	-0.017357962036132813	-0.21188684692382811	3.50189208984375	-3.9520263671875	-1.079559326171875	9.868899243164062	0.3962403747558593	0.11911153259277343	0.469207763671875	-5.100250244140625	-2.76947021484375	10.096348400878906	0.31184476623535157	-0.105344873046875	3.4027099609375	-4.657745361328125	-2.37274169921875	
174	0.6960000000000001	0.0	0.0	0.0	0.0	4.599	4.626	4.632	4.581	9.858125335693359	0.12868833923339842	-0.031124621582031248	4.436492919921875	-4.6539306640625	-0.858306884765625	9.753379013061522	0.6039373687744141	0.03591302490234375	1.53350830078125	-4.878997802734375	-2.887725830078125	10.01674119567871	0.0909796630859375	-0.4171896392822265	3.490447998046875	-4.33349609375	-2.22015380859375	
175	0.7000000000000001	0.0	0.0	0.0	0.0	4.59	4.635	4.638	4.581	9.63307037963867	0.1274912384033203	0.4572925170898437	3.326416015625	-4.444122314453125	-0.682830810546875	9.625887774658203	0.6218938812255859	0.3573345977783203	0.457763671875	-5.0811767578125	-2.51007080078125	10.036493359375	0.41539398803710936	-0.297479556274414	3.51715087890625	-4.756927490234375	-2.23541259765625	
176	0.704	0.0	0.0	0.0	0.0	4.587	4.635	4.635	4.587	10.027515103149414	-0.11252747802734374	-0.19632453613281248	4.53948974609375	-5.084991455078125	-1.07574462890625	10.110115060424803	0.43933600463867184	-0.21068974609375	1.60980224609375	-4.886627197265625	-3.07464599609375	10.507552536010742	-0.22685060729980466	-0.5279214660644531	3.772735595703125	-4.550933837890625	-2.29644775390625	
177	0.708	0.0	0.0	0.0	0.0	4.578	4.632	4.626	4.593	9.622895022583007	0.23343466186523437	0.3399766357421875	2.960205078125	-3.8299560546875	-1.041412353515625	9.548076220703125	0.5620388397216797	0.2454056701660156	0.79345703125	-5.13458251953125	-2.895355224609375	9.91498762512207	0.3699041564941406	-0.30047230834960936	3.56292724609375	-4.7607421875	-2.620697021484375	
178	0.712	0.0	0.0	0.0	0.0	4.593	4.635	4.635	4.569	9.832986218261718	-0.04548983154296875	0.04668693237304687	-1.262664794921875	-1.41143798828125	-0.919342041015625	9.91438907470703	0.5033808990478515	-0.14963760375976562	1.262664794921875	-4.82940673828125	-2.96783447265625	9.967660061645507	0.36212300109863277	-0.4225765930175781	3.528594970703125	-4.840850830078125	-1.651763916015625	
179	0.716	0.0	0.0	0.0	0.0	4.596	4.638	4.635	4.5600000000000005	9.757568865966796	-0.04189852905273437	0.24361001892089842	3.490447998046875	-4.245758056640625	-1.148223876953125	9.809044201660155	0.43634325256347656	0.1975216369628906	0.827789306640625	-5.069732666015625	-2.628326416015625	10.271125122070313	0.10474632263183593	-0.25917232971191406	3.65447998046875	-4.825592041015625	-2.407073974609375	
180	0.72	0.0	0.0	0.0	0.0	4.596	4.632	4.632	4.572	9.87069489440918	-0.3184288208007812	0.01915361328125	-1.483917236328125	-1.01470947265625	-1.25885009765625	9.94012674255371	0.3597287994384765	-0.11791443176269531	1.369476318359375	-4.810333251953125	-3.53240966796875	10.24658455505371	0.10354922180175781	-0.47644613037109373	3.582000732421875	-4.718780517578125	-2.25067138671875	
181	0.724	0.0	0.0	0.0	0.0	4.593	4.626	4.632	4.581	9.57620809020996	0.10654197387695312	0.35673604736328124	2.712249755859375	-3.849029541015625	-0.820159912109375	9.543886367797851	0.7589619262695312	0.23702596435546874	1.026153564453125	-5.1727294921875	-3.238677978515625	9.794678991699218	0.5057751007080078	-0.297479556274414	3.74603271484375	-4.34112548828125	-2.475738525390625	
182	0.728	0.0	0.0	0.0	0.0	4.59	4.638	4.641	0.0	9.824007962036132	-0.143652099609375	0.11851298217773437	-1.445770263671875	-1.2359619140625	-0.637054443359375	10.000580334472655	0.3172317199707031	0.018555062866210937	1.40380859375	-5.107879638671875	-3.2501220703125	10.267533819580077	0.12988544006347655	-0.39743747558593745	3.68499755859375	-4.772186279296875	-1.483917236328125	
183	0.732	0.0	0.0	0.0	0.0	0.0	0.003	0.003	0.006	9.987412225341796	-0.19632453613281248	0.018555062866210937	-0.1068115234375	-1.6632080078125	-1.354217529296875	9.872490545654296	0.41539398803710936	0.229843359375	1.129150390625	-5.001068115234375	-3.337860107421875	10.181941110229491	-0.16280571289062498	-0.1771709228515625	3.658294677734375	-4.45556640625	-2.567291259765625	
184	0.736	0.0	0.0	0.0	0.0	0.006	0.003	0.003	0.003	9.71686743774414	0.10893617553710937	0.17836802368164062	-1.79290771484375	-0.91552734375	-1.1749267578125	9.72943699645996	0.738012661743164	-0.01975216369628906	1.27410888671875	-4.8828125	-3.16619873046875	9.85692823486328	0.4495113616943359	-0.3280056274414062	3.421783447265625	-4.69207763671875	-1.911163330078125	
185	0.74	0.0	0.0	0.0	0.0	0.003	0.006	0.006	0.003	9.794678991699218	-0.014963760375976562	0.14903905334472656	-1.316070556640625	-1.308441162109375	-0.873565673828125	9.60194575805664	0.469862075805664	0.421978042602539	0.789642333984375	-4.9896240234375	-2.9296875	9.732429748535155	0.14544775085449219	0.06823474731445311	3.643035888671875	-4.421234130859375	-2.170562744140625	
186	0.744	0.0	0.0	0.0	0.0	0.003	0.003	0.006	0.003	9.9215716796875	-0.36930560607910157	0.040701428222656245	3.082275390625	-3.8299560546875	-0.75531005859375	9.973047015380859	0.19572598571777342	0.14006079711914063	0.339508056640625	-4.791259765625	-2.93731689453125	10.371681591796875	0.08439560852050781	-0.5458779785156249	3.5552978515625	-4.863739013671875	-2.44140625	
187	0.748	0.0	0.0	0.0	0.0	0.003	0.003	0.003	0.006	9.952696301269532	0.11552023010253906	-0.13826514587402344	-0.286102294921875	-1.834869384765625	-1.255035400390625	9.626486325073241	0.7577648254394531	0.2280477081298828	0.79345703125	-4.6844482421875	-3.326416015625	9.65342109375	0.22266075439453123	0.03531447448730469	3.772735595703125	-4.436492919921875	-2.6092529296875	
188	0.752	0.0	0.0	0.0	0.0	0.006	0.003	0.003	0.003	9.84555577697754	0.6446387969970703	-0.04129997863769531	3.803253173828125	-4.46319580078125	-0.751495361328125	9.522338552856445	0.412401235961914	0.45669396667480466	0.316619873046875	-5.084991455078125	-2.689361572265625	9.559448678588867	0.5039794494628906	0.04668693237304687	3.63922119140625	-4.734039306640625	-2.201080322265625	
189	0.756	0.0	0.0	0.0	0.0	0.003	0.003	0.003	0.003	10.035296258544921	-0.10474632263183593	-0.0017956512451171875	0.25177001953125	-2.3193359375	-1.308441162109375	9.847351428222655	0.40222587890625	0.22744915771484372	0.606536865234375	-5.13458251953125	-2.925872802734375	10.102932455444336	-0.05027823486328125	0.00718260498046875	3.650665283203125	-4.566192626953125	-2.262115478515625	
190	0.76	0.0	0.0	0.0	0.0	0.003	0.003	0.003	0.006	10.073603485107421	0.5494692810058593	-0.28311434631347654	4.474639892578125	-4.94384765625	-1.129150390625	9.743203656005859	0.39863457641601563	0.2825157958984375	0.713348388671875	-4.9285888671875	-3.383636474609375	9.929951385498047	0.19572598571777342	-0.1514332550048828	3.204345703125	-4.634857177734375	-2.75421142578125	
191	0.764	0.0	0.0	0.0	0.0	0.006	0.003	0.003	0.0	9.93354268798828	0.6236895324707031	0.07362170104980469	7.08770751953125	-6.1492919921875	-0.492095947265625	9.389460360717774	0.5781997009277343	0.4100070343017578	1.010894775390625	-4.787445068359375	-2.8533935546875	9.540295065307618	0.39863457641601563	0.07422025146484375	3.635406494140625	-4.05120849609375	-2.43377685546875	
192	0.768	0.0	0.0	0.0	0.0	0.006	0.003	0.003	0.0	10.001777435302733	0.33518823242187495	-0.19991583862304688	3.997802734375	-4.703521728515625	-0.812530517578125	9.791087689208984	0.4656722229003906	0.11671733093261719	0.751495361328125	-5.229949951171875	-2.43377685546875	10.049661468505859	0.13108254089355467	-0.11851298217773437	3.589630126953125	-4.619598388671875	-1.96075439453125	
193	0.772	0.0	0.0	0.0	0.0	0.003	0.003	0.003	0.003	10.155006341552733	0.3220201232910156	-0.17657237243652343	7.32421875	-6.610870361328125	-0.762939453125	9.849745629882811	0.32082302246093747	0.15203180541992187	0.789642333984375	-4.8370361328125	-3.4637451171875	10.089764346313476	0.028730419921875	-0.10354922180175781	3.86810302734375	-4.4708251953125	-2.513885498046875	
194	0.776	0.0	0.0	0.0	0.0	-0.003	0.003	0.003	0.003	9.919177478027343	0.6919242797851562	-0.23523031311035156	5.3253173828125	-5.405426025390625	-0.7781982421875	9.63307037963867	0.5716156463623047	0.025737667846679687	0.77056884765625	-4.825592041015625	-2.79998779296875	9.83777462158203	0.24660277099609373	-0.14305354919433594	3.509521484375	-4.505157470703125	-2.0294189453125	
195	0.78	0.0	0.0	0.0	0.0	0.003	0.003	0.003	0.003	9.928754284667969	0.2819172454833984	0.06943184814453125	6.88934326171875	-6.6680908203125	-0.598907470703125	9.769539874267577	0.5452794281005859	0.17597382202148437	1.194000244140625	-5.40924072265625	-2.49481201171875	9.860519537353515	0.2699462371826172	0.028730419921875	3.498077392578125	-4.49371337890625	-1.91497802734375	
196	0.784	0.0	0.0	0.0	0.0	0.003	0.003	0.003	0.006	9.952097750854492	-0.2376245147705078	0.13646949462890623	4.901885986328125	-5.435943603515625	-0.812530517578125	9.973047015380859	0.2711433380126953	-0.09217676391601562	1.12152099609375	-5.31005859375	-2.96783447265625	10.249577307128906	-0.14185644836425781	-0.06464344482421874	3.4027099609375	-4.772186279296875	-2.25067138671875	
197	0.788	0.0	0.0	0.0	0.0	0.003	0.006	0.003	0.003	10.041880313110351	0.3268085266113281	-0.201112939453125	6.93511962890625	-6.244659423828125	-0.904083251953125	9.89523546142578	0.5309142181396485	-0.06823474731445311	1.41143798828125	-4.772186279296875	-2.826690673828125	10.248380206298828	0.32082302246093747	-0.4955997436523437	3.814697265625	-4.253387451171875	-2.887725830078125	
198	0.792	0.0	0.0	0.0	0.0	0.003	0.003	0.003	0.006	9.693523971557617	-0.20171148986816406	0.41898529052734373	3.574371337890625	-4.337310791015625	-0.8087158203125	9.51874725036621	0.7068880401611328	0.5901707092285156	0.637054443359375	-4.98199462890625	-2.857208251953125	9.77432827758789	0.16041151123046873	0.04967968444824218	3.51715087890625	-4.70733642578125	-2.0599365234375	
199	0.796	0.0	0.0	0.0	0.0	0.006	0.003	0.006	0.006	10.065223779296874	-0.047884033203124995	-0.17298106994628906	-1.125335693359375	-1.36566162109375	-1.06048583984375	10.00417163696289	0.46627077331542965	0.028730419921875	1.766204833984375	-5.126953125	-2.87628173828125	10.372878692626953	0.19871873779296872	-0.3938461730957031	3.5400390625	-4.39453125	-2.08282470703125	
200	0.8	0.0	0.0	0.0	0.0	0.003	0.003	0.006	0.003	9.865307940673828	-0.32501287536621093	0.2424129180908203	3.322601318359375	-3.917694091796875	-1.018524169921875	9.913191973876952	0.3764882110595703	0.3268085266113281	1.262664794921875	-5.031585693359375	-3.208160400390625	10.341754071044921	0.10175357055664062	-0.3268085266113281	3.48663330078125	-4.53948974609375	-2.08282470703125	
201	0.804	0.0	0.0	0.0	0.0	0.006	0.006	0.003	0.006	9.606734161376952	0.09217676391601562	0.4638765716552734	-1.697540283203125	-0.530242919921875	-1.0223388671875	9.647435589599608	0.747589468383789	0.20470424194335937	0.659942626953125	-4.955291748046875	-3.376007080078125	10.020931048583984	0.4417302062988281	-0.373495458984375	3.559112548828125	-4.4708251953125	-2.3345947265625	
202	0.808	0.0	0.0	0.0	0.0	0.003	0.003	0.003	0.003	9.67856021118164	-0.2555810272216797	0.4848258361816406	1.346588134765625	-3.421783447265625	-0.965118408203125	9.807847100830077	0.37708676147460934	0.4908113403320312	0.63323974609375	-5.146026611328125	-2.704620361328125	10.058041174316406	0.2537853759765625	-0.16220716247558592	3.459930419921875	-4.787445068359375	-1.64031982421875	
203	0.812	0.0	0.0	0.0	0.0	0.003	0.003	0.003	0.006	9.891644158935547	-0.03651157531738281	0.04608838195800781	-1.35040283203125	-0.911712646484375	-0.988006591796875	10.072406384277343	0.49380409240722656	0.02454056701660156	0.637054443359375	-4.611968994140625	-3.170013427734375	10.539275708007812	0.1149216796875	-0.6410474945068358	3.19671630859375	-4.66156005859375	-2.452850341796875	
204	0.8160000000000001	0.0	0.0	0.0	0.0	0.006	0.003	0.003	0.006	9.87668039855957	0.3286041778564453	0.05087678527832031	0.759124755859375	-2.239227294921875	-0.804901123046875	9.692925421142577	0.43514615173339843	0.49679684448242184	0.560760498046875	-4.642486572265625	-3.055572509765625	9.926360083007811	0.3280056274414062	-0.19093758239746092	3.696441650390625	-4.543304443359375	-2.132415771484375	
205	0.8200000000000001	0.0	0.0	0.0	0.0	0.006	0.003	0.003	0.003	9.811438403320311	0.16759411621093748	0.086191259765625	-2.201080322265625	-0.78582763671875	-0.885009765625	9.813832604980469	0.6548141540527344	0.06045359191894531	0.812530517578125	-5.123138427734375	-2.597808837890625	9.836577520751952	0.20949264526367187	-0.19812018737792966	3.56292724609375	-4.680633544921875	-1.995086669921875	
206	0.8240000000000001	0.0	0.0	0.0	0.0	0.006	0.003	0.003	0.003	9.976638317871092	0.33698388366699217	-0.12569558715820311	3.07464599609375	-4.11224365234375	-0.988006591796875	9.83897172241211	0.36750995483398435	0.15382745666503905	0.553131103515625	-4.917144775390625	-2.960205078125	10.322001907348632	0.18076222534179687	-0.4207809417724609	3.39508056640625	-4.512786865234375	-1.850128173828125	
207	0.8280000000000001	0.0	0.0	0.0	0.0	0.003	0.006	0.003	0.003	10.013748443603514	0.19093758239746092	-0.297479556274414	0.0	-1.617431640625	-1.129150390625	9.892841259765625	0.5093664031982421	-0.047884033203124995	0.812530517578125	-4.60052490234375	-2.70843505859375	10.115502014160155	-0.06404489440917968	-0.3591302490234375	3.459930419921875	-4.528045654296875	-2.22015380859375	
208	0.8320000000000001	0.0	0.0	0.0	0.0	0.003	0.003	0.006	0.009000000000000001	9.745597857666015	0.4129997863769531	0.17058686828613281	2.96783447265625	-4.03594970703125	-1.129150390625	9.473855969238281	0.6607996582031249	0.44053310546874996	0.751495361328125	-5.001068115234375	-3.345489501953125	9.64025298461914	0.5716156463623047	0.10594342346191406	3.620147705078125	-4.608154296875	-2.216339111328125	
209	0.836	0.0	0.0	0.0	0.0	0.003	0.006	0.003	0.0	9.802460147094726	0.23642741394042968	0.2472013214111328	3.269195556640625	-4.17327880859375	-0.78582763671875	9.819219558715819	0.4255693450927734	0.10714052429199218	1.2054443359375	-5.031585693359375	-3.0517578125	10.295067138671874	-0.0652419952392578	-0.5063736511230469	3.635406494140625	-5.008697509765625	-1.9989013671875	
210	0.84	0.0	0.0	0.0	0.0	0.006	0.003	0.006	0.003	9.929951385498047	0.059256491088867186	-0.03651157531738281	1.73187255859375	-3.265380859375	-1.422882080078125	9.83178911743164	0.4578910675048828	0.20530279235839843	0.835418701171875	-4.93621826171875	-3.208160400390625	10.175357055664062	0.22685060729980466	-0.21248539733886718	3.444671630859375	-4.76837158203125	-2.384185791015625	
211	0.844	0.0	0.0	0.0	0.0	0.003	0.006	0.003	0.006	9.792284790039062	0.44891281127929683	0.2501940734863281	2.109527587890625	-3.139495849609375	-0.8697509765625	9.689334118652344	0.5530605834960938	0.1610100616455078	0.560760498046875	-4.917144775390625	-3.10516357421875	9.756371765136718	0.12330138549804687	-0.09277531433105468	3.688812255859375	-4.6539306640625	-2.6397705078125	
212	0.848	0.0	0.0	0.0	0.0	0.006	0.006	0.006	0.006	9.785102185058593	0.04129997863769531	0.07062894897460938	2.8533935546875	-3.7994384765625	-0.675201416015625	9.548076220703125	0.47704468078613277	0.3938461730957031	0.514984130859375	-5.176544189453125	-2.9754638671875	9.816226806640625	0.3950432739257812	0.009576806640625	3.6163330078125	-4.711151123046875	-2.13623046875	
213	0.852	0.0	0.0	0.0	0.0	0.006	0.006	0.003	0.003	10.007762939453125	0.14784195251464843	-0.07003039855957031	1.922607421875	-3.368377685546875	-0.7171630859375	9.994594830322265	0.3591302490234375	0.023942016601562498	1.07574462890625	-4.871368408203125	-3.414154052734375	10.110713610839843	-0.07481880187988281	-0.14903905334472656	3.635406494140625	-4.69970703125	-2.300262451171875	
214	0.856	0.0	0.0	0.0	0.0	0.003	0.006	0.003	0.003	9.88386300354004	0.28909985046386716	0.07601590270996093	5.11932373046875	-5.25665283203125	-0.7171630859375	9.588777648925781	0.4417302062988281	0.28012159423828126	1.064300537109375	-4.673004150390625	-3.582000732421875	9.772532626342773	0.37409400939941406	-0.09457096557617187	4.03594970703125	-4.116058349609375	-3.002166748046875	
215	0.86	0.0	0.0	0.0	0.0	0.003	0.006	0.003	0.003	9.805452899169921	0.3968389251708984	0.10714052429199218	2.079010009765625	-3.68499755859375	-0.70953369140625	9.565434182739256	0.4525041137695312	0.2699462371826172	0.988006591796875	-5.615234375	-2.76947021484375	9.612719665527344	0.25438392639160157	0.12988544006347655	3.879547119140625	-4.787445068359375	-1.97601318359375	
216	0.864	0.0	0.0	0.0	0.0	0.006	0.003	0.003	0.003	9.87608184814453	0.0796072052001953	0.15981296081542967	5.290985107421875	-5.27191162109375	-0.705718994140625	9.74200655517578	0.24839842224121092	0.28969840087890625	0.823974609375	-4.833221435546875	-3.322601318359375	9.986215124511718	0.051475335693359374	-0.016160861206054686	3.749847412109375	-4.589080810546875	-2.52532958984375	
217	0.868	0.0	0.0	0.0	0.0	0.003	0.003	0.006	4.557	10.085574493408203	0.09576806640624999	-0.10115502014160156	4.82177734375	-4.9591064453125	-1.094818115234375	9.90181951599121	0.3920505218505859	-0.058657940673828124	1.10626220703125	-5.28717041015625	-3.0670166015625	10.00417163696289	0.08200140686035155	-0.15263035583496093	3.429412841796875	-4.497528076171875	-2.269744873046875	
218	0.872	0.0	0.0	0.0	0.0	4.557	4.626	4.632	4.575	9.72943699645996	0.5021837982177734	0.2214636535644531	4.61578369140625	-5.096435546875	-0.74005126953125	9.64683703918457	0.4590881683349609	0.239420166015625	1.3275146484375	-5.054473876953125	-2.803802490234375	9.644442837524414	0.1879448303222656	0.03651157531738281	3.696441650390625	-4.528045654296875	-2.593994140625	
219	0.876	0.0	0.0	0.0	0.0	4.59	4.635	4.635	4.5600000000000005	9.98501802368164	0.014963760375976562	-0.00718260498046875	4.207611083984375	-4.878997802734375	-0.6561279296875	9.82580361328125	0.34117373657226563	0.0652419952392578	0.934600830078125	-5.24139404296875	-2.368927001953125	9.98501802368164	0.3920505218505859	-0.022146365356445312	3.4637451171875	-4.741668701171875	-1.8310546875	
220	0.88	0.0	0.0	0.0	0.0	4.593	4.635	4.632	4.563	9.982025271606444	0.07781155395507812	-0.0939724151611328	5.31005859375	-5.054473876953125	-0.980377197265625	10.013149893188476	0.3232172241210937	0.017956512451171875	1.125335693359375	-4.7149658203125	-3.108978271484375	10.10053825378418	-0.10773907470703124	-0.21308394775390624	3.726959228515625	-4.306793212890625	-2.7008056640625	
221	0.884	0.0	0.0	0.0	0.0	4.593	4.626	4.635	4.581	9.945513696289062	0.16460136413574217	-0.020949264526367185	4.611968994140625	-5.252838134765625	-0.782012939453125	9.64025298461914	0.32441432495117184	0.15023615417480468	0.640869140625	-4.9896240234375	-2.655029296875	9.90181951599121	0.4004302276611328	-0.0143652099609375	3.5858154296875	-4.604339599609375	-2.170562744140625	
222	0.888	0.0	0.0	0.0	0.0	4.59	4.635	4.638	4.5840000000000005	9.826402163696288	0.15502455749511718	0.11552023010253906	4.451751708984375	-4.78363037109375	-0.79345703125	9.695918173217773	0.6075286712646484	0.21248539733886718	1.453399658203125	-5.126953125	-2.986907958984375	10.091559997558592	0.07242460021972656	-0.4333505004882812	3.54766845703125	-4.467010498046875	-2.040863037109375	
223	0.892	0.0	0.0	0.0	0.0	4.59	4.635	4.635	4.5840000000000005	10.063428128051758	-0.037110125732421874	-0.1693897674560547	5.53131103515625	-5.428314208984375	-0.8544921875	9.977236868286132	0.24899697265624998	0.20949264526367187	0.827789306640625	-5.0048828125	-2.437591552734375	10.250175857543944	0.19393033447265623	-0.14963760375976562	3.662109375	-4.5928955078125	-1.995086669921875	
224	0.896	0.0	0.0	0.0	0.0	4.578	4.632	4.632	4.593	9.962871658325195	-0.086191259765625	-0.1370680450439453	3.688812255859375	-4.207611083984375	-0.904083251953125	9.767145672607422	0.47165772705078124	0.181959326171875	1.613616943359375	-4.581451416015625	-3.16619873046875	10.372280142211913	-0.06344634399414062	-0.6763619689941406	3.70025634765625	-4.38690185546875	-2.407073974609375	
225	0.9	0.0	0.0	0.0	0.0	4.593	4.632	4.635	4.569	9.855132583618163	0.09576806640624999	0.06464344482421874	2.3956298828125	-3.62396240234375	-0.9613037109375	9.698910925292969	0.527322915649414	0.29089550170898437	0.4425048828125	-5.008697509765625	-2.38037109375	9.859322436523437	0.5231330627441406	-0.27293898925781246	3.387451171875	-4.596710205078125	-2.185821533203125	
226	0.904	0.0	0.0	0.0	0.0	4.593	4.638	4.635	4.563	9.97843396911621	0.031124621582031248	-0.15682020874023436	4.2724609375	-4.8370361328125	-0.75531005859375	9.961076007080077	0.4638765716552734	-0.08080430603027343	1.617431640625	-5.096435546875	-2.704620361328125	10.396820709228516	-0.059256491088867186	-0.6500257507324219	3.688812255859375	-4.360198974609375	-1.91497802734375	
227	0.908	0.0	0.0	0.0	0.0	4.596	0.003	0.006	0.003	9.715670336914062	0.1005564697265625	0.26695348510742184	3.326416015625	-3.86810302734375	-1.056671142578125	9.973047015380859	0.3711012573242187	0.04908113403320312	0.67138671875	-5.0506591796875	-2.628326416015625	10.306439596557617	0.23343466186523437	-0.4644751220703125	3.490447998046875	-4.8065185546875	-2.277374267578125	
228	0.912	0.0	0.0	0.0	0.0	0.006	0.003	0.006	0.003	9.872490545654296	0.086191259765625	-0.12988544006347655	4.085540771484375	-4.718780517578125	-0.812530517578125	9.74200655517578	0.6117185241699218	0.022146365356445312	1.4801025390625	-4.886627197265625	-3.1280517578125	10.085574493408203	0.17298106994628906	-0.6057330200195312	3.765106201171875	-4.451751708984375	-2.246856689453125	
229	0.916	0.0	0.0	0.0	0.0	0.006	0.006	0.003	0.006	9.58339069519043	0.07302315063476562	0.4447229583740234	2.170562744140625	-3.543853759765625	-0.720977783203125	9.587580548095703	0.6763619689941406	0.3333925811767578	0.820159912109375	-5.2032470703125	-2.72369384765625	10.022726699829102	0.38247371520996093	-0.3286041778564453	3.51715087890625	-4.82940673828125	-2.170562744140625	
230	0.92	0.0	0.0	0.0	0.0	0.006	0.006	0.003	0.003	9.86411083984375	-0.1227028350830078	0.08259995727539061	-0.9765625	-1.255035400390625	-0.95367431640625	10.054449871826172	0.43574470214843747	-0.18734627990722655	1.556396484375	-4.673004150390625	-3.0975341796875	10.398017810058594	0.05327098693847656	-0.5189432098388671	3.421783447265625	-4.787445068359375	-1.781463623046875	
231	0.924	0.0	0.0	0.0	0.0	0.003	0.003	0.003	0.003	9.58339069519043	0.13766659545898435	0.34835634155273437	2.185821533203125	-3.27301025390625	-1.09100341796875	9.645041387939452	0.6865373260498047	0.1484405029296875	0.946044921875	-5.138397216796875	-3.307342529296875	10.087968695068358	0.2980781066894531	-0.4004302276611328	3.383636474609375	-4.604339599609375	-2.20489501953125	
232	0.928	0.0	0.0	0.0	0.0	0.003	0.003	0.003	0.006	9.64623848876953	0.1771709228515625	0.38367081604003905	-1.171112060546875	-1.2359619140625	-0.79345703125	9.65342109375	0.5279214660644531	0.26336218261718747	0.45013427734375	-5.05828857421875	-3.0517578125	9.969455712890625	0.3920505218505859	-0.4333505004882812	3.452301025390625	-4.7760009765625	-1.8157958984375	
233	0.932	0.0	0.0	0.0	0.0	0.003	0.003	0.003	0.003	9.674968908691406	-0.19871873779296872	0.2645592834472656	1.354217529296875	-3.047943115234375	-1.094818115234375	9.848548529052733	0.5704185455322265	0.076614453125	0.7476806640625	-5.031585693359375	-2.964019775390625	10.011354241943359	0.07541735229492187	-0.19512743530273435	3.24249267578125	-4.92095947265625	-2.239227294921875	
234	0.936	0.0	0.0	0.0	0.0	0.006	0.003	0.003	0.006	9.841964474487304	-0.03172317199707031	0.12449848632812499	-1.96075439453125	-0.598907470703125	-0.75531005859375	9.861118087768554	0.3633201019287109	0.17357962036132812	0.919342041015625	-4.791259765625	-3.665924072265625	10.280103378295898	0.14006079711914063	-0.6368576416015624	3.509521484375	-4.718780517578125	-2.166748046875	
235	0.9400000000000001	0.0	0.0	0.0	0.0	0.003	0.003	0.006	0.003	9.849745629882811	0.35015199279785153	0.01915361328125	0.03814697265625	-1.9073486328125	-0.9765625	9.622296472167967	0.5955576629638671	0.20350714111328125	1.071929931640625	-4.791259765625	-3.18145751953125	9.64623848876953	0.3130418670654297	-0.0143652099609375	3.37982177734375	-4.55474853515625	-2.323150634765625	
236	0.9440000000000001	0.0	0.0	0.0	0.0	0.003	0.006	0.003	0.003	9.809642752075195	0.13287819213867186	0.13467384338378904	-1.636505126953125	-0.942230224609375	-0.980377197265625	9.826402163696288	0.4495113616943359	0.17118541870117188	0.90789794921875	-4.95147705078125	-3.078460693359375	9.80665	0.23882161560058593	-0.16280571289062498	3.528594970703125	-4.852294921875	-2.185821533203125	
237	0.9480000000000001	0.0	0.0	0.0	0.0	0.003	0.006	0.006	0.003	10.01015714111328	0.17357962036132812	-0.14604630126953125	1.73187255859375	-3.08990478515625	-1.19781494140625	9.91498762512207	0.38666356811523434	0.105344873046875	0.8544921875	-4.85992431640625	-3.292083740234375	10.046070166015625	0.10175357055664062	-0.19572598571777342	3.688812255859375	-4.436492919921875	-2.513885498046875	
238	0.9520000000000001	0.0	0.0	0.0	0.0	0.003	0.003	0.006	0.006	9.775525378417969	0.33698388366699217	0.105344873046875	5.634307861328125	-5.519866943359375	-0.926971435546875	9.667187753295899	0.3956418243408203	0.07481880187988281	0.606536865234375	-4.99725341796875	-2.872467041015625	9.756970315551758	0.1771709228515625	-0.20051438903808594	3.269195556640625	-4.64630126953125	-2.437591552734375	
239	0.9560000000000001	0.0	0.0	0.0	0.0	0.009000000000000001	0.006	0.003	0.006	9.878476049804688	0.3651157531738281	-0.010175357055664061	1.895904541015625	-3.437042236328125	-0.659942626953125	9.725247143554688	0.49320554199218747	0.2376245147705078	0.57220458984375	-4.924774169921875	-2.841949462890625	9.771934075927733	0.32441432495117184	-0.06464344482421874	3.437042236328125	-5.39398193359375	-2.101898193359375	
240	0.96	0.0	0.0	0.0	0.0	0.006	0.003	0.003	0.0	10.059836825561522	0.43993455505371093	-0.2998737579345703	6.771087646484375	-6.37054443359375	-0.667572021484375	9.861716638183593	0.27832594299316404	-0.06763619689941405	0.43487548828125	-4.924774169921875	-2.643585205078125	10.026916552734374	-0.03591302490234375	-0.29448680419921874	3.498077392578125	-4.78363037109375	-2.246856689453125	
241	0.964	0.0	0.0	0.0	0.0	0.006	0.003	0.003	0.003	9.988010775756836	0.4483142608642578	-0.17417817077636719	4.207611083984375	-4.650115966796875	-0.99945068359375	9.747393508911133	0.4435258575439453	0.1897404815673828	1.201629638671875	-4.852294921875	-2.819061279296875	9.955090502929687	0.2920926025390625	-0.16879121704101563	3.459930419921875	-4.3182373046875	-2.5787353515625	
242	0.968	0.0	0.0	0.0	0.0	0.003	0.003	0.003	0.003	9.906009368896484	0.4285620971679687	-0.13108254089355467	7.198333740234375	-6.81304931640625	-0.8392333984375	9.585186346435547	0.4285620971679687	0.06643909606933593	0.804901123046875	-5.313873291015625	-2.727508544921875	9.682151513671874	0.15322890625	-0.16998831787109375	3.665924072265625	-4.67681884765625	-2.582550048828125	
243	0.972	0.0	0.0	0.0	0.0	0.003	0.006	0.006	0.006	9.919177478027343	-0.16220716247558592	-0.0005985504150390625	5.4779052734375	-5.85174560546875	-0.537872314453125	9.828197814941406	0.4578910675048828	0.02633621826171875	1.499176025390625	-5.04302978515625	-2.895355224609375	9.968258612060547	0.31543606872558594	-0.07481880187988281	3.7078857421875	-4.184722900390625	-2.51007080078125	
244	0.976	0.0	0.0	0.0	0.0	0.003	0.003	0.003	0.006	10.007762939453125	0.07541735229492187	-0.2567781280517578	6.877899169921875	-6.53839111328125	-0.93841552734375	9.74859060974121	0.3429693878173828	0.0017956512451171875	0.980377197265625	-4.947662353515625	-3.25775146484375	10.214262832641602	-0.09576806640624999	-0.051475335693359374	3.726959228515625	-4.47845458984375	-2.29644775390625	
245	0.98	0.0	0.0	0.0	0.0	0.006	0.006	0.003	0.006	9.781510882568359	-0.06105214233398437	0.2603694305419922	4.032135009765625	-4.863739013671875	-1.132965087890625	9.644442837524414	0.5530605834960938	0.2184709014892578	1.178741455078125	-4.947662353515625	-3.0670166015625	9.71686743774414	0.49739539489746093	0.04608838195800781	3.818511962890625	-3.765106201171875	-2.38037109375	
246	0.984	0.0	0.0	0.0	0.0	0.003	0.003	0.003	0.006	9.898228213500976	0.059256491088867186	0.003591302490234375	6.16455078125	-6.32476806640625	-0.946044921875	9.816226806640625	0.3920505218505859	0.2645592834472656	0.820159912109375	-5.10406494140625	-2.98309326171875	10.043675964355469	0.029328970336914062	-0.0383072265625	3.337860107421875	-4.619598388671875	-1.422882080078125	
247	0.988	0.0	0.0	0.0	0.0	0.003	0.003	0.003	0.003	9.87069489440918	-0.16998831787109375	0.2609679809570312	3.1890869140625	-3.90625	-0.743865966796875	9.877877499389648	0.3022679595947265	0.201112939453125	1.194000244140625	-5.023956298828125	-3.265380859375	10.493785876464843	0.07541735229492187	-0.7368155609130859	3.780364990234375	-4.50897216796875	-2.55584716796875	
248	0.992	0.0	0.0	0.0	0.0	0.003	0.003	0.003	0.003	9.80605144958496	0.018555062866210937	0.31483751831054685	1.0223388671875	-2.8228759765625	-0.9765625	9.777919580078125	0.4740519287109375	0.258573779296875	0.370025634765625	-5.016326904296875	-2.979278564453125	9.995791931152343	0.016759411621093748	-0.01975216369628906	3.444671630859375	-4.5166015625	-2.239227294921875	
249	0.996	0.0	0.0	0.0	0.0	0.0	0.003	0.003	0.006	9.797073193359374	0.16340426330566404	0.2136824981689453	2.574920654296875	-3.673553466796875	-0.499725341796875	9.788693487548828	0.5638344909667968	0.09816226806640624	0.55694580078125	-4.7760009765625	-2.704620361328125	10.105925207519531	0.3112462158203125	-0.5195417602539062	3.993988037109375	-4.520416259765625	-2.349853515625	
250	1.0	0.0	0.0	0.0	0.0	0.006	0.006	0.003	0.006	9.846154327392577	0.027533319091796873	0.27353753967285155	3.41033935546875	-4.21905517578125	-0.713348388671875	9.911994873046874	0.28909985046386716	0.2657563842773437	0.331878662109375	-5.336761474609375	-2.239227294921875	10.152612139892577	-0.08798691101074219	0.00239420166015625	3.51715087890625	-4.84466552734375	-1.621246337890625	
251	1.004	0.0	0.0	0.0	0.0	0.0	0.006	0.006	0.003	10.001777435302733	-0.003591302490234375	-0.09516951599121093	0.66375732421875	-2.41851806640625	-0.919342041015625	9.963470208740233	0.5027823486328125	-0.058657940673828124	1.338958740234375	-4.772186279296875	-2.948760986328125	10.281899029541014	0.12210428466796874	-0.5680243438720702	3.95965576171875	-4.31060791015625	-2.765655517578125	
252	1.008	0.0	0.0	0.0	0.0	0.003	0.006	0.003	0.003	9.665392102050781	0.25318682556152344	0.4991910461425781	4.680633544921875	-4.817962646484375	-0.690460205078125	9.483432775878907	0.6278793853759765	0.5003881469726562	0.652313232421875	-5.107879638671875	-2.880096435546875	10.011354241943359	0.43514615173339843	-0.29568390502929687	3.482818603515625	-4.863739013671875	-1.766204833984375	
253	1.012	0.0	0.0	0.0	0.0	0.006	0.003	0.003	0.006	9.776123928833007	-0.031124621582031248	0.2741360900878906	0.17547607421875	-2.29644775390625	-0.8544921875	9.95389340209961	0.49799394531249996	0.03591302490234375	1.44195556640625	-4.863739013671875	-2.590179443359375	10.251372958374024	0.07003039855957031	-0.35194764404296874	3.810882568359375	-4.337310791015625	-2.414703369140625	
254	1.016	0.0	0.0	0.0	0.0	0.003	0.006	0.003	0.003	9.720458740234374	0.23642741394042968	0.5638344909667968	5.413055419921875	-5.16510009765625	-0.774383544921875	9.73602105102539	0.4578910675048828	0.4207809417724609	0.46539306640625	-5.05828857421875	-2.899169921875	10.269329470825195	0.277727392578125	-0.36152445068359373	3.627777099609375	-4.596710205078125	-2.025604248046875	
255	1.02	0.0	0.0	0.0	0.0	0.003	0.006	0.003	0.006	9.77432827758789	-0.010773907470703125	0.2657563842773437	-0.96893310546875	-1.3885498046875	-0.980377197265625	9.879673150634765	0.5207388610839844	0.05087678527832031	0.904083251953125	-4.9285888671875	-3.322601318359375	10.108917959594725	0.020949264526367185	-0.45669396667480466	3.444671630859375	-4.93621826171875	-2.31170654296875	
256	1.024	0.0	0.0	0.0	0.0	0.006	0.003	0.003	0.003	9.882067352294921	-0.025139117431640625	-0.0718260498046875	-0.54168701171875	-2.010345458984375	-1.155853271484375	9.571419686889648	0.6027402679443359	0.5111620544433594	0.354766845703125	-4.67681884765625	-2.70843505859375	10.007762939453125	0.4159925384521484	-0.13168109130859373	3.80706787109375	-4.581451416015625	-1.903533935546875	
257	1.028	0.0	0.0	0.0	0.0	0.006	4.557	4.6290000000000004	4.587	9.907206469726562	-0.011971008300781249	0.15502455749511718	-0.244140625	-1.712799072265625	-0.820159912109375	10.006565838623047	0.3429693878173828	0.06404489440917968	0.858306884765625	-5.0811767578125	-3.299713134765625	10.273519323730468	-0.08379705810546874	-0.4100070343017578	3.45611572265625	-4.558563232421875	-2.056121826171875	
258	1.032	0.0	0.0	0.0	0.0	4.587	4.6290000000000004	4.626	4.593	9.943119494628906	-0.06344634399414062	0.022744915771484374	0.823974609375	-2.5177001953125	-1.232147216796875	9.706093530273437	0.5039794494628906	0.297479556274414	0.66375732421875	-4.90570068359375	-3.406524658203125	9.868899243164062	0.239420166015625	-0.06643909606933593	3.73077392578125	-4.73785400390625	-2.552032470703125	
259	1.036	0.0	0.0	0.0	0.0	4.593	4.635	4.635	4.566	9.81862100830078	0.013766659545898436	0.2424129180908203	-0.072479248046875	-1.911163330078125	-0.652313232421875	9.846752877807617	0.4129997863769531	0.12330138549804687	1.026153564453125	-5.008697509765625	-3.147125244140625	9.97184991455078	0.12689268798828124	-0.2041056915283203	3.612518310546875	-4.680633544921875	-1.964569091796875	
260	1.04	0.0	0.0	0.0	0.0	4.596	4.638	4.632	4.557	9.89523546142578	-0.0383072265625	0.12988544006347655	0.90789794921875	-2.54058837890625	-1.190185546875	9.699509475708007	0.5063736511230469	0.41838674011230464	0.705718994140625	-4.978179931640625	-3.0975341796875	9.91558617553711	0.18315642700195311	-0.033518823242187495	3.955841064453125	-4.730224609375	-2.227783203125	
261	1.044	0.0	0.0	0.0	0.0	4.596	4.632	4.632	4.575	9.95987890625	0.1610100616455078	-0.06284779357910156	1.74713134765625	-3.078460693359375	-1.163482666015625	9.874884747314452	0.2501940734863281	0.06404489440917968	0.8697509765625	-5.02777099609375	-3.299713134765625	10.207678778076172	0.015562310791015624	-0.35314474487304687	3.688812255859375	-4.4708251953125	-2.307891845703125	
262	1.048	0.0	0.0	0.0	0.0	4.59	4.635	4.635	4.5840000000000005	9.828197814941406	0.010175357055664061	0.17178396911621094	-0.030517578125	-2.002716064453125	-1.056671142578125	9.612719665527344	0.575206948852539	0.3268085266113281	0.782012939453125	-5.107879638671875	-3.4332275390625	9.694122521972655	0.31962592163085934	0.05626373901367187	3.604888916015625	-4.41741943359375	-2.63214111328125	
263	1.052	0.0	0.0	0.0	0.0	4.593	4.635	4.638	4.581	9.885658654785155	0.3327940307617187	0.07122749938964844	1.705169677734375	-3.08990478515625	-0.92315673828125	9.760561618041992	0.38247371520996093	0.19931728820800781	0.70953369140625	-5.092620849609375	-2.8076171875	9.860519537353515	0.3028665100097656	-0.16639701538085935	3.41033935546875	-4.894256591796875	-2.155303955078125	
264	1.056	0.0	0.0	0.0	0.0	4.575	4.632	4.632	4.593	9.931148486328125	-0.017357962036132813	0.03411737365722656	4.669189453125	-4.94384765625	-0.74005126953125	9.795876092529296	0.4525041137695312	0.2262520568847656	0.858306884765625	-4.8370361328125	-3.04412841796875	9.967660061645507	0.12988544006347655	-0.076614453125	3.582000732421875	-4.436492919921875	-2.70843505859375	
265	1.06	0.0	0.0	0.0	0.0	4.593	4.632	0.003	0.006	9.935338339233398	0.3286041778564453	-0.10414777221679687	1.8310546875	-3.345489501953125	-1.071929931640625	9.713276135253906	0.45549686584472654	0.19153613281249998	1.129150390625	-5.2032470703125	-3.322601318359375	9.78031378173828	0.36152445068359373	-0.1292868896484375	3.72314453125	-4.44793701171875	-2.361297607421875	
266	1.064	0.0	0.0	0.0	0.0	0.003	0.003	0.003	0.003	9.819818109130859	0.3489548919677734	0.20769699401855468	4.962921142578125	-5.01251220703125	-0.67901611328125	9.586383447265625	0.4261678955078125	0.3268085266113281	0.5340576171875	-4.718780517578125	-2.8228759765625	9.854534033203125	0.10414777221679687	-0.20530279235839843	3.5400390625	-4.5166015625	-2.292633056640625	
267	1.068	0.0	0.0	0.0	0.0	0.006	0.003	0.003	0.003	9.963470208740233	0.2771288421630859	-0.09935936889648436	2.254486083984375	-3.37982177734375	-0.659942626953125	9.816226806640625	0.3298012786865234	0.23223756103515625	0.43487548828125	-5.123138427734375	-3.05938720703125	9.997587582397461	0.2166752502441406	-0.2136824981689453	3.5400390625	-4.322052001953125	-2.13623046875	
268	1.072	0.0	0.0	0.0	0.0	0.003	0.003	0.003	0.006	9.998784683227539	0.36810850524902344	-0.11133037719726561	5.2337646484375	-5.191802978515625	-0.87738037109375	9.738415252685547	0.40402153015136716	0.18614917907714842	0.90789794921875	-5.039215087890625	-3.31878662109375	9.900023864746093	0.0526724365234375	-0.10295067138671875	3.818511962890625	-4.21142578125	-2.628326416015625	
269	1.076	0.0	0.0	0.0	0.0	0.0	0.003	0.006	0.006	9.89523546142578	0.16160861206054686	-0.03232172241210937	5.6915283203125	-5.550384521484375	-0.8087158203125	9.667786303710937	0.5051765502929687	0.17597382202148437	0.850677490234375	-4.894256591796875	-2.6397705078125	9.976039767456054	0.2950853546142578	-0.21487959899902342	3.498077392578125	-4.428863525390625	-2.017974853515625	
270	1.08	0.0	0.0	0.0	0.0	0.003	0.003	0.003	0.003	9.94072529296875	0.43155484924316406	0.061650692749023434	6.450653076171875	-6.2255859375	-0.659942626953125	9.731232647705077	0.4495113616943359	0.20949264526367187	0.713348388671875	-4.772186279296875	-2.93731689453125	9.99160207824707	0.0526724365234375	-0.16280571289062498	3.437042236328125	-4.37164306640625	-2.26593017578125	
271	1.084	0.0	0.0	0.0	0.0	0.003	0.003	0.003	0.003	10.020931048583984	-0.009576806640625	-0.1657984649658203	4.940032958984375	-5.558013916015625	-0.858306884765625	9.847351428222655	0.39863457641601563	-0.0652419952392578	1.01470947265625	-4.894256591796875	-2.864837646484375	10.10712230834961	0.1370680450439453	-0.2723404388427734	3.5247802734375	-4.32586669921875	-2.277374267578125	
272	1.088	0.0	0.0	0.0	0.0	0.003	0.003	0.006	0.009000000000000001	9.941323843383788	0.42018239135742186	0.011372457885742187	5.6915283203125	-5.588531494140625	-0.713348388671875	9.853935482788085	0.5183446594238281	-0.04608838195800781	1.190185546875	-4.89044189453125	-3.13568115234375	9.875483297729492	0.22086510314941404	-0.1975216369628906	3.50189208984375	-4.474639892578125	-2.079010009765625	
273	1.092	0.0	0.0	0.0	0.0	0.006	0.003	0.003	0.006	9.88386300354004	0.08319850769042968	0.06344634399414062	5.279541015625	-5.69915771484375	-0.84686279296875	9.773131176757811	0.4261678955078125	0.03411737365722656	0.885009765625	-5.153656005859375	-2.76947021484375	9.99160207824707	0.15322890625	-0.1927332336425781	3.543853759765625	-4.37164306640625	-2.132415771484375	
274	1.096	0.0	0.0	0.0	0.0	0.006	0.003	0.006	0.003	9.918578927612304	-0.2507926239013672	-0.14484920043945312	2.31170654296875	-3.795623779296875	-1.15203857421875	9.981426721191406	0.48183308410644526	-0.16160861206054686	1.277923583984375	-5.222320556640625	-2.87628173828125	10.24718310546875	0.22565350646972654	-0.49859249572753905	3.269195556640625	-4.38690185546875	-2.094268798828125	
275	1.1	0.0	0.0	0.0	0.0	0.003	0.006	0.003	0.009000000000000001	9.918578927612304	-0.07302315063476562	-0.02693476867675781	5.18798828125	-5.596160888671875	-0.782012939453125	9.698910925292969	0.5069722015380859	0.17956512451171874	0.873565673828125	-4.81414794921875	-3.147125244140625	9.99220062866211	0.04908113403320312	-0.17238251953125	3.631591796875	-4.444122314453125	-2.08282470703125	
276	1.104	0.0	0.0	0.0	0.0	0.009000000000000001	0.003	0.003	0.006	9.771335525512695	-0.18076222534179687	0.07062894897460938	1.312255859375	-2.99835205078125	-0.972747802734375	9.810839852905273	0.5883750579833984	-0.052073886108398436	1.224517822265625	-4.8675537109375	-2.685546875	10.077194787597655	0.3537432952880859	-0.43514615173339843	3.589630126953125	-4.6234130859375	-2.132415771484375	
277	1.108	0.0	0.0	0.0	0.0	0.006	0.006	0.003	0.006	9.920374578857421	-0.2232593048095703	-0.022146365356445312	-0.75531005859375	-1.79290771484375	-1.18255615234375	9.744400756835937	0.469862075805664	0.21128829650878905	1.06048583984375	-5.04302978515625	-2.9754638671875	10.13824692993164	0.1131260284423828	-0.26815058593749996	3.574371337890625	-4.810333251953125	-1.89208984375	
278	1.112	0.0	0.0	0.0	0.0	0.009000000000000001	0.003	0.003	0.003	9.777919580078125	-0.21906945190429686	0.11133037719726561	1.0528564453125	-2.574920654296875	-1.06048583984375	9.925761532592773	0.5045779998779296	0.03591302490234375	0.93841552734375	-4.955291748046875	-3.2806396484375	10.230423693847655	0.26874913635253905	-0.526125814819336	3.7078857421875	-4.69207763671875	-2.58636474609375	
279	1.116	0.0	0.0	0.0	0.0	0.003	0.006	0.006	0.006	9.631873278808593	0.061650692749023434	0.39803602600097654	-1.453399658203125	-0.881195068359375	-1.079559326171875	9.664195001220703	0.48243163452148435	0.3746925598144531	1.15203857421875	-4.9896240234375	-2.86865234375	10.056844073486328	0.2346317626953125	-0.2663549346923828	3.53240966796875	-4.486083984375	-1.979827880859375	
280	1.12	0.0	0.0	0.0	0.0	0.006	0.006	0.003	0.003	9.745597857666015	-0.2747346405029297	0.19512743530273435	-0.72479248046875	-1.461029052734375	-0.93841552734375	9.878476049804688	0.6111199737548828	0.0987608184814453	1.087188720703125	-5.27191162109375	-3.162384033203125	10.072406384277343	0.17956512451171874	-0.43574470214843747	3.27301025390625	-4.650115966796875	-1.94549560546875	
281	1.124	0.0	0.0	0.0	0.0	0.006	0.006	0.003	0.003	9.767145672607422	0.09756371765136718	0.17597382202148437	-0.92315673828125	-1.44195556640625	-1.163482666015625	9.859920986938477	0.297479556274414	0.11851298217773437	0.354766845703125	-4.79888916015625	-3.10516357421875	10.169371551513672	0.13587094421386717	-0.2549824768066406	3.25775146484375	-4.39453125	-1.5869140625	
282	1.1280000000000001	0.0	0.0	0.0	0.0	0.003	0.003	0.006	0.003	9.92755718383789	0.29089550170898437	-0.11252747802734374	0.7476806640625	-2.44903564453125	-1.09100341796875	9.877877499389648	0.5644330413818359	0.14425065002441406	0.652313232421875	-5.062103271484375	-2.811431884765625	10.029310754394531	0.1149216796875	-0.31962592163085934	3.6163330078125	-4.749298095703125	-2.315521240234375	
283	1.1320000000000001	0.0	0.0	0.0	0.0	0.0	0.003	0.003	0.006	9.790489138793944	0.19812018737792966	0.08738836059570312	0.17547607421875	-2.277374267578125	-0.78582763671875	9.702502227783203	0.4327519500732422	0.19991583862304688	0.362396240234375	-4.85992431640625	-2.899169921875	10.071209283447265	0.29448680419921874	-0.28909985046386716	3.70025634765625	-4.73785400390625	-2.09808349609375	
284	1.1360000000000001	0.0	0.0	0.0	0.0	0.003	0.003	0.003	0.006	9.90840357055664	0.3315969299316406	-0.00239420166015625	2.864837646484375	-4.23431396484375	-0.774383544921875	9.995193380737303	0.421978042602539	0.02454056701660156	0.865936279296875	-5.001068115234375	-2.841949462890625	10.149020837402343	-0.016160861206054686	-0.3363853332519531	3.19671630859375	-4.96673583984375	-2.11334228515625	
285	1.1400000000000001	0.0	0.0	0.0	0.0	0.006	0.003	0.003	0.006	9.868300692749022	0.19572598571777342	0.04129997863769531	2.00653076171875	-3.009796142578125	-1.1138916015625	9.72285294189453	0.4704606262207031	0.27832594299316404	0.35858154296875	-5.054473876953125	-3.040313720703125	9.925162982177733	0.3274070770263672	-0.04189852905273437	3.688812255859375	-4.63104248046875	-2.3345947265625	
286	1.1440000000000001	0.0	0.0	0.0	0.0	0.003	0.006	0.006	0.003	9.795277542114258	0.364517202758789	0.2819172454833984	2.532958984375	-3.932952880859375	-0.9307861328125	9.655815295410155	0.4722562774658203	0.2346317626953125	0.843048095703125	-5.039215087890625	-3.147125244140625	10.053252770996092	0.11133037719726561	-0.3441664886474609	3.36456298828125	-4.7760009765625	-2.193450927734375	
287	1.1480000000000001	0.0	0.0	0.0	0.0	0.006	0.003	0.003	0.003	9.779715231323241	0.076614453125	0.29927520751953124	2.5482177734375	-3.631591796875	-0.87738037109375	9.744400756835937	0.4722562774658203	0.37888241271972656	0.164031982421875	-4.878997802734375	-2.918243408203125	9.892841259765625	0.37409400939941406	-0.02693476867675781	3.757476806640625	-4.638671875	-2.2125244140625	
288	1.1520000000000001	0.0	0.0	0.0	0.0	0.006	0.003	0.006	0.006	9.849745629882811	0.12629413757324218	0.2699462371826172	1.82342529296875	-3.376007080078125	-0.949859619140625	9.815029705810547	0.4016273284912109	0.18734627990722655	0.926971435546875	-4.9285888671875	-3.376007080078125	10.013748443603514	-0.04548983154296875	-0.04668693237304687	3.5552978515625	-4.756927490234375	-2.43377685546875	
289	1.156	0.0	0.0	0.0	0.0	0.003	0.003	0.003	0.003	9.772532626342773	0.2950853546142578	0.36631285400390623	2.437591552734375	-3.337860107421875	-1.033782958984375	9.580397943115234	0.4632780212402344	0.44592005920410155	0.8087158203125	-4.913330078125	-3.13568115234375	9.843161575317382	0.3920505218505859	-0.06883329772949218	3.452301025390625	-4.70733642578125	-2.3040771484375	
290	1.16	0.0	0.0	0.0	0.0	0.003	0.003	0.003	0.003	9.809642752075195	0.2376245147705078	0.2166752502441406	3.021240234375	-4.21905517578125	-0.74005126953125	9.739013803100585	0.48063598327636714	0.30346506042480464	0.54931640625	-4.978179931640625	-3.04412841796875	9.812036953735351	0.058657940673828124	0.07122749938964844	3.643035888671875	-4.6234130859375	-2.166748046875	
291	1.164	0.0	0.0	0.0	0.0	0.003	0.003	0.003	0.003	9.906607919311522	0.15562310791015624	0.15083470458984374	3.749847412109375	-4.405975341796875	-0.84686279296875	9.696516723632811	0.3477577911376953	0.36631285400390623	0.579833984375	-4.619598388671875	-2.92205810546875	10.058041174316406	0.11731588134765625	-0.0383072265625	3.719329833984375	-4.673004150390625	-2.26593017578125	
292	1.168	0.0	0.0	0.0	0.0	0.003	0.006	4.575	4.572	9.95987890625	0.24899697265624998	0.11252747802734374	4.886627197265625	-5.39398193359375	-0.904083251953125	9.773131176757811	0.4447229583740234	0.24899697265624998	0.87738037109375	-4.825592041015625	-2.96783447265625	9.931148486328125	0.09576806640624999	-0.08020575561523437	3.631591796875	-4.566192626953125	-2.31170654296875	
293	1.172	0.0	0.0	0.0	0.0	4.5840000000000005	4.632	4.635	4.5600000000000005	9.769539874267577	0.38786066894531246	0.3555389465332031	4.886627197265625	-5.06591796875	-1.064300537109375	9.549871871948241	0.4537012145996093	0.5440823272705078	0.820159912109375	-4.7149658203125	-2.960205078125	9.846154327392577	0.23343466186523437	0.040701428222656245	3.90625	-4.241943359375	-2.552032470703125	
294	1.176	0.0	0.0	0.0	0.0	4.593	4.635	4.632	4.566	10.019733947753906	-0.08379705810546874	-0.008379705810546874	3.177642822265625	-4.505157470703125	-1.041412353515625	9.855132583618163	0.37828386230468747	0.11791443176269531	0.926971435546875	-5.01251220703125	-2.902984619140625	9.956886154174803	0.047285482788085934	-0.022744915771484374	3.5400390625	-4.627227783203125	-1.949310302734375	
295	1.18	0.0	0.0	0.0	0.0	4.593	4.626	4.632	4.581	9.89583401184082	0.09816226806640624	0.08978256225585937	4.329681396484375	-4.52423095703125	-0.95367431640625	9.792284790039062	0.40880993347167965	0.33039982910156246	1.369476318359375	-4.802703857421875	-3.01361083984375	9.99160207824707	0.06643909606933593	-0.047884033203124995	3.650665283203125	-4.230499267578125	-2.288818359375	
296	1.184	0.0	0.0	0.0	0.0	4.59	4.635	4.635	4.5840000000000005	9.929352835083007	0.15562310791015624	0.052073886108398436	3.5552978515625	-4.535675048828125	-0.885009765625	9.73063409729004	0.39983167724609375	0.2825157958984375	1.026153564453125	-5.001068115234375	-2.76947021484375	10.012551342773437	0.31483751831054685	-0.11073182678222655	3.765106201171875	-4.695892333984375	-2.330780029296875	
297	1.188	0.0	0.0	0.0	0.0	4.59	4.635	4.635	4.587	9.903615167236328	0.1131260284423828	0.03890577697753906	4.077911376953125	-4.69970703125	-0.52642822265625	9.804854348754882	0.5183446594238281	0.19812018737792966	1.40380859375	-4.974365234375	-2.84576416015625	10.022726699829102	0.02693476867675781	-0.14425065002441406	3.459930419921875	-4.7454833984375	-2.140045166015625	
298	1.192	0.0	0.0	0.0	0.0	4.578	4.6290000000000004	4.6290000000000004	4.593	9.995791931152343	0.10175357055664062	-0.023343466186523436	3.631591796875	-4.505157470703125	-1.117706298828125	9.88386300354004	0.3280056274414062	0.2472013214111328	0.732421875	-4.985809326171875	-2.84576416015625	10.092757098388672	0.23343466186523437	-0.15203180541992187	3.688812255859375	-4.5318603515625	-2.307891845703125	
299	1.196	0.0	0.0	0.0	0.0	4.593	4.632	4.635	4.575	9.916783276367187	0.1580173095703125	0.04608838195800781	4.634857177734375	-4.917144775390625	-0.720977783203125	9.750984811401366	0.5285200164794922	0.19153613281249998	0.850677490234375	-5.2032470703125	-2.8533935546875	10.047865817260742	0.12150573425292968	-0.24480711975097655	3.57818603515625	-4.64630126953125	-2.422332763671875	
300	1.2	0.0	0.0	0.0	0.0	4.593	2.553	0.006	0.003	9.745597857666015	0.21487959899902342	0.2214636535644531	3.299713134765625	-4.23431396484375	-0.91552734375	9.782707983398437	0.4285620971679687	0.2549824768066406	0.54168701171875	-5.279541015625	-2.72369384765625	10.059238275146484	0.35134909362792965	-0.29927520751953124	3.635406494140625	-4.650115966796875	-2.132415771484375	
301	1.204	0.0	0.0	0.0	0.0	0.003	0.003	0.003	0.003	9.982623822021484	0.034715924072265626	-0.15741875915527342	3.772735595703125	-4.39453125	-1.04522705078125	9.912593423461914	0.45190556335449217	-0.04249707946777344	1.22833251953125	-5.07354736328125	-3.18145751953125	10.211270080566406	0.037110125732421874	-0.4590881683349609	3.787994384765625	-4.512786865234375	-2.017974853515625	
302	1.208	0.0	0.0	0.0	0.0	0.006	0.003	0.003	0.006	9.758765966796874	0.13766659545898435	0.21966800231933592	3.459930419921875	-4.08935546875	-0.75531005859375	9.830592016601562	0.4429273071289062	0.12210428466796874	0.7171630859375	-5.146026611328125	-2.658843994140625	10.13226142578125	0.2501940734863281	-0.3555389465332031	3.398895263671875	-4.5166015625	-2.26593017578125	
303	1.212	0.0	0.0	0.0	0.0	0.0	0.003	0.003	0.006	9.911396322631836	0.10175357055664062	-0.18435352783203124	0.63323974609375	-2.521514892578125	-1.224517822265625	9.792284790039062	0.5219359619140624	-0.001197100830078125	1.125335693359375	-5.290985107421875	-2.87628173828125	10.064026678466796	0.19033903198242186	-0.4608838195800781	3.71551513671875	-4.44793701171875	-2.1514892578125	
304	1.216	0.0	0.0	0.0	0.0	0.003	0.003	0.006	0.003	9.746794958496093	0.09157821350097656	0.09995791931152344	3.520965576171875	-4.4097900390625	-0.9765625	9.854534033203125	0.42437224426269526	0.11252747802734374	0.58746337890625	-4.932403564453125	-2.92205810546875	10.13226142578125	0.21248539733886718	-0.39743747558593745	3.6468505859375	-4.756927490234375	-2.12860107421875	
305	1.22	0.0	0.0	0.0	0.0	0.003	0.003	0.003	0.003	9.80006594543457	0.017357962036132813	0.14006079711914063	0.370025634765625	-2.262115478515625	-0.946044921875	9.892841259765625	0.4369418029785156	-0.12330138549804687	1.16729736328125	-5.0506591796875	-2.979278564453125	10.217854135131835	0.1927332336425781	-0.6578069061279297	3.589630126953125	-4.901885986328125	-1.88446044921875	
306	1.224	0.0	0.0	0.0	0.0	0.003	0.003	0.003	0.003	9.63366893005371	0.12808978881835936	0.2184709014892578	2.750396728515625	-3.719329833984375	-0.77056884765625	9.701903677368163	0.6607996582031249	0.07841010437011718	0.9613037109375	-5.18798828125	-3.07464599609375	10.056245523071288	0.2292448089599609	-0.37229835815429685	3.643035888671875	-4.76837158203125	-2.14385986328125	
307	1.228	0.0	0.0	0.0	0.0	0.003	0.003	0.003	0.006	9.777321029663085	0.09337386474609374	0.09516951599121093	-0.55694580078125	-1.739501953125	-0.789642333984375	9.866505041503906	0.5063736511230469	-0.052073886108398436	0.797271728515625	-4.98199462890625	-3.13568115234375	10.047267266845703	0.31483751831054685	-0.5309142181396485	3.76129150390625	-4.608154296875	-1.96075439453125	
