	time	dac1	dac2	dac3	dac4	adc1.3	adc2.3	adc3.3	adc4.3	imu1accx	imu1accy	imu1accz	imu1gyrox	imu1gyroy	imu1gyroz	imu2accx	imu2accy	imu2accz	imu2gyrox	imu2gyroy	imu2gyroz	imu3accx	imu3accy	imu3accz	imu3gyrox	imu3gyroy	imu3gyroz	log
0	0.0	0.0	0.0	0.0	0.0	0.003	0.003	0.006	0.006	9.867103591918944	0.09696516723632811	0.05985504150390625	3.08990478515625	-3.849029541015625	-0.835418701171875	9.76235726928711	0.45669396667480466	0.14963760375976562	1.010894775390625	-4.657745361328125	-3.082275390625	9.95389340209961	0.15263035583496093	-0.21727380065917967	3.482818603515625	-4.60052490234375	-2.155303955078125	Estabilizou em 3s, 317  rpm
1	0.004	0.0	0.0	0.0	0.0	0.006	0.003	0.003	0.006	9.891644158935547	0.14544775085449219	-0.028730419921875	2.658843994140625	-3.604888916015625	-0.843048095703125	9.7683427734375	0.43155484924316406	0.13766659545898435	0.804901123046875	-4.99725341796875	-2.941131591796875	9.967061511230469	0.143652099609375	-0.14245499877929688	3.604888916015625	-4.444122314453125	-2.162933349609375	Started
2	0.008	0.0	0.0	0.0	0.0	0.006	0.003	0.006	0.0	9.873687646484374	0.17417817077636719	0.04908113403320312	3.505706787109375	-4.180908203125	-1.03759765625	9.804255798339844	0.46686932373046874	0.1131260284423828	0.995635986328125	-4.848480224609375	-3.154754638671875	10.076596237182617	0.15981296081542967	-0.3076549133300781	3.589630126953125	-4.352569580078125	-2.422332763671875	IMU1|LSM6DS3|0x6A|I2C-1|±2g (±19,6m/s²)|±125º/s|400Hz
3	0.012	0.0	0.0	0.0	0.0	0.009000000000000001	0.003	0.006	0.006	9.871293444824218	0.09217676391601562	0.05027823486328125	2.6702880859375	-3.673553466796875	-0.736236572265625	9.749189160156249	0.43933600463867184	0.1370680450439453	0.911712646484375	-5.062103271484375	-2.910614013671875	9.928754284667969	0.16998831787109375	-0.15083470458984374	3.620147705078125	-4.69207763671875	-1.861572265625	IMU2|LSM6DS3|0x6B|I2C-1|±2g (±19,6m/s²)|±125º/s|400Hz
4	0.016	0.0	0.0	0.0	0.0	0.003	0.003	0.003	0.003	9.87069489440918	0.18734627990722655	0.061650692749023434	3.7078857421875	-4.451751708984375	-1.13677978515625	9.788094937133788	0.4004302276611328	0.11552023010253906	0.79345703125	-4.894256591796875	-3.131866455078125	10.077194787597655	0.037110125732421874	-0.3184288208007812	3.612518310546875	-4.528045654296875	-2.368927001953125	IMU3|LSM6DS3|0x6B|I2C-2|±2g (±19,6m/s²)|±125º/s|400Hz
5	0.02	0.0	0.0	0.0	0.0	0.003	0.006	0.003	0.003	9.86291373901367	0.12808978881835936	0.06763619689941405	2.651214599609375	-3.688812255859375	-0.9002685546875	9.781510882568359	0.5123591552734374	0.16759411621093748	1.087188720703125	-4.878997802734375	-2.9144287109375	10.06163247680664	0.3537432952880859	-0.2950853546142578	3.47900390625	-4.642486572265625	-2.109527587890625	ADC|ADS1015|0|0|1|0|±6,144 V|2400 SPS
6	0.024	0.0	0.0	0.0	0.0	0.003	0.003	0.006	0.003	9.892841259765625	-0.09696516723632811	-0.052073886108398436	1.5106201171875	-2.979278564453125	-0.972747802734375	9.782707983398437	0.4327519500732422	0.0909796630859375	1.0223388671875	-4.9591064453125	-3.231048583984375	10.051457119750976	0.08798691101074219	-0.33758243408203126	3.54766845703125	-4.2724609375	-2.094268798828125	Gen1|Disabled
7	0.028	0.0	0.0	0.0	0.0	0.003	0.006	0.003	0.006	9.855731134033203	0.13587094421386717	0.0909796630859375	2.658843994140625	-3.627777099609375	-0.896453857421875	9.781510882568359	0.488417138671875	0.1693897674560547	0.827789306640625	-5.100250244140625	-2.780914306640625	10.007164389038085	0.35194764404296874	-0.2902969512939453	3.88336181640625	-4.657745361328125	-2.03704833984375	Gen2|Enabled|Noise|0.0|10.0|1668
8	0.032	0.0	0.0	0.0	0.0	0.006	0.003	0.003	0.003	9.911994873046874	-0.14604630126953125	-0.0652419952392578	1.41143798828125	-2.986907958984375	-1.079559326171875	9.86411083984375	0.2813186950683594	0.02454056701660156	0.911712646484375	-4.70733642578125	-3.154754638671875	10.114304913330077	0.09157821350097656	-0.3633201019287109	3.68499755859375	-4.44793701171875	-2.475738525390625	Gen3|Enabled|Noise|0.0|10.0|128
9	0.036000000000000004	0.0	0.0	0.0	0.0	0.003	0.003	0.003	0.006	9.852139831542969	0.17417817077636719	0.10354922180175781	2.5787353515625	-3.765106201171875	-0.850677490234375	9.782707983398437	0.5165490081787109	0.16759411621093748	0.881195068359375	-4.993438720703125	-2.8533935546875	10.028712203979492	0.4070142822265625	-0.31483751831054685	3.482818603515625	-4.688262939453125	-2.071380615234375	Gen4|Enabled|Noise|0.0|10.0|128
10	0.04	0.0	0.0	0.0	0.0	0.003	0.006	0.003	0.003	9.90181951599121	-0.17298106994628906	-0.059256491088867186	0.583648681640625	-2.72369384765625	-1.216888427734375	9.846154327392577	0.2723404388427734	0.04608838195800781	1.0223388671875	-5.176544189453125	-2.99835205078125	10.083180291748047	0.03651157531738281	-0.38187516479492184	3.353118896484375	-4.497528076171875	-2.223968505859375	Ctrl|Disabled
11	0.044	0.0	0.0	0.0	0.0	0.003	0.006	0.003	0.003	9.802460147094726	0.061650692749023434	0.11192892761230468	1.73187255859375	-3.032684326171875	-0.942230224609375	9.758765966796874	0.6296750366210937	0.19632453613281248	0.919342041015625	-4.913330078125	-3.147125244140625	10.05564697265625	0.4177881896972656	-0.2962824554443359	3.765106201171875	-4.7149658203125	-2.2735595703125	
12	0.048	0.0	0.0	0.0	0.0	0.003	0.006	0.003	0.006	9.907206469726562	-0.21248539733886718	-0.06643909606933593	0.720977783203125	-2.429962158203125	-1.079559326171875	9.874884747314452	0.2472013214111328	0.04608838195800781	0.820159912109375	-5.115509033203125	-3.047943115234375	10.10712230834961	0.013766659545898436	-0.3962403747558593	3.185272216796875	-4.425048828125	-2.15911865234375	
13	0.052000000000000005	0.0	0.0	0.0	0.0	0.003	0.006	0.003	0.006	9.804255798339844	0.05805939025878906	0.12030863342285156	1.71661376953125	-3.131866455078125	-1.110076904296875	9.727042794799804	0.6578069061279297	0.23223756103515625	1.003265380859375	-4.85992431640625	-2.95257568359375	10.02332525024414	0.39803602600097654	-0.2699462371826172	3.429412841796875	-4.57763671875	-1.9989013671875	
14	0.056	0.0	0.0	0.0	0.0	0.009000000000000001	0.003	0.003	0.003	9.909600671386718	-0.2651578338623047	-0.030526071166992186	2.017974853515625	-3.063201904296875	-1.57928466796875	9.83837317199707	0.3633201019287109	0.08918401184082031	1.01470947265625	-4.89044189453125	-2.986907958984375	10.116699114990233	-0.017956512451171875	-0.3794809631347656	3.51715087890625	-4.5013427734375	-2.09808349609375	
15	0.06	0.0	0.0	0.0	0.0	0.003	0.003	0.003	0.003	9.827000714111328	0.011971008300781249	0.1149216796875	1.48773193359375	-3.0059814453125	-0.9765625	9.737816702270507	0.6446387969970703	0.24301146850585936	0.79345703125	-4.665374755859375	-2.8839111328125	10.041281762695311	0.3597287994384765	-0.24301146850585936	3.3721923828125	-4.60052490234375	-2.227783203125	
16	0.064	0.0	0.0	0.0	0.0	0.003	0.003	0.006	0.003	9.886855755615233	0.059256491088867186	0.07781155395507812	2.079010009765625	-3.05938720703125	-0.652313232421875	9.842563024902343	0.3489548919677734	0.09337386474609374	0.63323974609375	-4.749298095703125	-2.979278564453125	10.018536846923828	0.09995791931152344	-0.26755203552246093	3.53240966796875	-4.680633544921875	-1.888275146484375	
17	0.068	0.0	0.0	0.0	0.0	0.006	0.003	0.003	0.003	9.816226806640625	0.013168109130859374	0.12569558715820311	1.468658447265625	-3.009796142578125	-0.89263916015625	9.752780462646484	0.7733271362304687	0.15203180541992187	1.48773193359375	-5.2490234375	-3.314971923828125	10.016142645263672	0.36691140441894526	-0.19333178405761717	3.60870361328125	-4.5318603515625	-2.14385986328125	
18	0.07200000000000001	0.0	0.0	0.0	0.0	0.003	0.006	0.006	0.003	9.903016616821288	0.04668693237304687	0.0796072052001953	2.429962158203125	-3.261566162109375	-0.6866455078125	9.859322436523437	0.3238157745361328	0.1197100830078125	0.9765625	-5.283355712890625	-2.8839111328125	10.047865817260742	0.07062894897460938	-0.23104046020507812	3.406524658203125	-4.79888916015625	-1.995086669921875	
19	0.076	0.0	0.0	0.0	0.0	0.006	0.003	0.006	0.003	9.868899243164062	0.3178302703857422	0.054468087768554684	3.936767578125	-4.459381103515625	-0.93841552734375	9.76894132385254	0.7805097412109374	0.1592144104003906	1.338958740234375	-4.650115966796875	-3.448486328125	10.020332498168944	0.38367081604003905	-0.17298106994628906	3.82232666015625	-4.421234130859375	-2.552032470703125	
20	0.08	0.0	0.0	0.0	0.0	0.003	0.003	0.003	0.006	9.894038360595703	0.08379705810546874	0.10295067138671875	2.3040771484375	-3.498077392578125	-0.476837158203125	9.846154327392577	0.30406361083984373	0.14484920043945312	0.797271728515625	-5.428314208984375	-2.689361572265625	10.018536846923828	0.06105214233398437	-0.21248539733886718	3.56292724609375	-4.673004150390625	-2.08282470703125	
21	0.084	0.0	0.0	0.0	0.0	0.003	0.003	0.003	0.003	9.861716638183593	0.3010708587646484	0.08259995727539061	4.24957275390625	-4.6844482421875	-1.18255615234375	9.771335525512695	0.776319888305664	0.16819266662597654	1.132965087890625	-5.138397216796875	-3.48663330078125	9.875483297729492	0.27293898925781246	-0.05626373901367187	3.82232666015625	-4.405975341796875	-2.765655517578125	
22	0.088	0.0	0.0	0.0	0.0	0.003	0.006	0.006	0.003	9.923965881347655	0.15083470458984374	0.09277531433105468	2.73895263671875	-3.56292724609375	-0.621795654296875	9.767145672607422	0.5380968231201172	0.21787235107421873	0.732421875	-4.89044189453125	-2.635955810546875	10.045471615600585	0.08080430603027343	-0.23403321228027343	3.57818603515625	-4.634857177734375	-1.842498779296875	
23	0.092	0.0	0.0	0.0	0.0	0.003	0.003	0.003	0.003	9.865906491088866	0.3238157745361328	0.09816226806640624	4.192352294921875	-4.63104248046875	-0.67138671875	9.770138424682617	0.8068459594726562	0.16819266662597654	1.422882080078125	-4.913330078125	-3.44085693359375	9.858125335693359	0.30885201416015623	-0.05566518859863281	3.795623779296875	-4.337310791015625	-2.666473388671875	
24	0.096	0.0	0.0	0.0	0.0	0.006	0.006	0.003	0.003	9.934739788818359	0.3806780639648437	-0.05566518859863281	4.154205322265625	-4.932403564453125	-0.885009765625	9.764152920532226	0.5063736511230469	0.21607669982910155	0.736236572265625	-5.18035888671875	-2.574920654296875	9.878476049804688	0.31004911499023435	-0.004189852905273437	3.704071044921875	-4.57763671875	-1.8310546875	
25	0.1	0.0	0.0	0.0	0.0	0.006	0.003	0.003	0.006	9.878476049804688	0.30047230834960936	0.07122749938964844	4.703521728515625	-5.096435546875	-1.07574462890625	9.797073193359374	0.37409400939941406	0.21487959899902342	0.850677490234375	-5.06591796875	-3.39508056640625	9.87727894897461	0.2932897033691406	-0.08020575561523437	3.711700439453125	-4.24957275390625	-2.788543701171875	
26	0.10400000000000001	0.0	0.0	0.0	0.0	0.003	0.003	0.006	0.006	9.943119494628906	0.36571430358886714	-0.07422025146484375	4.3792724609375	-4.93621826171875	-1.09100341796875	9.765948571777344	0.5291185668945312	0.20051438903808594	0.4730224609375	-5.2947998046875	-2.666473388671875	9.87009634399414	0.36092590026855464	0.010175357055664061	3.582000732421875	-4.596710205078125	-1.93023681640625	
27	0.108	0.0	0.0	0.0	0.0	0.006	0.006	0.006	0.006	9.874286196899414	0.33518823242187495	0.08020575561523437	3.54766845703125	-5.512237548828125	-0.942230224609375	9.778518130493163	0.3920505218505859	0.20769699401855468	0.84686279296875	-4.901885986328125	-3.376007080078125	10.165780249023436	-0.01915361328125	-0.37708676147460934	3.398895263671875	-4.6539306640625	-2.35748291015625	
28	0.112	0.0	0.0	0.0	0.0	0.006	0.003	0.003	0.003	9.962871658325195	0.3268085266113281	-0.08678981018066406	4.364013671875	-5.096435546875	-0.919342041015625	9.767145672607422	0.430956298828125	0.17836802368164062	0.911712646484375	-4.932403564453125	-2.437591552734375	9.873687646484374	0.3172317199707031	0.011971008300781249	3.41033935546875	-4.543304443359375	-1.89971923828125	
29	0.116	0.0	0.0	0.0	0.0	0.003	0.003	0.006	0.006	9.86351228942871	-0.03651157531738281	0.04189852905273437	3.635406494140625	-4.558563232421875	-1.186370849609375	9.79348189086914	0.41539398803710936	0.18136077575683593	0.7171630859375	-4.6844482421875	-3.41033935546875	10.181941110229491	-0.02633621826171875	-0.42018239135742186	3.536224365234375	-4.291534423828125	-2.60162353515625	
30	0.12	0.0	0.0	0.0	0.0	0.006	0.003	0.003	0.003	9.944316595458984	0.3142389678955078	-0.06643909606933593	4.34112548828125	-5.199432373046875	-1.102447509765625	9.737816702270507	0.488417138671875	0.16819266662597654	0.43487548828125	-4.99725341796875	-2.498626708984375	9.82580361328125	0.3920505218505859	0.05686228942871093	3.70025634765625	-4.67681884765625	-2.094268798828125	
31	0.124	0.0	0.0	0.0	0.0	0.006	0.003	0.003	0.003	9.873089096069336	-0.11252747802734374	0.023942016601562498	3.589630126953125	-4.444122314453125	-1.0833740234375	9.883264453125	0.054468087768554684	0.04668693237304687	1.0986328125	-5.04302978515625	-3.07464599609375	10.192116467285155	-0.06943184814453125	-0.42377369384765623	3.665924072265625	-4.46319580078125	-2.349853515625	
32	0.128	0.0	0.0	0.0	0.0	0.003	0.006	0.003	0.003	9.712677584838866	-0.12988544006347655	0.3537432952880859	1.35040283203125	-3.154754638671875	-0.78582763671875	9.763554370117188	0.47584757995605464	0.1388636962890625	0.698089599609375	-5.0201416015625	-2.5177001953125	10.075399136352539	0.3962403747558593	-0.28012159423828126	3.452301025390625	-4.55474853515625	-2.162933349609375	
33	0.132	0.0	0.0	0.0	0.0	0.003	0.006	0.003	0.003	9.874286196899414	-0.1149216796875	0.010175357055664061	3.559112548828125	-4.543304443359375	-1.06048583984375	9.873687646484374	0.1274912384033203	0.03950432739257812	1.2054443359375	-4.96673583984375	-3.1585693359375	10.185532412719725	-0.029328970336914062	-0.4321533996582031	3.650665283203125	-4.547119140625	-2.5177001953125	
34	0.136	0.0	0.0	0.0	0.0	0.003	0.006	0.006	0.003	9.686939916992188	-0.11731588134765625	0.37888241271972656	1.2054443359375	-2.8533935546875	-0.64849853515625	9.606135610961914	0.6625953094482422	0.3746925598144531	1.04522705078125	-5.084991455078125	-2.79998779296875	10.056844073486328	0.4255693450927734	-0.28969840087890625	3.299713134765625	-4.543304443359375	-2.010345458984375	
35	0.14	0.0	0.0	0.0	0.0	0.003	0.003	0.006	0.003	9.888052856445311	-0.2088940948486328	-0.030526071166992186	3.3111572265625	-4.05120849609375	-1.178741455078125	9.898826763916015	0.07481880187988281	-0.0005985504150390625	0.957489013671875	-5.08880615234375	-3.13568115234375	10.108917959594725	-0.36750995483398435	-0.28490999755859375	3.60870361328125	-4.619598388671875	-2.017974853515625	
36	0.14400000000000002	0.0	0.0	0.0	0.0	0.003	0.003	0.003	0.003	9.67137760620117	-0.11252747802734374	0.38187516479492184	1.201629638671875	-2.95257568359375	-0.789642333984375	9.62109937133789	0.6931213806152343	0.3525461944580078	1.12152099609375	-5.06591796875	-2.96783447265625	10.08078609008789	0.4435258575439453	-0.3184288208007812	3.597259521484375	-4.53948974609375	-1.74713134765625	
37	0.148	0.0	0.0	0.0	0.0	0.003	0.003	0.006	0.006	9.854534033203125	-0.4782417816162109	0.08080430603027343	-2.017974853515625	-1.0528564453125	-0.64849853515625	9.893439810180663	0.061650692749023434	0.0718260498046875	0.98419189453125	-5.0201416015625	-2.8533935546875	10.084377392578125	-0.33099837951660155	-0.2765302917480469	3.50189208984375	-4.314422607421875	-2.197265625	
38	0.152	0.0	0.0	0.0	0.0	0.006	0.003	0.003	0.003	9.645639938354492	-0.13287819213867186	0.3902548706054687	0.881195068359375	-2.52532958984375	-0.9002685546875	9.629479077148437	0.6452373474121094	0.3459621398925781	1.163482666015625	-5.222320556640625	-2.99835205078125	10.005368737792969	0.3962403747558593	-0.17956512451171874	3.520965576171875	-4.734039306640625	-2.101898193359375	
39	0.156	0.0	0.0	0.0	0.0	0.009000000000000001	0.003	0.006	0.006	9.852139831542969	-0.4572925170898437	0.07781155395507812	-2.017974853515625	-0.789642333984375	-0.8697509765625	9.931148486328125	0.0430956298828125	0.04249707946777344	1.010894775390625	-4.741668701171875	-3.086090087890625	10.111910711669921	-0.24839842224121092	-0.3184288208007812	3.50189208984375	-4.619598388671875	-1.983642578125	
40	0.16	0.0	0.0	0.0	0.0	0.003	0.003	0.006	0.003	9.625887774658203	-0.11432312927246092	0.3962403747558593	0.957489013671875	-2.1514892578125	-0.69427490234375	9.62109937133789	0.7068880401611328	0.3393780853271484	1.415252685546875	-5.01251220703125	-3.387451171875	9.994594830322265	0.4896142395019531	-0.15083470458984374	3.74603271484375	-4.558563232421875	-2.086639404296875	
41	0.164	0.0	0.0	0.0	0.0	0.003	0.003	0.006	0.003	9.828197814941406	-0.40462008056640625	0.10714052429199218	-2.079010009765625	-0.667572021484375	-0.67901611328125	9.923965881347655	0.028730419921875	0.052073886108398436	1.1444091796875	-5.084991455078125	-3.07464599609375	10.075399136352539	-0.181959326171875	-0.3010708587646484	3.60870361328125	-4.863739013671875	-1.811981201171875	
42	0.168	0.0	0.0	0.0	0.0	0.003	0.006	0.006	0.003	9.973047015380859	0.316034619140625	-0.086191259765625	1.35040283203125	-2.67791748046875	-0.896453857421875	9.785102185058593	0.7493851196289062	0.18136077575683593	1.41143798828125	-4.93621826171875	-3.62396240234375	10.04846436767578	0.479438882446289	-0.24001871643066405	3.448486328125	-4.566192626953125	-2.227783203125	
43	0.17200000000000001	0.0	0.0	0.0	0.0	0.003	0.003	0.006	0.006	9.835380419921874	-0.3286041778564453	0.10235212097167969	-1.743316650390625	-0.87738037109375	-0.701904296875	9.931148486328125	0.09935936889648436	0.028730419921875	0.034332275390625	-5.04302978515625	-3.01361083984375	10.079588989257813	0.01975216369628906	-0.43454760131835934	3.4942626953125	-4.8370361328125	-1.689910888671875	
44	0.176	0.0	0.0	0.0	0.0	0.006	0.006	0.003	0.006	9.976638317871092	0.32441432495117184	-0.06943184814453125	1.392364501953125	-2.8228759765625	-1.0986328125	9.753977563476562	0.7852981445312499	0.16879121704101563	1.54876708984375	-5.039215087890625	-3.57818603515625	10.015544094848632	0.4560954162597656	-0.24839842224121092	3.276824951171875	-4.642486572265625	-2.201080322265625	
45	0.18	0.0	0.0	0.0	0.0	0.003	0.006	0.006	0.003	9.947907897949218	0.7727285858154297	-0.1406593475341797	5.298614501953125	-5.40924072265625	-0.751495361328125	9.746794958496093	0.49260699157714843	0.18734627990722655	0.46539306640625	-5.039215087890625	-2.445220947265625	10.059238275146484	0.06404489440917968	-0.39923312683105466	3.51715087890625	-4.85992431640625	-1.74713134765625	
46	0.184	0.0	0.0	0.0	0.0	0.006	0.003	0.003	0.003	9.97903251953125	0.28431144714355466	-0.08738836059570312	1.636505126953125	-3.086090087890625	-0.995635986328125	9.751583361816406	0.7631517791748046	0.1771709228515625	1.186370849609375	-4.94384765625	-3.330230712890625	9.827000714111328	0.3184288208007812	-0.05386953735351562	3.4332275390625	-4.299163818359375	-2.73895263671875	
47	0.188	0.0	0.0	0.0	0.0	0.006	0.003	0.003	0.006	9.961076007080077	0.7649474304199219	-0.16639701538085935	5.42449951171875	-5.504608154296875	-0.5645751953125	9.730035546875	0.44532150878906246	0.2154781494140625	0.26702880859375	-4.852294921875	-2.64739990234375	10.03050785522461	0.05985504150390625	-0.37229835815429685	3.520965576171875	-4.852294921875	-2.0904541015625	
48	0.192	0.0	0.0	0.0	0.0	0.006	0.003	0.003	0.003	9.979631069946288	0.35793314819335936	-0.08319850769042968	1.8768310546875	-3.05938720703125	-0.995635986328125	9.730035546875	0.5877765075683593	0.1879448303222656	0.713348388671875	-4.985809326171875	-3.56292724609375	9.807847100830077	0.30047230834960936	-0.022146365356445312	3.68499755859375	-4.322052001953125	-2.849578857421875	
49	0.196	0.0	0.0	0.0	0.0	0.003	0.003	0.003	0.006	9.97244846496582	0.7553706237792969	-0.17477672119140625	5.9051513671875	-5.764007568359375	-0.701904296875	9.741408004760741	0.43514615173339843	0.24899697265624998	0.308990478515625	-4.787445068359375	-2.6397705078125	9.900622415161132	0.28431144714355466	-0.051475335693359374	3.261566162109375	-4.436492919921875	-1.65557861328125	
50	0.2	0.0	0.0	0.0	0.0	0.003	0.003	0.003	0.006	9.955090502929687	0.4531026641845703	0.011971008300781249	7.45391845703125	-7.099151611328125	-1.255035400390625	9.709086282348633	0.6153098266601562	0.23044190979003906	0.682830810546875	-4.730224609375	-3.62396240234375	9.813832604980469	0.2771288421630859	-0.008379705810546874	3.5400390625	-4.364013671875	-2.7618408203125	
51	0.20400000000000001	0.0	0.0	0.0	0.0	0.006	0.003	0.003	0.006	9.952696301269532	0.632667788696289	-0.1867477294921875	5.79833984375	-5.83648681640625	-0.75531005859375	9.708487731933593	0.5991489654541016	0.11552023010253906	0.75531005859375	-5.22613525390625	-2.227783203125	9.883264453125	0.29448680419921874	-0.02693476867675781	3.574371337890625	-4.779815673828125	-1.7242431640625	
52	0.20800000000000002	0.0	0.0	0.0	0.0	0.006	0.003	0.003	0.006	9.942520944213866	0.3890577697753906	0.020350714111328123	7.16400146484375	-6.69097900390625	-0.95367431640625	9.713276135253906	0.5452794281005859	0.23523031311035156	1.132965087890625	-5.008697509765625	-3.719329833984375	9.813832604980469	0.24779987182617186	0.14245499877929688	3.570556640625	-4.3487548828125	-2.391815185546875	
53	0.212	0.0	0.0	0.0	0.0	0.003	0.003	0.003	0.003	9.964667309570311	0.43514615173339843	-0.18076222534179687	3.41033935546875	-5.42449951171875	-1.03759765625	9.739612353515625	0.6715735656738281	0.08798691101074219	0.942230224609375	-5.283355712890625	-2.6092529296875	9.89523546142578	0.354940396118164	0.006584054565429687	3.376007080078125	-4.425048828125	-1.529693603515625	
54	0.216	0.0	0.0	0.0	0.0	0.003	0.003	0.006	0.006	9.968857162475585	0.13407529296874998	0.023343466186523436	6.1798095703125	-5.931854248046875	-0.46539306640625	9.8694977935791	0.4878185882568359	0.03890577697753906	1.19781494140625	-4.970550537109375	-2.674102783203125	10.17056865234375	-0.14245499877929688	-0.4339490509033203	3.528594970703125	-4.535675048828125	-2.536773681640625	
55	0.22	0.0	0.0	0.0	0.0	0.003	0.003	0.003	0.003	9.884461553955077	-0.04249707946777344	0.17238251953125	4.3792724609375	-4.81414794921875	-0.83160400390625	9.728838446044922	0.36930560607910157	0.11731588134765625	1.06048583984375	-5.1727294921875	-2.655029296875	9.878476049804688	0.4064157318115234	0.0143652099609375	3.42559814453125	-4.72259521484375	-1.804351806640625	
56	0.224	0.0	0.0	0.0	0.0	0.003	0.003	0.003	0.003	9.99160207824707	0.4632780212402344	-0.017357962036132813	7.640838623046875	-6.99615478515625	-0.579833984375	9.912593423461914	0.4339490509033203	0.023942016601562498	1.575469970703125	-4.9591064453125	-2.79998779296875	10.199897622680663	-0.055066638183593745	-0.4321533996582031	3.68499755859375	-4.589080810546875	-2.277374267578125	
57	0.228	0.0	0.0	0.0	0.0	0.003	0.003	0.006	0.003	9.835380419921874	-0.2262520568847656	0.25258827514648435	4.680633544921875	-5.16510009765625	-0.888824462890625	9.771335525512695	0.5141548065185546	0.3333925811767578	1.0528564453125	-4.8828125	-3.021240234375	9.998784683227539	0.4531026641845703	-0.18255787658691405	3.749847412109375	-4.7149658203125	-2.32696533203125	
58	0.232	0.0	0.0	0.0	0.0	0.003	0.003	0.003	0.006	9.849147079467773	-0.35314474487304687	-0.04668693237304687	-0.05340576171875	-1.796722412109375	-1.129150390625	9.875483297729492	0.4632780212402344	0.055066638183593745	1.18255615234375	-5.0048828125	-2.834320068359375	10.122684619140625	0.05626373901367187	-0.36272155151367186	3.902435302734375	-4.306793212890625	-2.269744873046875	
59	0.23600000000000002	0.0	0.0	0.0	0.0	0.003	0.006	0.003	0.0	9.82460651245117	-0.1322796417236328	0.296881005859375	4.268646240234375	-4.978179931640625	-0.560760498046875	9.80006594543457	0.47105917663574215	0.3345896820068359	0.804901123046875	-5.077362060546875	-2.895355224609375	10.04846436767578	0.3597287994384765	-0.21787235107421873	3.826141357421875	-4.634857177734375	-2.201080322265625	
60	0.24	0.0	0.0	0.0	0.0	0.003	0.003	0.003	0.003	9.843161575317382	-0.25797522888183594	-0.016160861206054686	0.614166259765625	-2.4261474609375	-1.129150390625	9.898228213500976	0.4339490509033203	0.01975216369628906	1.41143798828125	-5.062103271484375	-3.238677978515625	10.201094723510742	0.06284779357910156	-0.4878185882568359	3.482818603515625	-4.619598388671875	-1.842498779296875	
61	0.244	0.0	0.0	0.0	0.0	0.006	0.003	0.003	0.006	9.798270294189452	-0.18734627990722655	0.36750995483398435	4.390716552734375	-4.878997802734375	-0.789642333984375	9.76774422302246	0.4800374328613281	0.354940396118164	1.09100341796875	-4.901885986328125	-2.887725830078125	10.001777435302733	0.37768531188964843	-0.1879448303222656	3.60107421875	-4.734039306640625	-2.216339111328125	
62	0.248	0.0	0.0	0.0	0.0	0.006	0.003	0.003	0.003	9.83238766784668	-0.3232172241210937	0.044292730712890624	-0.70953369140625	-1.750946044921875	-0.8544921875	9.886855755615233	0.43514615173339843	0.022744915771484374	1.1749267578125	-5.039215087890625	-3.28826904296875	10.202890374755858	0.058657940673828124	-0.49200844116210934	3.62396240234375	-4.43267822265625	-1.64031982421875	
63	0.252	0.0	0.0	0.0	0.0	0.003	0.006	0.003	0.006	9.664195001220703	-0.040102877807617184	0.31004911499023435	-1.430511474609375	-1.049041748046875	-0.995635986328125	9.801861596679688	0.479438882446289	0.3298012786865234	1.12152099609375	-4.7454833984375	-3.391265869140625	10.035894808959961	0.2699462371826172	-0.061650692749023434	3.66973876953125	-4.53948974609375	-2.31170654296875	
64	0.256	0.0	0.0	0.0	0.0	0.003	0.003	0.003	0.0	9.804854348754882	-0.3363853332519531	0.10714052429199218	-1.010894775390625	-1.44195556640625	-0.827789306640625	9.882067352294921	0.4207809417724609	0.006584054565429687	1.483917236328125	-5.2032470703125	-3.48663330078125	10.189722265624999	0.04908113403320312	-0.5165490081787109	3.513336181640625	-4.64630126953125	-1.789093017578125	
65	0.26	0.0	0.0	0.0	0.0	-0.006	0.003	0.006	0.006	9.702502227783203	0.08259995727539061	0.2771288421630859	-1.590728759765625	-0.90789794921875	-1.201629638671875	9.75517466430664	0.6793547210693359	0.2214636535644531	0.9918212890625	-4.978179931640625	-3.360748291015625	9.988010775756836	0.31064766540527344	-0.016160861206054686	3.459930419921875	-4.66156005859375	-2.23541259765625	
66	0.264	0.0	0.0	0.0	0.0	0.0	0.006	0.003	0.009000000000000001	9.797073193359374	-0.2597708801269531	0.15203180541992187	-0.946044921875	-1.354217529296875	-0.946044921875	9.897629663085937	0.39863457641601563	0.030526071166992186	1.613616943359375	-5.14984130859375	-3.23486328125	10.245387454223632	0.022146365356445312	-0.5045779998779296	3.482818603515625	-4.67681884765625	-1.911163330078125	
67	0.268	0.0	0.0	0.0	0.0	0.006	0.003	0.003	0.003	9.747393508911133	0.01915361328125	0.24121581726074218	-1.96075439453125	-0.720977783203125	-1.28936767578125	9.789292037963866	0.6482300994873047	0.1975216369628906	1.1138916015625	-5.199432373046875	-3.299713134765625	10.01733974609375	0.33399113159179683	-0.033518823242187495	3.543853759765625	-4.489898681640625	-2.13623046875	
68	0.272	0.0	0.0	0.0	0.0	0.003	0.003	0.006	0.003	9.90241806640625	0.3441664886474609	-0.0017956512451171875	0.484466552734375	-2.475738525390625	-0.858306884765625	9.699509475708007	0.3345896820068359	0.4531026641845703	-0.1678466796875	-4.833221435546875	-2.87628173828125	9.905410818481444	0.1406593475341797	-0.24779987182617186	3.620147705078125	-4.741668701171875	-2.269744873046875	
69	0.276	0.0	0.0	0.0	0.0	0.003	0.003	0.003	0.0	9.777919580078125	-0.02633621826171875	0.20949264526367187	-2.651214599609375	-0.52642822265625	-1.171112060546875	9.7928833404541	0.6165069274902344	0.17597382202148437	0.9613037109375	-4.924774169921875	-3.35693359375	10.012551342773437	0.34835634155273437	-0.008978256225585938	3.604888916015625	-4.49371337890625	-2.410888671875	
70	0.28	0.0	0.0	0.0	0.0	0.003	0.003	0.003	0.006	9.973645565795898	0.49380409240722656	-0.11013327636718749	1.514434814453125	-2.8228759765625	-0.957489013671875	9.777321029663085	0.31543606872558594	0.41060558471679687	0.00762939453125	-4.726409912109375	-2.838134765625	9.97184991455078	0.105344873046875	-0.2507926239013672	3.635406494140625	-4.810333251953125	-2.2735595703125	
71	0.28400000000000003	0.0	0.0	0.0	0.0	0.003	0.006	0.003	0.006	9.900622415161132	0.4896142395019531	0.058657940673828124	5.54656982421875	-5.584716796875	-0.827789306640625	9.69112976989746	0.4734533782958984	0.2747346405029297	0.43487548828125	-4.978179931640625	-3.05938720703125	9.85632968444824	0.21727380065917967	-0.105344873046875	3.84521484375	-4.291534423828125	-2.5177001953125	
72	0.28800000000000003	0.0	0.0	0.0	0.0	0.003	0.003	0.003	0.006	9.952097750854492	0.5237316131591797	-0.11851298217773437	2.50244140625	-3.54766845703125	-0.980377197265625	9.744400756835937	0.3633201019287109	0.4070142822265625	0.11444091796875	-5.176544189453125	-2.79998779296875	9.89523546142578	0.11552023010253906	-0.24301146850585936	3.56292724609375	-4.650115966796875	-2.193450927734375	
73	0.292	0.0	0.0	0.0	0.0	0.003	0.003	0.003	0.003	9.898228213500976	0.38786066894531246	0.0652419952392578	6.0882568359375	-5.7220458984375	-0.789642333984375	9.721655841064452	0.44113165588378905	0.2657563842773437	0.5340576171875	-4.772186279296875	-3.13568115234375	9.90241806640625	0.18435352783203124	-0.1370680450439453	3.77655029296875	-4.4708251953125	-2.38037109375	
74	0.296	0.0	0.0	0.0	0.0	0.003	0.003	0.003	0.006	9.98501802368164	0.5027823486328125	-0.2059013427734375	2.590179443359375	-3.86810302734375	-1.04522705078125	9.763554370117188	0.3764882110595703	-0.0526724365234375	1.129150390625	-5.1422119140625	-2.796173095703125	9.934739788818359	0.1897404815673828	-0.15682020874023436	3.56292724609375	-4.55474853515625	-2.040863037109375	
75	0.3	0.0	0.0	0.0	0.0	0.003	0.006	0.003	0.003	9.889249957275391	0.49799394531249996	0.040701428222656245	6.427764892578125	-6.23321533203125	-0.736236572265625	9.673771807861328	0.47704468078613277	0.2747346405029297	0.67138671875	-4.627227783203125	-3.07464599609375	9.82460651245117	0.2813186950683594	-0.12569558715820311	3.955841064453125	-4.5318603515625	-2.3651123046875	
76	0.304	0.0	0.0	0.0	0.0	0.003	0.003	0.003	0.006	9.952097750854492	0.07003039855957031	-0.08439560852050781	6.603240966796875	-6.64520263671875	-0.81634521484375	9.767145672607422	0.35134909362792965	-0.05746083984375	1.049041748046875	-5.07354736328125	-2.651214599609375	9.931747036743163	0.1927332336425781	-0.13168109130859373	3.467559814453125	-4.657745361328125	-2.166748046875	
77	0.308	0.0	0.0	0.0	0.0	0.003	0.003	0.006	0.006	9.912593423461914	0.3477577911376953	0.013168109130859374	6.69097900390625	-6.252288818359375	-0.637054443359375	9.86411083984375	0.44532150878906246	-0.040701428222656245	1.316070556640625	-5.084991455078125	-2.9296875	9.887454306030273	0.22445640563964842	-0.17238251953125	3.60107421875	-4.2266845703125	-2.552032470703125	
78	0.312	0.0	0.0	0.0	0.0	0.006	0.003	0.003	0.003	9.926360083007811	-0.028730419921875	-0.05626373901367187	5.603790283203125	-5.916595458984375	-0.95367431640625	9.696516723632811	0.41359833679199215	-0.05985504150390625	1.27410888671875	-5.218505859375	-2.819061279296875	9.880870251464843	0.2166752502441406	-0.1484405029296875	3.559112548828125	-4.40216064453125	-1.911163330078125	
79	0.316	0.0	0.0	0.0	0.0	0.006	0.003	0.003	0.003	9.898826763916015	0.2705447875976562	0.040102877807617184	6.03485107421875	-6.256103515625	-0.804901123046875	9.848548529052733	0.44412440795898434	-0.023343466186523436	1.544952392578125	-5.16510009765625	-2.9449462890625	10.141838232421874	0.08080430603027343	-0.40222587890625	3.65447998046875	-4.29534912109375	-2.460479736328125	
80	0.32	0.0	0.0	0.0	0.0	0.003	0.003	0.006	0.006	9.9215716796875	-0.17178396911621094	0.002992752075195312	4.7454833984375	-5.626678466796875	-1.018524169921875	9.705494979858399	0.39444472351074217	0.3345896820068359	0.759124755859375	-5.031585693359375	-3.1585693359375	9.942520944213866	0.1753752716064453	-0.0987608184814453	3.566741943359375	-4.6539306640625	-1.918792724609375	
81	0.324	0.0	0.0	0.0	0.0	0.006	0.003	0.006	0.003	9.862315188598632	-0.3381809844970703	-0.04369418029785156	0.911712646484375	-2.5482177734375	-0.93841552734375	9.822212310791015	0.4746504791259765	0.0005985504150390625	1.13677978515625	-5.123138427734375	-3.0364990234375	10.117896215820313	0.14245499877929688	-0.40402153015136716	3.70025634765625	-4.3182373046875	-2.613067626953125	
82	0.328	0.0	0.0	0.0	0.0	0.003	0.006	0.006	0.006	9.87668039855957	-0.3016694091796875	0.09157821350097656	3.131866455078125	-4.2877197265625	-0.675201416015625	9.798270294189452	0.47285482788085936	0.4177881896972656	0.652313232421875	-4.985809326171875	-3.24249267578125	10.095151300048828	0.3968389251708984	-0.24660277099609373	3.5247802734375	-4.535675048828125	-1.89971923828125	
83	0.332	0.0	0.0	0.0	0.0	0.003	0.003	0.003	0.003	9.836577520751952	-0.25258827514648435	0.05386953735351562	0.3662109375	-2.201080322265625	-1.13677978515625	9.87608184814453	0.43993455505371093	0.040102877807617184	1.117706298828125	-5.07354736328125	-3.0670166015625	10.187328063964843	0.07541735229492187	-0.36391865234375	3.604888916015625	-4.398345947265625	-2.567291259765625	
84	0.336	0.0	0.0	0.0	0.0	-0.003	0.003	0.003	0.003	9.955689053344726	-0.45489831542968745	0.47884033203125	0.7476806640625	-2.201080322265625	-0.988006591796875	9.797073193359374	0.4435258575439453	0.43993455505371093	0.522613525390625	-4.871368408203125	-3.1585693359375	10.101136804199218	0.36810850524902344	-0.2549824768066406	3.414154052734375	-4.45556640625	-1.796722412109375	
85	0.34	0.0	0.0	0.0	0.0	-0.003	0.003	0.003	0.006	9.782707983398437	-0.07302315063476562	0.15442600708007811	-0.507354736328125	-1.6937255859375	-0.919342041015625	9.843760125732421	0.5704185455322265	0.06105214233398437	0.9307861328125	-5.1116943359375	-3.0670166015625	10.114304913330077	0.09038111267089843	-0.6099228729248046	3.448486328125	-4.5013427734375	-2.1514892578125	
86	0.34400000000000003	0.0	0.0	0.0	0.0	0.003	0.003	0.003	0.009000000000000001	9.673173257446289	0.30885201416015623	0.42317514343261714	0.7171630859375	-2.15911865234375	-0.774383544921875	9.879074600219726	0.3699041564941406	0.4896142395019531	0.438690185546875	-5.138397216796875	-3.0975341796875	10.158597644042969	0.3094505645751953	-0.26396073303222656	3.57818603515625	-4.673004150390625	-1.9073486328125	
87	0.34800000000000003	0.0	0.0	0.0	0.0	0.003	0.003	0.003	0.006	9.829394915771484	0.040701428222656245	0.11133037719726561	-0.5645751953125	-1.438140869140625	-0.89263916015625	9.919776028442381	0.4961982940673828	0.05985504150390625	0.8087158203125	-4.772186279296875	-2.96783447265625	10.193912118530273	-0.006584054565429687	-0.6009446166992187	3.681182861328125	-4.69970703125	-2.349853515625	
88	0.352	0.0	0.0	0.0	0.0	0.003	0.003	0.006	0.003	9.689932669067382	0.5674257934570313	0.34656069030761716	2.063751220703125	-3.3416748046875	-0.911712646484375	9.70369932861328	0.5488707305908203	0.17298106994628906	0.40435791015625	-5.008697509765625	-2.7008056640625	10.04247886352539	0.37768531188964843	-0.2723404388427734	3.314971923828125	-4.611968994140625	-1.68609619140625	
89	0.356	0.0	0.0	0.0	0.0	0.003	0.003	0.006	0.003	10.001178884887695	0.565031591796875	-0.18255787658691405	3.284454345703125	-4.138946533203125	-0.926971435546875	9.938929641723632	0.49859249572753905	0.044891281127929686	0.827789306640625	-4.886627197265625	-2.69317626953125	10.11909331665039	0.0939724151611328	-0.5219359619140624	3.51715087890625	-4.669189453125	-2.193450927734375	
90	0.36	0.0	0.0	0.0	0.0	0.003	0.003	0.003	0.006	9.788693487548828	0.6153098266601562	0.1610100616455078	3.673553466796875	-4.337310791015625	-1.07574462890625	9.770138424682617	0.5123591552734374	0.11731588134765625	0.514984130859375	-4.962921142578125	-2.63214111328125	10.074202035522461	0.2998737579345703	-0.1227028350830078	3.265380859375	-4.8370361328125	-1.9378662109375	
91	0.364	0.0	0.0	0.0	0.0	0.003	0.006	0.003	0.006	9.97903251953125	0.2376245147705078	-0.20949264526367187	3.353118896484375	-4.4097900390625	-0.9765625	9.752181912231444	0.4483142608642578	0.054468087768554684	0.736236572265625	-5.359649658203125	-3.139495849609375	9.975441217041014	0.1083376251220703	-0.4638765716552734	3.448486328125	-4.520416259765625	-2.162933349609375	
92	0.368	0.0	0.0	0.0	0.0	0.003	0.003	0.006	0.0	9.769539874267577	0.6272808349609375	0.15382745666503905	4.08935546875	-4.436492919921875	-0.60272216796875	9.667187753295899	0.5931634613037109	0.1388636962890625	0.63323974609375	-4.9285888671875	-2.61688232421875	9.913191973876952	0.4423287567138672	-0.008978256225585938	3.47900390625	-4.7454833984375	-1.861572265625	
93	0.372	0.0	0.0	0.0	0.0	0.006	0.003	0.006	0.003	9.948506448364258	0.14125789794921875	-0.11133037719726561	3.45611572265625	-4.611968994140625	-0.957489013671875	9.88266590270996	0.430956298828125	-0.0383072265625	1.232147216796875	-4.9591064453125	-3.24249267578125	10.050858569335936	-0.027533319091796873	-0.14245499877929688	3.4637451171875	-4.90570068359375	-2.285003662109375	
94	0.376	0.0	0.0	0.0	0.0	0.006	0.003	0.003	0.003	9.879074600219726	-0.17058686828613281	0.016160861206054686	2.28118896484375	-3.36456298828125	-1.056671142578125	9.727641345214844	0.46806642456054687	0.23822306518554687	1.129150390625	-4.856109619140625	-3.4637451171875	9.974244116210937	0.3345896820068359	-0.05027823486328125	3.3111572265625	-4.878997802734375	-2.02178955078125	
95	0.38	0.0	0.0	0.0	0.0	0.009000000000000001	0.006	0.003	0.006	9.82460651245117	0.37888241271972656	0.05985504150390625	2.475738525390625	-3.681182861328125	-0.63323974609375	9.76116016845703	0.6386532928466796	-0.0047884033203125	1.64031982421875	-5.428314208984375	-3.376007080078125	9.868899243164062	0.15382745666503905	-0.18136077575683593	3.467559814453125	-4.64630126953125	-2.14385986328125	
96	0.384	0.0	0.0	0.0	0.0	0.006	0.003	0.006	0.006	9.855731134033203	-0.2376245147705078	0.12569558715820311	1.71661376953125	-3.383636474609375	-1.06048583984375	9.725247143554688	0.41958384094238277	0.3956418243408203	1.19781494140625	-4.726409912109375	-3.2501220703125	9.73602105102539	0.2657563842773437	0.26755203552246093	3.74603271484375	-4.138946533203125	-2.7618408203125	
97	0.388	0.0	0.0	0.0	0.0	0.006	0.003	0.003	0.003	9.928155734252929	-0.11851298217773437	0.009576806640625	1.71661376953125	-2.933502197265625	-0.690460205078125	9.811438403320311	0.24899697265624998	0.2885013000488281	0.86212158203125	-5.336761474609375	-3.204345703125	10.056844073486328	-0.047884033203124995	-0.22086510314941404	3.60107421875	-4.863739013671875	-2.330780029296875	
98	0.392	0.0	0.0	0.0	0.0	0.006	0.006	0.003	0.003	9.839570272827148	0.18914193115234373	0.016160861206054686	1.209259033203125	-2.597808837890625	-0.8087158203125	9.66000514831543	0.5518634826660156	0.26396073303222656	0.934600830078125	-4.84466552734375	-3.22723388671875	9.64683703918457	0.3752911102294922	0.08798691101074219	3.51715087890625	-4.184722900390625	-2.704620361328125	
99	0.396	0.0	0.0	0.0	0.0	0.003	0.003	0.003	0.009000000000000001	9.884461553955077	0.06105214233398437	0.0005985504150390625	3.009796142578125	-4.055023193359375	-0.865936279296875	9.672574707031249	0.3716998077392578	0.36272155151367186	0.67138671875	-5.092620849609375	-2.92205810546875	9.956287603759765	0.06344634399414062	-0.09277531433105468	3.650665283203125	-4.38690185546875	-1.598358154296875	
100	0.4	0.0	0.0	0.0	0.0	0.003	0.003	0.003	0.003	9.930549935913085	-0.36152445068359373	-0.04908113403320312	0.87738037109375	-2.62451171875	-0.926971435546875	9.868899243164062	0.37708676147460934	0.21906945190429686	0.843048095703125	-4.73785400390625	-3.27301025390625	9.884461553955077	0.1083376251220703	0.1580173095703125	3.8909912109375	-4.15802001953125	-2.9449462890625	
101	0.404	0.0	0.0	0.0	0.0	0.003	0.003	0.006	0.003	9.983820922851562	0.46627077331542965	-0.20769699401855468	3.139495849609375	-4.352569580078125	-0.751495361328125	9.665392102050781	0.46148236999511716	0.20829554443359374	0.946044921875	-5.05828857421875	-3.322601318359375	9.798270294189452	0.31663316955566406	0.1352723937988281	3.322601318359375	-4.299163818359375	-2.06756591796875	
102	0.40800000000000003	0.0	0.0	0.0	0.0	0.003	0.003	0.003	0.0	9.852738381958007	0.25737667846679685	0.1406593475341797	5.161285400390625	-5.0201416015625	-1.01470947265625	9.674968908691406	0.5374982727050781	0.33099837951660155	1.316070556640625	-4.894256591796875	-3.01361083984375	9.707889181518555	0.3058592620849609	0.12090718383789062	3.6468505859375	-4.352569580078125	-2.307891845703125	
103	0.41200000000000003	0.0	0.0	0.0	0.0	0.003	0.006	0.003	0.009000000000000001	10.02332525024414	-0.3345896820068359	-0.15382745666503905	2.593994140625	-4.03594970703125	-1.125335693359375	9.82580361328125	0.2819172454833984	0.1897404815673828	0.6561279296875	-4.940032958984375	-2.8076171875	10.011354241943359	0.16220716247558592	0.1274912384033203	3.559112548828125	-4.558563232421875	-2.32696533203125	
104	0.41600000000000004	0.0	0.0	0.0	0.0	0.006	0.003	0.006	0.006	9.952696301269532	0.3058592620849609	0.004189852905273437	3.742218017578125	-4.253387451171875	-0.392913818359375	9.816226806640625	0.5015852478027344	0.15682020874023436	1.0833740234375	-4.7760009765625	-3.246307373046875	10.332177264404296	-0.028131869506835935	-0.5189432098388671	3.570556640625	-4.268646240234375	-2.40325927734375	
105	0.42	0.0	0.0	0.0	0.0	0.0	0.003	0.006	0.003	9.931148486328125	0.5698199951171875	-0.18854338073730467	3.35693359375	-4.180908203125	-0.9918212890625	9.670779055786133	0.4632780212402344	0.3429693878173828	0.720977783203125	-5.199432373046875	-2.72369384765625	9.677363110351562	0.3812766143798828	0.21428104858398436	3.536224365234375	-4.486083984375	-1.705169677734375	
106	0.424	0.0	0.0	0.0	0.0	0.003	0.003	0.006	0.009000000000000001	9.88386300354004	-0.14544775085449219	0.10414777221679687	4.17327880859375	-4.642486572265625	-1.01470947265625	9.833584768676758	0.41359833679199215	0.28311434631347654	1.2359619140625	-4.604339599609375	-3.063201904296875	10.320206256103514	0.014963760375976562	-0.49799394531249996	3.65447998046875	-4.467010498046875	-2.361297607421875	
107	0.428	0.0	0.0	0.0	0.0	0.006	0.003	0.003	0.006	9.805452899169921	-0.26755203552246093	0.3699041564941406	1.888275146484375	-3.253936767578125	-0.141143798828125	9.920973129272461	0.30047230834960936	0.2059013427734375	0.186920166015625	-5.474090576171875	-3.21197509765625	10.234613546752929	0.2867056488037109	-0.37888241271972656	3.4332275390625	-4.638671875	-2.17437744140625	
108	0.432	0.0	0.0	0.0	0.0	0.003	0.003	0.006	0.006	9.882067352294921	0.22206220397949217	-0.06823474731445311	2.35748291015625	-3.566741943359375	-0.270843505859375	9.83238766784668	0.6446387969970703	-0.11192892761230468	1.750946044921875	-4.7454833984375	-3.025054931640625	10.037690460205077	0.10773907470703124	-0.373495458984375	3.6468505859375	-4.2724609375	-2.216339111328125	
109	0.436	0.0	0.0	0.0	0.0	0.006	0.006	0.003	0.006	9.64683703918457	0.7577648254394531	0.5303156677246094	6.214141845703125	-5.69915771484375	-1.04522705078125	9.798868844604492	0.31663316955566406	0.3172317199707031	0.518798828125	-4.99725341796875	-2.349853515625	10.03050785522461	0.4740519287109375	-0.3016694091796875	3.536224365234375	-4.63104248046875	-1.827239990234375	
110	0.44	0.0	0.0	0.0	0.0	0.003	0.006	0.003	0.003	9.986215124511718	0.1083376251220703	-0.04548983154296875	-1.102447509765625	-1.50299072265625	-1.12152099609375	10.102333905029296	0.5404910247802734	-0.18136077575683593	1.79290771484375	-5.0811767578125	-2.742767333984375	10.43871923828125	-0.0987608184814453	-0.556053335571289	3.509521484375	-4.8675537109375	-1.865386962890625	
111	0.444	0.0	0.0	0.0	0.0	0.003	0.006	0.003	0.003	9.642647186279296	-0.36631285400390623	0.49021278991699213	1.720428466796875	-2.9754638671875	-0.720977783203125	9.549871871948241	0.46627077331542965	0.4255693450927734	-0.05340576171875	-4.852294921875	-3.047943115234375	10.045471615600585	0.4339490509033203	-0.3950432739257812	3.559112548828125	-4.749298095703125	-2.288818359375	
112	0.448	0.0	0.0	0.0	0.0	0.003	0.003	0.003	0.006	9.849745629882811	0.37409400939941406	0.04967968444824218	-1.338958740234375	-1.430511474609375	-0.3509521484375	9.829394915771484	0.6859387756347656	-0.15203180541992187	1.5869140625	-4.878997802734375	-2.696990966796875	9.991003527832031	0.21787235107421873	-0.5267243652343749	3.62396240234375	-4.604339599609375	-2.0294189453125	
113	0.452	0.0	0.0	0.0	0.0	0.009000000000000001	0.003	0.006	0.009000000000000001	9.750984811401366	0.7015010864257812	0.354341845703125	4.627227783203125	-4.909515380859375	-0.606536865234375	9.666589202880859	0.4375403533935547	0.41359833679199215	0.576019287109375	-5.382537841796875	-2.704620361328125	10.217255584716796	0.2885013000488281	-0.3711012573242187	3.631591796875	-4.581451416015625	-2.166748046875	
114	0.456	0.0	0.0	0.0	0.0	0.003	0.006	0.006	0.006	9.883264453125	0.16280571289062498	0.12389993591308593	1.941680908203125	-3.0059814453125	-1.8157958984375	10.05504842224121	0.41060558471679687	-0.1657984649658203	0.9307861328125	-4.8065185546875	-3.154754638671875	10.31062944946289	0.03591302490234375	-0.7248445526123046	3.597259521484375	-4.558563232421875	-1.9378662109375	
115	0.46	0.0	0.0	0.0	0.0	0.003	0.003	0.006	0.006	9.868899243164062	-0.6673837127685547	-0.04249707946777344	-2.57110595703125	-0.48065185546875	-0.705718994140625	9.39125601196289	0.6847416748046875	0.5428852264404297	0.09918212890625	-5.153656005859375	-2.7618408203125	9.807847100830077	0.3058592620849609	-0.21428104858398436	3.53240966796875	-4.627227783203125	-2.08282470703125	
116	0.464	0.0	0.0	0.0	0.0	0.006	0.003	0.006	0.006	9.763554370117188	-0.5051765502929687	0.3232172241210937	-3.77655029296875	-0.019073486328125	-0.156402587890625	9.925162982177733	0.4147954376220703	-0.03172317199707031	0.9918212890625	-4.98199462890625	-3.093719482421875	10.237606298828124	0.07781155395507812	-0.6075286712646484	3.47900390625	-4.57763671875	-1.789093017578125	
117	0.468	0.0	0.0	0.0	0.0	0.003	0.006	0.006	0.006	10.079588989257813	0.2723404388427734	-0.29089550170898437	1.567840576171875	-2.979278564453125	-1.04522705078125	9.803058697509766	0.4177881896972656	0.2154781494140625	1.28173828125	-4.970550537109375	-3.13568115234375	10.102333905029296	0.013168109130859374	-0.28490999755859375	3.620147705078125	-4.66156005859375	-2.513885498046875	
118	0.47200000000000003	0.0	0.0	0.0	0.0	0.003	0.006	0.006	0.003	9.86351228942871	0.5823895538330078	-0.016160861206054686	0.030517578125	-2.14385986328125	-0.766754150390625	9.866505041503906	0.43993455505371093	-0.02693476867675781	1.068115234375	-4.947662353515625	-3.0670166015625	9.892841259765625	0.35194764404296874	-0.26396073303222656	3.45611572265625	-4.688262939453125	-2.208709716796875	
119	0.47600000000000003	0.0	0.0	0.0	0.0	0.006	0.006	0.003	4.557	9.847351428222655	0.24600422058105467	0.09576806640624999	3.68499755859375	-4.43267822265625	-1.140594482421875	9.545682019042967	0.5805939025878906	0.41359833679199215	0.728607177734375	-5.035400390625	-2.86102294921875	9.778518130493163	0.18375497741699218	-0.08319850769042968	3.7841796875	-4.7149658203125	-2.38037109375	
120	0.48	0.0	0.0	0.0	0.0	4.569	4.623	4.6290000000000004	4.572	9.928754284667969	-0.1753752716064453	-0.031124621582031248	1.354217529296875	-3.330230712890625	-1.0986328125	9.873687646484374	0.2346317626953125	-0.010175357055664061	0.9918212890625	-5.05828857421875	-3.002166748046875	10.107720858764647	0.22206220397949217	-0.23104046020507812	3.65447998046875	-4.680633544921875	-1.9989013671875	
121	0.484	0.0	0.0	0.0	0.0	4.569	4.623	4.626	4.581	9.867103591918944	-0.11372457885742186	0.14544775085449219	0.19073486328125	-1.89208984375	-0.9613037109375	9.618106619262695	0.5470750793457031	0.3585316986083984	0.77056884765625	-4.5166015625	-3.429412841796875	9.90241806640625	0.09816226806640624	-0.18435352783203124	3.658294677734375	-4.268646240234375	-2.635955810546875	
122	0.488	0.0	0.0	0.0	0.0	4.581	4.626	4.617	4.569	9.841964474487304	0.47764323120117186	0.0047884033203125	2.00653076171875	-3.467559814453125	-0.598907470703125	9.624690673828125	0.40282442932128903	0.19692308654785154	0.77056884765625	-4.89044189453125	-2.9144287109375	9.773131176757811	0.4848258361816406	-0.1227028350830078	3.59344482421875	-4.99725341796875	-1.979827880859375	
123	0.492	0.0	0.0	0.0	0.0	4.578	4.632	4.626	4.554	9.888052856445311	-0.029927520751953124	0.03591302490234375	6.649017333984375	-6.30950927734375	-0.885009765625	9.700706576538085	0.4483142608642578	0.4608838195800781	0.72479248046875	-4.871368408203125	-2.95257568359375	9.922768780517577	-0.059256491088867186	-0.11791443176269531	3.910064697265625	-4.344940185546875	-2.35748291015625	
124	0.496	0.0	0.0	0.0	0.0	4.581	4.626	4.626	4.548	10.094552749633788	0.3058592620849609	-0.26276363220214843	4.253387451171875	-4.596710205078125	-0.8697509765625	9.92755718383789	0.2663549346923828	0.029927520751953124	0.530242919921875	-4.84466552734375	-3.063201904296875	10.077793338012695	0.29448680419921874	-0.23642741394042968	3.543853759765625	-4.634857177734375	-2.346038818359375	
125	0.5	0.0	0.0	0.0	0.0	4.581	4.623	4.626	4.5600000000000005	9.967061511230469	0.49380409240722656	-0.0652419952392578	7.50732421875	-6.633758544921875	-0.80108642578125	9.62169792175293	0.47704468078613277	0.2741360900878906	1.026153564453125	-4.680633544921875	-3.002166748046875	9.710881933593749	0.02633621826171875	-0.04608838195800781	3.856658935546875	-4.276275634765625	-2.4566650390625	
126	0.504	0.0	0.0	0.0	0.0	4.578	4.6290000000000004	4.626	4.572	9.973047015380859	0.6278793853759765	-0.10654197387695312	5.18798828125	-5.83648681640625	-0.67901611328125	9.749787710571288	0.3172317199707031	0.19812018737792966	0.5340576171875	-5.298614501953125	-2.716064453125	9.832986218261718	0.47884033203125	0.032920272827148434	3.56292724609375	-4.566192626953125	-2.079010009765625	
127	0.508	0.0	0.0	0.0	0.0	4.578	4.6290000000000004	4.6290000000000004	4.575	10.056844073486328	0.19512743530273435	-0.12808978881835936	7.476806640625	-6.626129150390625	-0.835418701171875	9.82580361328125	0.31004911499023435	0.1753752716064453	0.6866455078125	-4.688262939453125	-3.147125244140625	10.000580334472655	-0.14604630126953125	-0.15682020874023436	3.875732421875	-4.32586669921875	-2.323150634765625	
128	0.512	0.0	0.0	0.0	0.0	4.566	4.626	4.626	4.581	9.900023864746093	-0.07900865478515624	0.10594342346191406	4.978179931640625	-5.245208740234375	-0.9307861328125	9.80066449584961	0.46806642456054687	0.15861585998535155	0.57220458984375	-5.023956298828125	-2.582550048828125	9.941323843383788	0.41539398803710936	-0.013168109130859374	3.574371337890625	-4.482269287109375	-2.376556396484375	
129	0.516	0.0	0.0	0.0	0.0	4.581	4.6290000000000004	4.6290000000000004	4.563	9.8449572265625	0.3854664672851562	0.20171148986816406	6.29425048828125	-6.153106689453125	-0.57220458984375	9.583989245605467	0.5309142181396485	0.3705027069091797	1.15203857421875	-5.07354736328125	-3.139495849609375	10.187328063964843	0.09217676391601562	-0.5692214447021484	3.551483154296875	-4.299163818359375	-1.77764892578125	
130	0.52	0.0	0.0	0.0	0.0	4.578	4.6290000000000004	4.626	4.551	9.911994873046874	-0.1849520782470703	0.19393033447265623	3.582000732421875	-4.840850830078125	-0.87738037109375	9.91438907470703	0.3399766357421875	0.1484405029296875	0.6103515625	-4.947662353515625	-2.529144287109375	10.131064324951172	0.2914940521240234	-0.08798691101074219	3.589630126953125	-4.474639892578125	-1.983642578125	
131	0.524	0.0	0.0	0.0	0.0	4.5840000000000005	4.623	4.6290000000000004	4.548	9.912593423461914	0.21787235107421873	0.15861585998535155	5.474090576171875	-5.344390869140625	-1.19781494140625	9.99160207824707	0.4327519500732422	-0.05985504150390625	1.50299072265625	-5.001068115234375	-3.314971923828125	10.379462747192383	-0.009576806640625	-0.6817489227294922	3.971099853515625	-4.57763671875	-1.94549560546875	
132	0.528	0.0	0.0	0.0	0.0	4.587	4.62	4.6290000000000004	4.566	9.835380419921874	-0.07721300354003906	0.20530279235839843	2.64739990234375	-3.597259521484375	-0.621795654296875	9.68454571533203	0.4572925170898437	0.277727392578125	0.614166259765625	-5.05828857421875	-2.506256103515625	9.767145672607422	0.5087678527832031	-0.23822306518554687	3.48663330078125	-4.657745361328125	-2.00653076171875	
133	0.532	0.0	0.0	0.0	0.0	4.575	4.626	4.632	4.572	9.956886154174803	-0.13347674255371092	-0.16220716247558592	1.873016357421875	-3.13568115234375	-0.70953369140625	9.911994873046874	0.4740519287109375	0.044292730712890624	1.132965087890625	-5.07354736328125	-2.643585205078125	10.280701928710936	0.034715924072265626	-0.5339069702148437	3.696441650390625	-4.46319580078125	-1.70135498046875	
134	0.536	0.0	0.0	0.0	0.0	4.578	4.6290000000000004	1.971	0.006	10.01015714111328	-0.0939724151611328	-0.03232172241210937	4.146575927734375	-4.78363037109375	-0.72479248046875	9.788693487548828	0.46208092041015625	0.17956512451171874	0.6256103515625	-5.176544189453125	-2.74658203125	10.196904870605469	0.16460136413574217	-0.35613749694824215	3.467559814453125	-4.7760009765625	-2.384185791015625	
135	0.54	0.0	0.0	0.0	0.0	0.003	0.003	0.003	0.009000000000000001	9.93952819213867	-0.1610100616455078	-0.21607669982910155	2.55584716796875	-3.80706787109375	-1.0528564453125	9.792284790039062	0.5692214447021484	0.07541735229492187	1.16729736328125	-4.87518310546875	-2.895355224609375	10.110115060424803	0.143652099609375	-0.4542997650146484	3.993988037109375	-4.703521728515625	-2.071380615234375	
136	0.544	0.0	0.0	0.0	0.0	0.009000000000000001	0.003	0.006	0.003	9.874884747314452	-0.02693476867675781	0.17357962036132812	1.556396484375	-2.964019775390625	-0.736236572265625	9.604938510131836	0.5883750579833984	0.3962403747558593	0.759124755859375	-5.1422119140625	-2.941131591796875	9.97244846496582	0.3274070770263672	-0.17178396911621094	3.57818603515625	-4.810333251953125	-2.13623046875	
137	0.548	0.0	0.0	0.0	0.0	0.006	0.003	0.003	0.003	9.97843396911621	-0.3321954803466797	-0.21966800231933592	1.86920166015625	-3.414154052734375	-1.068115234375	9.995791931152343	0.41539398803710936	-0.0005985504150390625	1.377105712890625	-5.008697509765625	-3.314971923828125	10.18313821105957	0.14724340209960937	-0.23403321228027343	3.276824951171875	-4.474639892578125	-2.048492431640625	
138	0.552	0.0	0.0	0.0	0.0	0.003	0.003	0.003	0.003	9.665392102050781	0.05626373901367187	0.3399766357421875	1.216888427734375	-2.681732177734375	-1.010894775390625	9.613318215942382	0.5871779571533203	0.39983167724609375	0.972747802734375	-4.734039306640625	-3.2196044921875	10.150217938232421	0.25737667846679685	-0.4513070129394531	3.604888916015625	-4.703521728515625	-2.22015380859375	
139	0.556	0.0	0.0	0.0	0.0	0.006	0.003	0.006	0.003	9.819818109130859	-0.2472013214111328	0.020949264526367185	0.02288818359375	-2.1514892578125	-0.873565673828125	9.803058697509766	0.556053335571289	0.11911153259277343	1.373291015625	-5.11932373046875	-3.28826904296875	10.017938296508788	0.32142157287597656	-0.32501287536621093	3.47900390625	-4.673004150390625	-1.8310546875	
140	0.56	0.0	0.0	0.0	0.0	0.006	0.006	0.003	0.0	9.739612353515625	-0.07362170104980469	0.30047230834960936	-0.453948974609375	-1.373291015625	-0.888824462890625	9.804255798339844	0.5189432098388671	0.19991583862304688	1.033782958984375	-5.3253173828125	-3.353118896484375	9.925162982177733	0.086191259765625	-0.0047884033203125	3.6773681640625	-4.650115966796875	-2.40325927734375	
141	0.5640000000000001	0.0	0.0	0.0	0.0	0.006	0.003	0.003	0.003	9.964068759155273	0.11911153259277343	-0.040102877807617184	0.20599365234375	-1.8768310546875	-0.87738037109375	9.97184991455078	0.40581718139648437	-0.0005985504150390625	0.827789306640625	-4.75311279296875	-3.170013427734375	10.220248336791991	0.16998831787109375	-0.421978042602539	3.5858154296875	-4.73785400390625	-2.056121826171875	
142	0.5680000000000001	0.0	0.0	0.0	0.0	0.003	0.003	0.006	0.006	9.686341366577148	-0.05805939025878906	0.28311434631347654	-1.38092041015625	-1.22833251953125	-1.07574462890625	9.631873278808593	0.5746083984375	0.3387795349121094	0.60272216796875	-4.886627197265625	-3.12042236328125	9.715670336914062	0.2262520568847656	0.09157821350097656	3.4027099609375	-4.283905029296875	-2.292633056640625	
143	0.5720000000000001	0.0	0.0	0.0	0.0	0.006	0.003	0.003	0.006	9.879673150634765	0.35673604736328124	0.040701428222656245	1.209259033203125	-2.788543701171875	-0.77056884765625	9.85094273071289	0.5853823059082031	0.32620997619628905	0.568389892578125	-5.138397216796875	-3.070831298828125	9.83777462158203	0.3172317199707031	-0.12509703674316405	3.627777099609375	-4.64630126953125	-2.29644775390625	
144	0.5760000000000001	0.0	0.0	0.0	0.0	0.006	0.003	0.003	0.003	9.850344180297851	-0.0796072052001953	0.09756371765136718	-0.7781982421875	-1.495361328125	-1.1138916015625	9.830592016601562	0.4842272857666015	0.20231004028320312	1.003265380859375	-4.93621826171875	-3.376007080078125	10.028712203979492	0.08678981018066406	-0.10235212097167969	3.50189208984375	-4.58526611328125	-2.262115478515625	
145	0.58	0.0	0.0	0.0	0.0	-0.003	0.003	0.003	0.003	9.90241806640625	0.258573779296875	-0.03651157531738281	1.209259033203125	-2.666473388671875	-1.125335693359375	9.683348614501952	0.4070142822265625	0.24660277099609373	0.5340576171875	-4.92095947265625	-3.10516357421875	9.83238766784668	0.2292448089599609	-0.09157821350097656	3.482818603515625	-4.58526611328125	-2.349853515625	
146	0.584	0.0	0.0	0.0	0.0	0.009000000000000001	0.003	0.003	0.009000000000000001	9.83837317199707	0.42437224426269526	0.09935936889648436	4.2572021484375	-4.550933837890625	-0.43487548828125	9.698910925292969	0.6051344696044921	0.26695348510742184	0.919342041015625	-5.069732666015625	-2.925872802734375	9.775525378417969	0.2705447875976562	-0.054468087768554684	3.620147705078125	-4.405975341796875	-1.979827880859375	
147	0.588	0.0	0.0	0.0	0.0	0.006	0.003	0.003	0.003	10.014945544433592	0.22026655273437498	-0.19692308654785154	1.220703125	-2.60162353515625	-0.6561279296875	9.837176071166992	0.32022447204589843	0.16759411621093748	0.492095947265625	-5.413055419921875	-3.009796142578125	9.969455712890625	0.09576806640624999	-0.1580173095703125	3.60870361328125	-4.791259765625	-2.18963623046875	
148	0.592	0.0	0.0	0.0	0.0	0.009000000000000001	0.003	0.003	0.006	9.990404977416992	0.296881005859375	-0.10654197387695312	5.40924072265625	-5.24139404296875	-0.988006591796875	9.767145672607422	0.42437224426269526	0.1406593475341797	0.919342041015625	-4.76837158203125	-2.834320068359375	10.017938296508788	0.16041151123046873	-0.18315642700195311	3.696441650390625	-4.436492919921875	-2.262115478515625	
149	0.596	0.0	0.0	0.0	0.0	0.006	0.003	0.003	0.003	9.900622415161132	0.3908534210205078	-0.13467384338378904	6.47735595703125	-6.40106201171875	-0.84686279296875	9.630676177978515	0.4746504791259765	0.2519897247314453	0.457763671875	-5.218505859375	-2.956390380859375	9.72345149230957	0.23223756103515625	-0.1131260284423828	3.70025634765625	-4.749298095703125	-2.3651123046875	
150	0.6	0.0	0.0	0.0	0.0	0.003	0.006	0.003	0.003	9.93354268798828	0.23403321228027343	-0.0652419952392578	5.352020263671875	-5.344390869140625	-0.4425048828125	9.700108026123047	0.42437224426269526	0.1592144104003906	0.885009765625	-4.940032958984375	-2.73895263671875	9.900023864746093	0.2807201446533203	-0.09696516723632811	3.4332275390625	-4.2724609375	-2.071380615234375	
151	0.604	0.0	0.0	0.0	0.0	0.006	0.003	0.003	0.006	10.047267266845703	-0.09457096557617187	-0.16759411621093748	6.046295166015625	-6.099700927734375	-1.049041748046875	9.848548529052733	0.3597287994384765	0.028730419921875	1.02996826171875	-5.039215087890625	-2.880096435546875	10.178948358154296	-0.023942016601562498	-0.1592144104003906	3.528594970703125	-4.276275634765625	-2.12860107421875	
152	0.608	0.0	0.0	0.0	0.0	0.003	0.003	0.003	0.003	9.911994873046874	0.3800795135498047	-0.029927520751953124	6.17218017578125	-5.92041015625	-0.90789794921875	9.660603698730467	0.4782417816162109	0.14245499877929688	0.698089599609375	-4.70733642578125	-2.9449462890625	9.854534033203125	0.33518823242187495	-0.13287819213867186	3.62396240234375	-4.425048828125	-2.3956298828125	
153	0.612	0.0	0.0	0.0	0.0	0.003	0.003	0.003	0.003	9.892841259765625	-0.08559270935058594	-0.032920272827148434	5.10406494140625	-5.817413330078125	-0.640869140625	9.679158761596678	0.47165772705078124	0.12569558715820311	1.0223388671875	-5.405426025390625	-2.90679931640625	9.90241806640625	0.08798691101074219	-0.05626373901367187	3.658294677734375	-4.550933837890625	-1.9378662109375	
154	0.616	0.0	0.0	0.0	0.0	0.006	0.006	0.003	0.006	9.873687646484374	-0.4213794921875	-0.005985504150390624	2.109527587890625	-3.459930419921875	-0.988006591796875	9.937133990478515	0.44592005920410155	0.04189852905273437	1.857757568359375	-5.069732666015625	-3.116607666015625	10.29147583618164	0.14784195251464843	-0.4584896179199218	3.696441650390625	-4.459381103515625	-2.185821533203125	
155	0.62	0.0	0.0	0.0	0.0	0.003	0.003	0.003	0.006	9.935338339233398	-0.18315642700195311	-0.023343466186523436	4.878997802734375	-5.3558349609375	-0.797271728515625	9.753379013061522	0.4513070129394531	0.07062894897460938	1.24359130859375	-5.001068115234375	-3.15093994140625	10.101136804199218	-0.006584054565429687	-0.11911153259277343	3.627777099609375	-4.5318603515625	-1.922607421875	
156	0.624	0.0	0.0	0.0	0.0	0.006	0.003	0.003	0.006	9.730035546875	-0.16519991455078123	0.20649989318847656	1.36566162109375	-2.83050537109375	-0.972747802734375	9.789890588378906	0.5458779785156249	0.1370680450439453	1.522064208984375	-5.107879638671875	-3.131866455078125	10.097545501708984	0.24839842224121092	-0.3705027069091797	3.91387939453125	-4.6539306640625	-2.391815185546875	
157	0.628	0.0	0.0	0.0	0.0	0.006	0.003	0.003	0.006	9.86411083984375	-0.26276363220214843	0.10115502014160156	3.65447998046875	-4.2877197265625	-0.858306884765625	9.706692080688477	0.47584757995605464	0.3968389251708984	0.682830810546875	-4.924774169921875	-3.15093994140625	10.04846436767578	-0.0047884033203125	-0.047285482788085934	3.475189208984375	-4.82177734375	-1.926422119140625	
158	0.632	0.0	0.0	0.0	0.0	0.006	0.006	0.006	0.003	9.80665	-0.1927332336425781	0.1640028137207031	0.48065185546875	-2.1209716796875	-0.9613037109375	9.93952819213867	0.48722003784179685	0.076614453125	1.35040283203125	-4.673004150390625	-3.2958984375	10.389638104248046	0.13826514587402344	-0.6236895324707031	3.574371337890625	-4.657745361328125	-2.445220947265625	
159	0.636	0.0	0.0	0.0	0.0	0.003	0.003	0.003	0.003	9.651625442504882	0.36272155151367186	0.36750995483398435	0.38909912109375	-2.288818359375	-0.7781982421875	9.714473236083984	0.44592005920410155	0.45190556335449217	0.52642822265625	-5.107879638671875	-3.02886962890625	10.024522351074218	0.2950853546142578	-0.22026655273437498	3.60107421875	-4.7607421875	-1.9378662109375	
160	0.64	0.0	0.0	0.0	0.0	0.003	0.003	0.006	0.006	9.788693487548828	0.020949264526367185	0.16340426330566404	0.164031982421875	-1.972198486328125	-0.873565673828125	9.827000714111328	0.49320554199218747	0.07541735229492187	0.789642333984375	-4.78363037109375	-2.735137939453125	10.181342559814453	0.15981296081542967	-0.584185205078125	3.72314453125	-4.726409912109375	-2.315521240234375	
161	0.644	0.0	0.0	0.0	0.0	0.003	0.006	0.003	0.003	9.76774422302246	0.2813186950683594	0.19991583862304688	1.613616943359375	-2.910614013671875	-0.675201416015625	9.808445651245117	0.3687070556640625	0.2920926025390625	0.453948974609375	-5.207061767578125	-2.61688232421875	10.097545501708984	0.2813186950683594	-0.2819172454833984	3.452301025390625	-4.50897216796875	-1.97601318359375	
162	0.648	0.0	0.0	0.0	0.0	0.0	0.003	0.003	0.006	9.873089096069336	-0.16280571289062498	0.0005985504150390625	2.124786376953125	-3.437042236328125	-0.8544921875	9.90181951599121	0.4896142395019531	0.016160861206054686	0.8392333984375	-4.81414794921875	-2.979278564453125	10.123881719970703	-0.028131869506835935	-0.3280056274414062	3.48663330078125	-4.718780517578125	-2.01416015625	
163	0.652	0.0	0.0	0.0	0.0	0.006	0.003	0.006	0.003	9.737218151855469	0.2346317626953125	0.17357962036132812	1.956939697265625	-3.253936767578125	-0.823974609375	9.712079034423828	0.4267664459228515	0.20231004028320312	1.010894775390625	-5.123138427734375	-3.040313720703125	10.02990930480957	0.37409400939941406	-0.31543606872558594	3.72314453125	-4.795074462890625	-1.6326904296875	
164	0.656	0.0	0.0	0.0	0.0	0.006	0.003	0.006	0.006	9.85692823486328	0.12868833923339842	0.07122749938964844	2.002716064453125	-3.314971923828125	-0.881195068359375	9.865906491088866	0.6141127258300781	-0.022146365356445312	1.285552978515625	-4.947662353515625	-3.055572509765625	10.071807833862303	0.011971008300781249	-0.412401235961914	3.406524658203125	-4.657745361328125	-1.918792724609375	
165	0.66	0.0	0.0	0.0	0.0	0.009000000000000001	0.003	0.003	0.006	9.753977563476562	0.23044190979003906	0.16160861206054686	3.101348876953125	-3.971099853515625	-1.06048583984375	9.788693487548828	0.3938461730957031	0.22744915771484372	0.98419189453125	-4.947662353515625	-3.23486328125	9.999383233642577	0.3178302703857422	-0.0909796630859375	3.582000732421875	-4.688262939453125	-2.17437744140625	
166	0.664	0.0	0.0	0.0	0.0	0.0	0.003	0.003	0.003	9.787496386718749	0.17657237243652343	0.21009119567871093	1.04522705078125	-2.685546875	-0.911712646484375	9.819818109130859	0.565031591796875	0.0526724365234375	0.66375732421875	-4.87518310546875	-3.143310546875	10.09395419921875	-0.007781155395507812	-0.31663316955566406	3.421783447265625	-4.497528076171875	-2.03704833984375	
167	0.668	0.0	0.0	0.0	0.0	0.006	0.003	0.006	0.003	9.83777462158203	0.05746083984375	0.03411737365722656	1.262664794921875	-3.021240234375	-1.033782958984375	9.680954412841796	0.4782417816162109	0.3142389678955078	0.75531005859375	-5.100250244140625	-3.116607666015625	9.85632968444824	0.38307226562499996	-0.05327098693847656	3.437042236328125	-4.352569580078125	-2.285003662109375	
168	0.672	0.0	0.0	0.0	0.0	0.003	0.003	0.003	0.006	9.833584768676758	0.32501287536621093	0.16280571289062498	1.16729736328125	-2.635955810546875	-1.033782958984375	9.763554370117188	0.48662148742675776	0.15861585998535155	0.3662109375	-4.917144775390625	-2.93731689453125	10.103531005859374	0.0	-0.3435679382324219	3.60870361328125	-4.73785400390625	-2.2735595703125	
169	0.676	0.0	0.0	0.0	0.0	0.006	0.003	0.006	0.003	9.889249957275391	0.1657984649658203	0.010773907470703125	2.38800048828125	-3.48663330078125	-1.0528564453125	9.783905084228515	0.4381389038085937	0.277727392578125	0.667572021484375	-4.82177734375	-3.22723388671875	9.943718045043944	0.2920926025390625	-0.017357962036132813	3.47900390625	-4.730224609375	-2.460479736328125	
170	0.68	0.0	0.0	0.0	0.0	0.003	0.006	0.003	0.006	9.864709390258788	0.1005564697265625	0.0909796630859375	0.537872314453125	-2.506256103515625	-1.148223876953125	9.76774422302246	0.4483142608642578	0.11552023010253906	0.6256103515625	-4.878997802734375	-3.08990478515625	9.854534033203125	0.105344873046875	-0.05686228942871093	3.44085693359375	-4.459381103515625	-2.513885498046875	
171	0.684	0.0	0.0	0.0	0.0	0.003	0.003	0.003	0.003	9.82580361328125	0.1406593475341797	0.11611878051757812	2.994537353515625	-3.673553466796875	-0.732421875	9.588777648925781	0.49679684448242184	0.3274070770263672	0.865936279296875	-4.852294921875	-3.23486328125	9.798270294189452	0.39444472351074217	-0.031124621582031248	3.627777099609375	-4.49371337890625	-2.22015380859375	
172	0.6880000000000001	0.0	0.0	0.0	0.0	0.006	0.006	0.003	0.003	9.988010775756836	0.11731588134765625	-0.1149216796875	3.658294677734375	-4.61578369140625	-0.75531005859375	9.83777462158203	0.373495458984375	0.13467384338378904	0.64849853515625	-4.8980712890625	-3.0517578125	9.937732540893554	0.1580173095703125	-0.06105214233398437	3.520965576171875	-4.711151123046875	-1.857757568359375	
173	0.6920000000000001	0.0	0.0	0.0	0.0	0.003	0.003	0.003	0.006	9.818022457885741	0.20649989318847656	0.1580173095703125	3.47900390625	-4.016876220703125	-0.89263916015625	9.672574707031249	0.47165772705078124	0.3064578125	0.774383544921875	-4.726409912109375	-3.284454345703125	10.032902056884765	0.059256491088867186	-0.05087678527832031	3.7994384765625	-4.581451416015625	-2.44903564453125	
174	0.6960000000000001	0.0	0.0	0.0	0.0	0.006	0.003	0.003	0.009000000000000001	9.916184725952148	0.23044190979003906	-0.07422025146484375	3.635406494140625	-4.47845458984375	-0.934600830078125	9.707889181518555	0.4321533996582031	0.13646949462890623	0.896453857421875	-4.913330078125	-2.819061279296875	9.795277542114258	0.22206220397949217	-0.08858546142578125	3.627777099609375	-4.634857177734375	-1.953125	
175	0.7000000000000001	0.0	0.0	0.0	0.0	0.015	0.003	0.003	0.003	9.798270294189452	0.316034619140625	0.18375497741699218	3.89862060546875	-4.669189453125	-0.78582763671875	9.587580548095703	0.5249287139892578	0.35314474487304687	0.820159912109375	-4.817962646484375	-3.047943115234375	9.89463691101074	0.16699556579589842	-0.10594342346191406	3.444671630859375	-4.28009033203125	-2.254486083984375	
176	0.704	0.0	0.0	0.0	0.0	0.003	0.006	0.003	0.006	10.02392380065918	0.19213468322753904	-0.09457096557617187	3.631591796875	-4.6234130859375	-0.797271728515625	9.868899243164062	0.37409400939941406	0.08559270935058594	0.934600830078125	-5.069732666015625	-2.9754638671875	10.20827732849121	0.23523031311035156	-0.1771709228515625	3.76129150390625	-4.543304443359375	-2.017974853515625	
177	0.708	0.0	0.0	0.0	0.0	0.003	0.003	0.003	0.003	9.969455712890625	0.06883329772949218	-0.09576806640624999	4.581451416015625	-5.2337646484375	-0.926971435546875	9.898826763916015	0.5003881469726562	0.02633621826171875	1.308441162109375	-4.9591064453125	-3.108978271484375	9.963470208740233	0.05686228942871093	-0.1640028137207031	3.749847412109375	-4.589080810546875	-2.60162353515625	
178	0.712	0.0	0.0	0.0	0.0	0.0	2.091	4.605	4.551	9.931148486328125	0.17298106994628906	-0.06464344482421874	4.276275634765625	-4.99725341796875	-0.850677490234375	9.664195001220703	0.5925649108886718	0.12389993591308593	0.904083251953125	-5.34820556640625	-2.777099609375	9.855731134033203	0.4542997650146484	-0.0909796630859375	3.383636474609375	-4.512786865234375	-2.094268798828125	
179	0.716	0.0	0.0	0.0	0.0	4.569	4.614	4.626	4.569	9.941922393798828	-0.2088940948486328	-0.05327098693847656	3.719329833984375	-4.41741943359375	-0.720977783203125	9.925162982177733	0.37768531188964843	0.06883329772949218	1.2359619140625	-4.8675537109375	-2.834320068359375	10.075997686767577	-0.02454056701660156	-0.12689268798828124	3.72314453125	-4.55474853515625	-1.983642578125	
180	0.72	0.0	0.0	0.0	0.0	4.575	4.626	4.6290000000000004	4.575	9.801861596679688	-0.040701428222656245	0.19572598571777342	2.910614013671875	-3.82232666015625	-0.9613037109375	9.88386300354004	0.4686649749755859	0.23822306518554687	0.637054443359375	-4.802703857421875	-2.81524658203125	10.229226593017577	0.24001871643066405	-0.23642741394042968	3.528594970703125	-4.482269287109375	-2.00653076171875	
181	0.724	0.0	0.0	0.0	0.0	4.572	4.623	4.623	4.572	9.843161575317382	0.28311434631347654	0.010175357055664061	4.79888916015625	-5.0811767578125	-0.797271728515625	9.64623848876953	0.6242880828857421	0.21188684692382811	1.39617919921875	-4.718780517578125	-3.3721923828125	10.022726699829102	0.12689268798828124	-0.4381389038085937	3.8299560546875	-4.41741943359375	-2.201080322265625	
182	0.728	0.0	0.0	0.0	0.0	4.563	4.626	4.62	4.5840000000000005	9.710881933593749	0.21727380065917967	0.2699462371826172	3.345489501953125	-4.150390625	-0.896453857421875	9.751583361816406	0.5111620544433594	0.25139117431640623	0.7781982421875	-5.035400390625	-2.716064453125	10.0748005859375	0.4159925384521484	-0.17298106994628906	3.589630126953125	-4.852294921875	-1.888275146484375	
183	0.732	0.0	0.0	0.0	0.0	4.5840000000000005	4.626	4.6290000000000004	4.554	9.973047015380859	-0.1304839904785156	-0.05686228942871093	4.177093505859375	-4.8675537109375	-0.736236572265625	10.015544094848632	0.4273649963378906	0.017357962036132813	1.026153564453125	-5.069732666015625	-3.170013427734375	10.417769973754883	-0.12150573425292968	-0.4423287567138672	3.734588623046875	-4.5928955078125	-2.0599365234375	
184	0.736	0.0	0.0	0.0	0.0	4.581	4.6290000000000004	4.626	4.548	9.733028298950195	0.062249243164062495	0.19572598571777342	2.3345947265625	-3.39508056640625	-0.69427490234375	9.726444244384766	0.3950432739257812	0.23882161560058593	0.499725341796875	-5.08880615234375	-2.994537353515625	10.037091909790039	0.3220201232910156	-0.30406361083984373	3.65447998046875	-4.52423095703125	-2.3651123046875	
185	0.74	0.0	0.0	0.0	0.0	4.578	4.623	4.623	4.563	9.833584768676758	0.06464344482421874	0.027533319091796873	0.05340576171875	-1.94549560546875	-0.530242919921875	9.764751470947266	0.7302315063476562	0.05686228942871093	1.171112060546875	-4.962921142578125	-2.788543701171875	10.022726699829102	0.26276363220214843	-0.4991910461425781	3.83758544921875	-4.78363037109375	-1.96075439453125	
186	0.744	0.0	0.0	0.0	0.0	4.581	4.6290000000000004	4.6290000000000004	4.569	9.791087689208984	0.032920272827148434	0.21068974609375	2.960205078125	-4.344940185546875	-0.843048095703125	9.949104998779296	0.3687070556640625	0.201112939453125	1.0223388671875	-4.974365234375	-3.162384033203125	10.178349807739258	0.16160861206054686	-0.1610100616455078	3.47900390625	-4.69207763671875	-2.0904541015625	
187	0.748	0.0	0.0	0.0	0.0	4.578	4.626	4.6290000000000004	4.575	9.90122096557617	-0.16759411621093748	0.001197100830078125	0.141143798828125	-2.1514892578125	-1.171112060546875	9.956886154174803	0.296881005859375	-0.08858546142578125	1.468658447265625	-4.8828125	-3.19671630859375	10.277110626220702	0.06404489440917968	-0.3477577911376953	3.6773681640625	-4.680633544921875	-2.231597900390625	
188	0.752	0.0	0.0	0.0	0.0	4.569	4.626	4.626	4.5840000000000005	9.644442837524414	0.2214636535644531	0.28490999755859375	0.6103515625	-2.483367919921875	-0.93841552734375	9.522937103271484	0.8391676818847655	0.21009119567871093	0.732421875	-4.974365234375	-3.021240234375	9.80665	0.4860229370117187	-0.29867665710449215	3.68499755859375	-4.528045654296875	-2.117156982421875	
189	0.756	0.0	0.0	0.0	0.0	4.5840000000000005	4.626	4.614	0.003	9.815029705810547	0.05386953735351562	0.1292868896484375	0.34332275390625	-2.422332763671875	-0.396728515625	9.941922393798828	0.30047230834960936	0.11192892761230468	0.91552734375	-5.222320556640625	-2.81524658203125	10.064026678466796	0.25438392639160157	-0.22086510314941404	3.41796875	-4.85992431640625	-1.42669677734375	
190	0.76	0.0	0.0	0.0	0.0	0.006	0.006	0.006	0.003	10.012551342773437	-0.06943184814453125	-0.037708676147460936	1.399993896484375	-2.742767333984375	-1.21307373046875	9.944316595458984	0.4465186096191406	0.10474632263183593	1.171112060546875	-4.802703857421875	-3.41033935546875	10.35492218017578	0.0	-0.4070142822265625	3.726959228515625	-4.791259765625	-2.716064453125	
191	0.764	0.0	0.0	0.0	0.0	0.006	0.003	0.006	0.003	9.74200655517578	0.12090718383789062	0.10773907470703124	-0.164031982421875	-2.033233642578125	-0.988006591796875	9.643844287109374	0.5105635040283203	0.11731588134765625	0.675201416015625	-5.02777099609375	-3.444671630859375	9.861716638183593	0.3956418243408203	-0.34835634155273437	3.42559814453125	-4.596710205078125	-2.23541259765625	
192	0.768	0.0	0.0	0.0	0.0	0.0	0.006	0.006	0.003	9.772532626342773	0.04848258361816406	0.1322796417236328	-0.31280517578125	-1.697540283203125	-0.957489013671875	9.623493572998047	0.5279214660644531	0.3280056274414062	0.70953369140625	-5.126953125	-2.742767333984375	9.60194575805664	0.2807201446533203	0.0526724365234375	3.5552978515625	-4.44793701171875	-2.1820068359375	
193	0.772	0.0	0.0	0.0	0.0	0.009000000000000001	0.003	0.003	0.006	10.005368737792969	0.06344634399414062	-0.09576806640624999	2.300262451171875	-3.4942626953125	-0.70953369140625	10.008960040283203	0.2507926239013672	0.08798691101074219	0.5645751953125	-4.9285888671875	-3.322601318359375	10.486603271484375	-0.03890577697753906	-0.4878185882568359	3.650665283203125	-4.604339599609375	-2.166748046875	
194	0.776	0.0	0.0	0.0	0.0	0.003	0.003	0.003	0.006	9.963470208740233	0.1975216369628906	-0.14125789794921875	1.285552978515625	-2.75421142578125	-1.16729736328125	9.737218151855469	0.412401235961914	0.086191259765625	0.77056884765625	-4.741668701171875	-3.490447998046875	9.804255798339844	0.08200140686035155	-0.06643909606933593	3.688812255859375	-4.58526611328125	-2.64739990234375	
195	0.78	0.0	0.0	0.0	0.0	0.0	0.003	0.003	0.006	9.810839852905273	0.6194996795654296	-0.013168109130859374	3.864288330078125	-4.241943359375	-0.7476806640625	9.505579141235351	0.5865794067382812	0.35015199279785153	0.453948974609375	-4.8980712890625	-2.750396728515625	9.558251577758789	0.5458779785156249	-0.15322890625	3.574371337890625	-4.46319580078125	-2.140045166015625	
196	0.784	0.0	0.0	0.0	0.0	0.006	0.003	0.006	0.003	9.952696301269532	-0.17896657409667968	-0.00239420166015625	0.7476806640625	-2.5177001953125	-0.995635986328125	9.86291373901367	0.3268085266113281	0.21787235107421873	0.90789794921875	-5.428314208984375	-2.72369384765625	10.168174450683592	-0.0796072052001953	-0.15741875915527342	3.79180908203125	-4.66156005859375	-2.22015380859375	
197	0.788	0.0	0.0	0.0	0.0	0.003	0.006	0.003	0.003	10.071209283447265	0.11791443176269531	-0.3022679595947265	3.5247802734375	-4.32586669921875	-1.19781494140625	9.925761532592773	0.229843359375	0.004189852905273437	1.16729736328125	-4.94384765625	-3.215789794921875	10.109516510009765	-0.040701428222656245	-0.25797522888183594	3.56292724609375	-4.428863525390625	-2.429962158203125	
198	0.792	0.0	0.0	0.0	0.0	0.003	0.003	0.006	0.006	9.903016616821288	0.40581718139648437	-0.013168109130859374	5.558013916015625	-5.19561767578125	-0.7476806640625	9.42297918395996	0.6500257507324219	0.2819172454833984	0.92315673828125	-4.787445068359375	-3.147125244140625	9.750984811401366	0.4213794921875	-0.28490999755859375	3.631591796875	-4.5166015625	-2.32696533203125	
199	0.796	0.0	0.0	0.0	0.0	0.006	0.006	0.003	0.003	9.962871658325195	0.34835634155273437	-0.1322796417236328	4.09698486328125	-4.81414794921875	-0.63323974609375	9.74859060974121	0.4261678955078125	0.15023615417480468	0.9307861328125	-4.9896240234375	-2.498626708984375	9.941922393798828	0.15502455749511718	-0.07362170104980469	3.505706787109375	-4.703521728515625	-2.017974853515625	
200	0.8	0.0	0.0	0.0	0.0	0.003	0.003	0.003	0.003	10.083180291748047	0.10953472595214843	-0.1149216796875	6.4697265625	-6.526947021484375	-1.110076904296875	10.072406384277343	0.1304839904785156	0.005985504150390624	1.064300537109375	-4.8980712890625	-2.9296875	10.338162768554687	-0.08738836059570312	-0.24480711975097655	3.50189208984375	-4.40216064453125	-2.490997314453125	
201	0.804	0.0	0.0	0.0	0.0	0.006	0.003	0.003	0.006	9.944915145874022	0.4429273071289062	-0.21787235107421873	4.581451416015625	-4.82940673828125	-0.80108642578125	9.639055883789062	0.5416881256103515	0.022744915771484374	0.423431396484375	-4.421234130859375	-2.90679931640625	9.650428341674804	0.3238157745361328	-0.1562216583251953	3.7078857421875	-4.459381103515625	-2.567291259765625	
202	0.808	0.0	0.0	0.0	0.0	0.003	0.006	0.003	0.003	9.842563024902343	0.24600422058105467	0.10594342346191406	5.466461181640625	-5.6304931640625	-0.60272216796875	9.602544308471678	0.6380547424316406	0.2759317413330078	0.965118408203125	-5.435943603515625	-2.5634765625	9.75517466430664	0.4285620971679687	-0.05626373901367187	3.39508056640625	-4.413604736328125	-1.89971923828125	
203	0.812	0.0	0.0	0.0	0.0	0.003	0.003	0.003	0.003	9.903615167236328	-0.2501940734863281	0.17238251953125	4.413604736328125	-5.084991455078125	-0.63323974609375	10.008960040283203	0.17058686828613281	0.229843359375	1.079559326171875	-5.176544189453125	-2.95257568359375	10.321403356933594	-0.16220716247558592	-0.18854338073730467	3.4942626953125	-4.619598388671875	-2.14385986328125	
204	0.8160000000000001	0.0	0.0	0.0	0.0	0.006	0.006	0.006	0.003	10.064625228881836	0.24181436767578124	-0.2561795776367187	6.221771240234375	-5.74493408203125	-1.04522705078125	9.86351228942871	0.5057751007080078	-0.06464344482421874	0.95367431640625	-4.7760009765625	-2.925872802734375	10.038289010620117	0.3178302703857422	-0.3854664672851562	3.696441650390625	-4.39453125	-2.6092529296875	
205	0.8200000000000001	0.0	0.0	0.0	0.0	0.009000000000000001	0.006	0.003	0.003	9.71686743774414	0.10295067138671875	0.24959552307128904	3.734588623046875	-4.734039306640625	-0.850677490234375	9.535506661987304	0.6607996582031249	0.34237083740234375	0.9002685546875	-5.115509033203125	-2.864837646484375	9.692925421142577	0.38187516479492184	-0.13407529296874998	3.62396240234375	-4.61578369140625	-1.865386962890625	
206	0.8240000000000001	0.0	0.0	0.0	0.0	0.003	0.006	0.003	0.006	9.75517466430664	-0.2885013000488281	0.29568390502929687	0.598907470703125	-2.498626708984375	-0.827789306640625	9.936535440063476	0.23642741394042968	0.08200140686035155	1.41143798828125	-5.252838134765625	-3.05938720703125	10.237606298828124	0.14544775085449219	-0.31543606872558594	3.688812255859375	-4.85992431640625	-1.861572265625	
207	0.8280000000000001	0.0	0.0	0.0	0.0	0.0	0.003	0.003	0.003	9.962871658325195	-0.3172317199707031	0.017956512451171875	3.376007080078125	-4.253387451171875	-1.010894775390625	9.995791931152343	0.3908534210205078	0.052073886108398436	1.430511474609375	-4.924774169921875	-3.37982177734375	10.351929428100584	-0.020949264526367185	-0.5129577056884765	3.650665283203125	-4.680633544921875	-2.422332763671875	
208	0.8320000000000001	0.0	0.0	0.0	0.0	0.003	0.006	0.003	0.003	9.700108026123047	0.18375497741699218	0.24181436767578124	0.225067138671875	-1.8310546875	-1.003265380859375	9.606734161376952	0.6470329986572265	0.21966800231933592	1.033782958984375	-4.94384765625	-3.28826904296875	9.795876092529296	0.4626794708251953	-0.28311434631347654	3.71551513671875	-4.608154296875	-2.40325927734375	
209	0.836	0.0	0.0	0.0	0.0	0.003	0.006	0.003	0.006	9.692925421142577	-0.11133037719726561	0.4477157104492187	2.681732177734375	-3.753662109375	-0.774383544921875	9.797671743774414	0.3022679595947265	0.3956418243408203	0.675201416015625	-4.8828125	-2.552032470703125	9.911396322631836	0.3381809844970703	-0.027533319091796873	3.4637451171875	-4.85992431640625	-1.617431640625	
210	0.84	0.0	0.0	0.0	0.0	0.003	0.003	0.003	0.006	9.997587582397461	-0.31004911499023435	-0.009576806640625	0.17547607421875	-2.117156982421875	-1.163482666015625	10.128071572875976	0.42975919799804685	-0.015562310791015624	1.285552978515625	-5.054473876953125	-3.238677978515625	10.47702646484375	0.06763619689941405	-0.5398924743652344	3.543853759765625	-4.589080810546875	-2.735137939453125	
211	0.844	0.0	0.0	0.0	0.0	0.003	0.003	0.006	0.003	9.944915145874022	0.25797522888183594	-0.05327098693847656	0.827789306640625	-2.47955322265625	-1.316070556640625	9.712079034423828	0.4950011932373047	0.21188684692382811	0.57220458984375	-4.50897216796875	-3.177642822265625	9.95389340209961	0.3555389465332031	-0.2154781494140625	3.387451171875	-4.49371337890625	-1.934051513671875	
212	0.848	0.0	0.0	0.0	0.0	0.006	0.003	0.003	0.003	9.699509475708007	0.17178396911621094	0.29867665710449215	-0.5035400390625	-1.76239013671875	-0.743865966796875	9.654019644165038	0.6452373474121094	0.29448680419921874	1.19781494140625	-4.985809326171875	-2.7008056640625	9.7683427734375	0.2771288421630859	-0.18076222534179687	3.448486328125	-4.63104248046875	-2.105712890625	
213	0.852	0.0	0.0	0.0	0.0	0.003	0.003	0.003	0.003	9.964667309570311	0.13646949462890623	-0.0017956512451171875	2.15911865234375	-3.490447998046875	-1.10626220703125	9.961076007080077	0.2932897033691406	0.12150573425292968	0.48828125	-5.023956298828125	-2.872467041015625	10.326191760253906	0.14185644836425781	-0.30885201416015623	3.41033935546875	-4.878997802734375	-1.499176025390625	
214	0.856	0.0	0.0	0.0	0.0	0.006	0.003	0.003	0.006	9.97843396911621	0.08738836059570312	-0.15322890625	3.5858154296875	-4.451751708984375	-1.201629638671875	9.882067352294921	0.5051765502929687	-0.040102877807617184	1.09100341796875	-5.146026611328125	-3.055572509765625	10.20887587890625	-0.03232172241210937	-0.4255693450927734	3.7384033203125	-4.390716552734375	-2.349853515625	
215	0.86	0.0	0.0	0.0	0.0	0.006	0.003	0.003	0.003	9.78629928588867	0.1610100616455078	0.1580173095703125	1.5106201171875	-3.18145751953125	-0.774383544921875	9.515155947875977	0.5985504150390625	0.3920505218505859	0.774383544921875	-5.24139404296875	-2.98309326171875	9.78629928588867	0.5225345123291015	-0.13287819213867186	3.85284423828125	-4.8065185546875	-1.705169677734375	
216	0.864	0.0	0.0	0.0	0.0	0.003	0.006	0.003	0.006	9.756970315551758	0.2741360900878906	0.2442085693359375	2.9449462890625	-3.9520263671875	-0.339508056640625	9.776123928833007	0.5345055206298828	0.19812018737792966	1.15203857421875	-5.374908447265625	-3.02886962890625	10.077793338012695	0.05805939025878906	-0.23223756103515625	3.41033935546875	-5.0506591796875	-1.987457275390625	
217	0.868	0.0	0.0	0.0	0.0	0.003	0.003	0.003	0.003	10.029310754394531	0.14125789794921875	-0.1610100616455078	2.38800048828125	-3.726959228515625	-1.140594482421875	9.93354268798828	0.3142389678955078	0.08379705810546874	0.789642333984375	-4.802703857421875	-3.265380859375	10.174159954833984	0.229843359375	-0.1849520782470703	3.662109375	-4.329681396484375	-2.658843994140625	
218	0.872	0.0	0.0	0.0	0.0	0.006	0.003	0.006	0.006	9.77492682800293	0.4052186309814453	0.16819266662597654	3.185272216796875	-3.688812255859375	-1.1444091796875	9.649829791259766	0.6021417175292968	0.2292448089599609	1.125335693359375	-4.619598388671875	-3.19671630859375	9.935936889648437	0.18255787658691405	-0.3184288208007812	3.635406494140625	-4.810333251953125	-2.246856689453125	
219	0.876	0.0	0.0	0.0	0.0	0.003	0.003	0.003	0.006	9.71028338317871	0.3363853332519531	0.3591302490234375	2.9754638671875	-4.08172607421875	-0.732421875	9.528922607421874	0.5620388397216797	0.48183308410644526	1.018524169921875	-4.985809326171875	-3.1280517578125	9.627084875488281	0.4674678741455078	0.18136077575683593	3.589630126953125	-4.688262939453125	-2.315521240234375	
220	0.88	0.0	0.0	0.0	0.0	-0.003	0.003	0.003	0.009000000000000001	9.97125136413574	0.11851298217773437	-0.052073886108398436	2.25067138671875	-3.24249267578125	-0.843048095703125	9.986215124511718	0.2561795776367187	-0.0047884033203125	1.094818115234375	-5.031585693359375	-2.864837646484375	10.120290417480469	0.07781155395507812	-0.16220716247558592	3.787994384765625	-4.665374755859375	-2.025604248046875	
221	0.884	0.0	0.0	0.0	0.0	0.003	0.003	0.003	0.003	9.962273107910155	0.1640028137207031	0.016759411621093748	3.63922119140625	-4.15802001953125	-0.885009765625	9.743802206420899	0.535702621459961	0.15263035583496093	0.934600830078125	-4.665374755859375	-3.337860107421875	10.02990930480957	0.24001871643066405	-0.2519897247314453	3.604888916015625	-4.459381103515625	-2.5482177734375	
222	0.888	0.0	0.0	0.0	0.0	0.003	0.006	0.006	0.006	9.743802206420899	0.4944026428222656	0.1657984649658203	2.685546875	-3.9215087890625	-0.972747802734375	9.527725506591796	0.5003881469726562	0.2914940521240234	1.068115234375	-4.90570068359375	-2.964019775390625	9.5630399810791	0.3315969299316406	0.11252747802734374	3.643035888671875	-4.611968994140625	-1.911163330078125	
223	0.892	0.0	0.0	0.0	0.0	0.006	0.006	0.003	0.006	9.942520944213866	0.15562310791015624	0.09696516723632811	4.63104248046875	-4.962921142578125	-0.92315673828125	9.827599264526366	0.4782417816162109	0.1484405029296875	0.87738037109375	-5.168914794921875	-2.857208251953125	10.034099157714843	0.1879448303222656	-0.22026655273437498	3.88336181640625	-4.657745361328125	-2.285003662109375	
224	0.896	0.0	0.0	0.0	0.0	0.003	0.003	0.006	0.003	10.08078609008789	-0.1753752716064453	-0.12868833923339842	4.24957275390625	-4.8675537109375	-0.766754150390625	9.9981861328125	0.3633201019287109	-0.09277531433105468	1.110076904296875	-5.077362060546875	-3.101348876953125	10.230423693847655	0.03890577697753906	-0.3082534637451172	3.681182861328125	-4.558563232421875	-2.162933349609375	
225	0.9	0.0	0.0	0.0	0.0	0.006	0.003	0.006	0.003	9.765350021362304	0.4207809417724609	0.22026655273437498	4.180908203125	-4.558563232421875	-0.804901123046875	9.541492166137695	0.49380409240722656	0.3537432952880859	1.03759765625	-4.833221435546875	-3.204345703125	9.785102185058593	0.17896657409667968	-0.05327098693847656	3.59344482421875	-4.3182373046875	-2.490997314453125	
226	0.904	0.0	0.0	0.0	0.0	0.006	0.003	0.006	0.003	9.874884747314452	0.22266075439453123	0.12808978881835936	3.99017333984375	-4.947662353515625	-0.896453857421875	9.753977563476562	0.5494692810058593	0.21906945190429686	0.743865966796875	-5.161285400390625	-2.66265869140625	9.854534033203125	0.36092590026855464	-0.15203180541992187	3.604888916015625	-3.9825439453125	-1.800537109375	
227	0.908	0.0	0.0	0.0	0.0	0.006	0.003	0.003	0.003	10.062829577636718	-0.023942016601562498	-0.1562216583251953	3.528594970703125	-4.364013671875	-1.079559326171875	10.008960040283203	0.3327940307617187	0.008978256225585938	0.6561279296875	-4.82940673828125	-2.960205078125	10.347141024780273	-0.10354922180175781	-0.35194764404296874	3.692626953125	-4.566192626953125	-2.349853515625	
228	0.912	0.0	0.0	0.0	0.0	0.003	3.306	4.617	4.578	9.910797772216796	-0.005985504150390624	0.0053869537353515625	3.936767578125	-4.482269287109375	-0.9307861328125	9.78629928588867	0.3327940307617187	0.26695348510742184	0.888824462890625	-4.871368408203125	-3.429412841796875	10.058041174316406	0.24779987182617186	-0.2501940734863281	3.543853759765625	-4.2266845703125	-2.37274169921875	
229	0.916	0.0	0.0	0.0	0.0	4.578	4.62	4.614	4.566	9.733626849365233	0.09516951599121093	0.18914193115234373	2.483367919921875	-3.448486328125	-0.58746337890625	9.604938510131836	0.5817910034179687	0.19393033447265623	1.3580322265625	-4.95147705078125	-2.960205078125	9.766547122192382	0.27174188842773433	-0.14903905334472656	3.47900390625	-4.535675048828125	-2.063751220703125	
230	0.92	0.0	0.0	0.0	0.0	4.581	4.626	4.626	4.551	10.02332525024414	-0.08140285644531249	-0.06763619689941405	4.12750244140625	-4.985809326171875	-0.675201416015625	10.049661468505859	0.33758243408203126	0.0796072052001953	0.743865966796875	-4.871368408203125	-2.689361572265625	10.269928021240235	0.22864625854492185	-0.36750995483398435	3.551483154296875	-4.779815673828125	-1.842498779296875	
231	0.924	0.0	0.0	0.0	0.0	4.5840000000000005	4.626	4.623	4.545	9.91438907470703	-0.07302315063476562	-0.015562310791015624	3.37982177734375	-4.21905517578125	-1.28173828125	9.94671079711914	0.29388825378417965	0.025737667846679687	1.18255615234375	-4.9591064453125	-3.459930419921875	10.32379755859375	-0.1484405029296875	-0.39863457641601563	3.509521484375	-4.360198974609375	-2.246856689453125	
232	0.928	0.0	0.0	0.0	0.0	4.578	4.62	4.626	4.563	9.662399349975585	0.10354922180175781	0.20709844360351562	1.434326171875	-3.009796142578125	-0.7476806640625	9.627683425903319	0.5686228942871093	0.25258827514648435	0.782012939453125	-4.970550537109375	-2.75421142578125	9.777919580078125	0.59376201171875	-0.31962592163085934	3.711700439453125	-4.596710205078125	-2.0904541015625	
233	0.932	0.0	0.0	0.0	0.0	4.578	4.632	4.6290000000000004	4.575	9.861118087768554	-0.07900865478515624	0.08918401184082031	2.2125244140625	-3.53240966796875	-0.720977783203125	9.860519537353515	0.5033808990478515	0.06703764648437499	1.049041748046875	-5.18798828125	-2.69317626953125	10.049661468505859	0.14544775085449219	-0.3495534423828125	3.429412841796875	-4.573822021484375	-1.56402587890625	
234	0.936	0.0	0.0	0.0	0.0	4.578	4.626	4.626	4.575	9.87668039855957	0.0053869537353515625	0.02693476867675781	2.349853515625	-3.513336181640625	-1.148223876953125	9.995791931152343	0.2855085479736328	0.0383072265625	0.78582763671875	-5.023956298828125	-2.87628173828125	10.345345373535155	-0.0430956298828125	-0.3633201019287109	3.5247802734375	-4.512786865234375	-2.20489501953125	
235	0.9400000000000001	0.0	0.0	0.0	0.0	4.563	4.623	4.623	4.5840000000000005	9.83837317199707	0.10654197387695312	0.006584054565429687	2.712249755859375	-3.56292724609375	-0.980377197265625	9.656413845825195	0.6272808349609375	0.1322796417236328	1.247406005859375	-5.21087646484375	-3.055572509765625	9.910199221801758	0.24301146850585936	-0.3908534210205078	3.650665283203125	-4.5166015625	-2.162933349609375	
236	0.9440000000000001	0.0	0.0	0.0	0.0	4.5840000000000005	4.623	4.626	4.563	9.664793551635741	0.1149216796875	0.2424129180908203	2.063751220703125	-3.30352783203125	-0.70953369140625	9.606734161376952	0.6165069274902344	0.26276363220214843	0.537872314453125	-4.98199462890625	-2.674102783203125	9.821613760375977	0.3489548919677734	-0.2154781494140625	3.509521484375	-4.703521728515625	-1.99127197265625	
237	0.9480000000000001	0.0	0.0	0.0	0.0	4.575	4.6290000000000004	4.6290000000000004	4.548	9.930549935913085	-0.16160861206054686	0.018555062866210937	0.72479248046875	-2.750396728515625	-0.8087158203125	9.991003527832031	0.2561795776367187	0.03651157531738281	1.422882080078125	-5.22613525390625	-3.177642822265625	10.308235247802735	-0.11192892761230468	-0.29867665710449215	3.490447998046875	-4.886627197265625	-2.05230712890625	
238	0.9520000000000001	0.0	0.0	0.0	0.0	4.5840000000000005	4.623	4.623	4.551	9.789292037963866	0.12868833923339842	0.09935936889648436	2.323150634765625	-3.265380859375	-1.224517822265625	9.753379013061522	0.5680243438720702	0.0987608184814453	1.049041748046875	-4.82940673828125	-3.070831298828125	10.107720858764647	0.18136077575683593	-0.3591302490234375	3.47900390625	-4.520416259765625	-2.330780029296875	
239	0.9560000000000001	0.0	0.0	0.0	0.0	4.5840000000000005	0.006	0.003	0.003	9.689932669067382	0.2813186950683594	0.19692308654785154	1.30462646484375	-2.93731689453125	-0.804901123046875	9.573813888549804	0.6159083770751953	0.24001871643066405	1.064300537109375	-4.93621826171875	-3.07464599609375	9.773131176757811	0.4381389038085937	-0.24361001892089842	3.3721923828125	-4.459381103515625	-1.995086669921875	
240	0.96	0.0	0.0	0.0	0.0	0.003	0.003	0.003	0.006	9.84555577697754	-0.05746083984375	0.13287819213867186	1.598358154296875	-3.36456298828125	-0.865936279296875	9.841365924072266	0.40282442932128903	0.1484405029296875	0.91552734375	-4.947662353515625	-2.98309326171875	10.141838232421874	0.062249243164062495	-0.10714052429199218	3.620147705078125	-4.6844482421875	-2.22015380859375	
241	0.964	0.0	0.0	0.0	0.0	0.003	0.006	0.003	0.003	9.93952819213867	0.03950432739257812	0.0053869537353515625	1.644134521484375	-3.0670166015625	-1.163482666015625	9.920374578857421	0.3968389251708984	0.07362170104980469	1.224517822265625	-4.787445068359375	-3.21197509765625	10.219051235961913	0.1197100830078125	-0.37229835815429685	3.719329833984375	-4.497528076171875	-2.429962158203125	
242	0.968	0.0	0.0	0.0	0.0	0.003	0.003	0.003	0.006	9.7545761138916	0.2867056488037109	0.105344873046875	2.193450927734375	-3.269195556640625	-1.0833740234375	9.568426934814452	0.6057330200195312	0.2555810272216797	1.003265380859375	-5.10406494140625	-3.238677978515625	9.720458740234374	0.28969840087890625	-0.10654197387695312	3.650665283203125	-4.50897216796875	-2.292633056640625	
243	0.972	0.0	0.0	0.0	0.0	0.006	0.003	0.003	0.006	9.835380419921874	0.11911153259277343	0.16160861206054686	1.033782958984375	-2.38037109375	-0.66375732421875	9.657012396240233	0.45190556335449217	0.2472013214111328	0.91552734375	-5.443572998046875	-2.777099609375	9.996390481567381	0.25258827514648435	-0.27293898925781246	3.826141357421875	-4.978179931640625	-1.8310546875	
244	0.976	0.0	0.0	0.0	0.0	0.003	0.003	0.006	0.003	9.975441217041014	-0.009576806640625	-0.03890577697753906	2.269744873046875	-3.452301025390625	-0.885009765625	9.964667309570311	0.35134909362792965	0.04369418029785156	0.9002685546875	-4.638671875	-3.177642822265625	10.153809240722655	-0.02633621826171875	-0.24061726684570311	3.7841796875	-4.909515380859375	-2.5634765625	
245	0.98	0.0	0.0	0.0	0.0	0.0	0.003	0.006	0.003	10.00417163696289	0.16041151123046873	-0.16699556579589842	3.31878662109375	-4.24957275390625	-0.942230224609375	9.732429748535155	0.4513070129394531	0.09816226806640624	0.988006591796875	-5.016326904296875	-3.108978271484375	9.980229620361328	0.21068974609375	-0.2346317626953125	3.5400390625	-4.459381103515625	-2.38800048828125	
246	0.984	0.0	0.0	0.0	0.0	0.003	0.003	0.003	0.006	9.76774422302246	0.3746925598144531	0.16998831787109375	2.72369384765625	-3.650665283203125	-0.705718994140625	9.576806640625	0.5829881042480468	0.24361001892089842	0.9765625	-4.8980712890625	-3.032684326171875	9.718064538574218	0.28371289672851563	-0.034715924072265626	3.650665283203125	-4.306793212890625	-1.9378662109375	
247	0.988	0.0	0.0	0.0	0.0	0.003	0.006	0.003	0.006	10.018536846923828	0.17178396911621094	-0.0987608184814453	4.642486572265625	-5.25665283203125	-0.86212158203125	9.950302099609374	0.22206220397949217	0.08439560852050781	1.232147216796875	-5.245208740234375	-2.84576416015625	10.12567737121582	0.11611878051757812	-0.23044190979003906	3.795623779296875	-4.711151123046875	-2.05230712890625	
248	0.992	0.0	0.0	0.0	0.0	0.003	0.003	0.006	0.003	9.894038360595703	0.17238251953125	0.015562310791015624	3.0975341796875	-3.35693359375	-0.988006591796875	9.87608184814453	0.40282442932128903	0.06045359191894531	0.7781982421875	-4.726409912109375	-3.177642822265625	10.024522351074218	0.12868833923339842	-0.22086510314941404	3.5247802734375	-4.245758056640625	-2.185821533203125	
249	0.996	0.0	0.0	0.0	0.0	0.003	0.003	0.006	0.006	9.832986218261718	0.3938461730957031	-0.015562310791015624	3.90625	-4.47845458984375	-0.946044921875	9.552864624023437	0.6081272216796875	0.2753331909179687	0.797271728515625	-5.0506591796875	-2.83050537109375	9.711480484008788	0.3477577911376953	-0.06344634399414062	3.60107421875	-4.123687744140625	-2.28118896484375	
250	1.0	0.0	0.0	0.0	0.0	0.006	0.003	0.003	0.003	9.900023864746093	0.1406593475341797	-0.016759411621093748	4.43267822265625	-4.924774169921875	-0.888824462890625	9.81862100830078	0.4064157318115234	0.1149216796875	0.885009765625	-5.14984130859375	-2.8839111328125	9.995791931152343	0.3058592620849609	-0.1849520782470703	3.627777099609375	-4.44793701171875	-2.06756591796875	
251	1.004	0.0	0.0	0.0	0.0	0.006	0.003	0.006	0.006	10.067019430541992	-0.025737667846679687	-0.2041056915283203	4.253387451171875	-4.665374755859375	-0.736236572265625	10.01015714111328	0.36391865234375	0.044891281127929686	0.789642333984375	-5.096435546875	-2.75421142578125	10.230423693847655	0.02454056701660156	-0.3076549133300781	3.612518310546875	-4.642486572265625	-2.4566650390625	
252	1.008	0.0	0.0	0.0	0.0	0.003	0.003	0.006	0.009000000000000001	9.877877499389648	0.062249243164062495	-0.05386953735351562	3.742218017578125	-4.58526611328125	-0.9765625	9.632471829223633	0.6260837341308594	0.21068974609375	1.4495849609375	-5.245208740234375	-3.215789794921875	9.89523546142578	0.3327940307617187	-0.17357962036132812	3.795623779296875	-4.7760009765625	-2.26593017578125	
253	1.012	0.0	0.0	0.0	0.0	0.003	0.003	0.003	0.006	9.903016616821288	0.3172317199707031	-0.011372457885742187	2.2735595703125	-3.490447998046875	-0.881195068359375	9.720458740234374	0.4525041137695312	0.17357962036132812	0.751495361328125	-4.92095947265625	-2.544403076171875	9.871293444824218	0.28909985046386716	-0.20171148986816406	3.559112548828125	-4.50897216796875	-2.03704833984375	
254	1.016	0.0	0.0	0.0	0.0	0.0	0.006	0.003	0.003	10.005967288208007	-0.12330138549804687	-0.09157821350097656	4.4708251953125	-4.955291748046875	-0.67901611328125	9.968258612060547	0.4626794708251953	0.04189852905273437	1.1444091796875	-5.069732666015625	-2.90679931640625	10.307038146972655	0.10295067138671875	-0.29927520751953124	3.4942626953125	-4.57000732421875	-2.09808349609375	
255	1.02	0.0	0.0	0.0	0.0	0.003	0.003	0.003	0.006	9.777321029663085	0.025737667846679687	0.2442085693359375	3.021240234375	-3.871917724609375	-1.010894775390625	9.78031378173828	0.4632780212402344	0.1370680450439453	0.93841552734375	-4.833221435546875	-3.3416748046875	10.09395419921875	0.059256491088867186	-0.24181436767578124	3.51715087890625	-4.261016845703125	-2.269744873046875	
256	1.024	0.0	0.0	0.0	0.0	0.006	0.003	0.003	0.006	9.787496386718749	0.16041151123046873	0.086191259765625	3.376007080078125	-4.45556640625	-0.667572021484375	9.660603698730467	0.6566098052978515	0.14125789794921875	1.247406005859375	-5.02777099609375	-2.811431884765625	9.860519537353515	0.43933600463867184	-0.2663549346923828	3.803253173828125	-4.60052490234375	-1.983642578125	
257	1.028	0.0	0.0	0.0	0.0	0.003	0.003	0.003	0.006	9.73661960144043	-0.04189852905273437	0.3286041778564453	2.43377685546875	-3.875732421875	-0.6561279296875	9.80605144958496	0.4950011932373047	0.2454056701660156	0.766754150390625	-5.100250244140625	-3.032684326171875	10.209474429321288	0.05985504150390625	-0.28431144714355466	3.6773681640625	-4.47845458984375	-2.079010009765625	
258	1.032	0.0	0.0	0.0	0.0	0.006	0.006	0.003	0.006	9.90840357055664	0.05027823486328125	0.09038111267089843	0.70953369140625	-2.231597900390625	-1.06048583984375	9.910797772216796	0.4381389038085937	0.061650692749023434	1.232147216796875	-4.5928955078125	-3.429412841796875	10.205284576416014	0.1131260284423828	-0.3190273712158203	3.643035888671875	-4.4708251953125	-2.307891845703125	
259	1.036	0.0	0.0	0.0	0.0	0.006	0.006	0.003	0.003	9.655815295410155	0.20829554443359374	0.35314474487304687	1.705169677734375	-3.086090087890625	-1.0986328125	9.585784896850585	0.6374561920166015	0.2693476867675781	0.9918212890625	-4.932403564453125	-3.08990478515625	9.847949978637695	0.3076549133300781	-0.20649989318847656	3.66973876953125	-4.711151123046875	-1.857757568359375	
260	1.04	0.0	0.0	0.0	0.0	0.006	0.006	0.003	0.006	9.812036953735351	0.017956512451171875	0.17178396911621094	-0.19073486328125	-1.911163330078125	-0.83160400390625	9.751583361816406	0.55545478515625	0.201112939453125	0.766754150390625	-4.909515380859375	-2.58636474609375	10.046070166015625	0.2747346405029297	-0.3142389678955078	3.83758544921875	-4.69207763671875	-1.819610595703125	
261	1.044	0.0	0.0	0.0	0.0	0.003	0.006	0.006	0.006	9.859322436523437	0.023942016601562498	0.1388636962890625	2.307891845703125	-3.368377685546875	-0.926971435546875	9.910199221801758	0.38187516479492184	0.15682020874023436	0.61798095703125	-5.035400390625	-3.22723388671875	10.232817895507813	0.004189852905273437	-0.2519897247314453	3.387451171875	-4.57000732421875	-1.9073486328125	
262	1.048	0.0	0.0	0.0	0.0	0.009000000000000001	0.006	0.003	0.003	9.871293444824218	0.14245499877929688	0.047285482788085934	1.3427734375	-2.620697021484375	-0.873565673828125	9.7545761138916	0.526125814819336	0.11911153259277343	0.789642333984375	-4.726409912109375	-2.89154052734375	9.9215716796875	0.33399113159179683	-0.2980781066894531	3.429412841796875	-5.04302978515625	-2.3345947265625	
263	1.052	0.0	0.0	0.0	0.0	0.003	0.006	0.006	0.003	9.827000714111328	0.10354922180175781	0.11372457885742186	1.956939697265625	-3.276824951171875	-0.64849853515625	9.641450085449218	0.5829881042480468	0.27174188842773433	0.96893310546875	-4.9896240234375	-3.082275390625	9.90122096557617	0.31064766540527344	-0.20231004028320312	3.2958984375	-4.871368408203125	-1.83868408203125	
264	1.056	0.0	0.0	0.0	0.0	0.006	0.006	0.006	0.003	9.904213717651366	0.0047884033203125	0.047285482788085934	1.38092041015625	-2.849578857421875	-0.858306884765625	9.955090502929687	0.4225765930175781	0.044292730712890624	1.13677978515625	-5.146026611328125	-3.11279296875	10.148422286987303	0.044891281127929686	-0.29089550170898437	3.559112548828125	-4.5928955078125	-2.239227294921875	
265	1.06	0.0	0.0	0.0	0.0	0.003	0.003	0.003	0.006	9.955090502929687	0.10893617553710937	-0.05686228942871093	2.2125244140625	-3.3111572265625	-1.186370849609375	9.852738381958007	0.38845921936035155	0.1322796417236328	0.9765625	-4.871368408203125	-3.276824951171875	10.083778842163085	0.20829554443359374	-0.2759317413330078	3.5552978515625	-4.69207763671875	-2.35748291015625	
266	1.064	0.0	0.0	0.0	0.0	0.006	0.003	0.006	0.003	9.746196408081055	0.0987608184814453	0.27892449340820313	2.567291259765625	-3.60870361328125	-0.980377197265625	9.657012396240233	0.6093243225097655	0.22505495605468748	0.885009765625	-4.787445068359375	-3.021240234375	9.86411083984375	0.24660277099609373	-0.23223756103515625	3.7689208984375	-4.730224609375	-2.086639404296875	
267	1.068	0.0	0.0	0.0	0.0	0.0	0.003	0.006	0.003	9.848548529052733	0.037110125732421874	0.054468087768554684	1.125335693359375	-2.9754638671875	-0.90789794921875	9.822212310791015	0.4255693450927734	0.21188684692382811	0.988006591796875	-4.9591064453125	-2.979278564453125	9.86411083984375	0.27174188842773433	-0.031124621582031248	3.574371337890625	-4.608154296875	-2.23541259765625	
268	1.072	0.0	0.0	0.0	0.0	0.003	0.003	0.003	0.006	9.983222372436522	0.16280571289062498	-0.12629413757324218	2.643585205078125	-3.76129150390625	-0.926971435546875	9.90122096557617	0.3345896820068359	0.07541735229492187	0.980377197265625	-5.126953125	-3.314971923828125	10.168773001098632	0.0383072265625	-0.34237083740234375	3.7078857421875	-4.657745361328125	-2.429962158203125	
269	1.076	0.0	0.0	0.0	0.0	0.003	0.003	0.003	0.006	9.811438403320311	0.025139117431640625	0.06823474731445311	1.12152099609375	-2.864837646484375	-0.988006591796875	9.6917283203125	0.5099649536132812	0.22864625854492185	0.766754150390625	-4.87518310546875	-3.177642822265625	9.880870251464843	0.26815058593749996	-0.18255787658691405	3.70025634765625	-4.50897216796875	-2.3345947265625	
270	1.08	0.0	0.0	0.0	0.0	0.006	0.006	0.003	0.006	9.859322436523437	0.19692308654785154	-0.03950432739257812	2.490997314453125	-3.864288330078125	-0.732421875	9.680954412841796	0.5267243652343749	0.22565350646972654	0.919342041015625	-5.268096923828125	-2.70843505859375	9.926360083007811	0.22266075439453123	-0.28490999755859375	3.482818603515625	-4.566192626953125	-1.934051513671875	
271	1.084	0.0	0.0	0.0	0.0	0.006	0.003	0.003	0.003	9.986215124511718	0.0939724151611328	0.008978256225585938	4.5318603515625	-5.069732666015625	-0.972747802734375	9.83178911743164	0.29568390502929687	0.201112939453125	0.75531005859375	-5.092620849609375	-3.040313720703125	10.096348400878906	0.12330138549804687	-0.2232593048095703	3.753662109375	-4.695892333984375	-2.3345947265625	
272	1.088	0.0	0.0	0.0	0.0	0.003	0.006	0.003	0.003	9.94012674255371	0.14185644836425781	-0.13646949462890623	3.0517578125	-4.169464111328125	-1.16729736328125	9.772532626342773	0.4339490509033203	0.08379705810546874	0.93841552734375	-5.08880615234375	-2.96783447265625	10.071209283447265	0.10235212097167969	-0.17657237243652343	3.574371337890625	-4.45556640625	-2.14385986328125	
273	1.092	0.0	0.0	0.0	0.0	0.003	0.006	0.003	0.006	9.841964474487304	0.26755203552246093	0.09995791931152344	3.9825439453125	-4.39453125	-0.537872314453125	9.611522564697266	0.5482721801757812	0.28730419921875	0.81634521484375	-5.0048828125	-3.269195556640625	9.750984811401366	0.32501287536621093	-0.05566518859863281	3.696441650390625	-4.52423095703125	-2.3193359375	
274	1.096	0.0	0.0	0.0	0.0	0.003	0.003	0.003	0.003	9.941922393798828	0.17058686828613281	-0.07122749938964844	2.6092529296875	-3.85284423828125	-0.858306884765625	9.85752678527832	0.38187516479492184	0.09337386474609374	0.881195068359375	-4.85992431640625	-2.506256103515625	10.007762939453125	0.18555062866210936	-0.07781155395507812	3.570556640625	-4.41741943359375	-1.773834228515625	
275	1.1	0.0	0.0	0.0	0.0	0.003	0.006	4.518	4.575	9.991003527832031	0.017357962036132813	-0.08858546142578125	4.077911376953125	-4.428863525390625	-1.041412353515625	9.816825357055663	0.36152445068359373	0.201112939453125	0.8544921875	-5.06591796875	-3.30352783203125	10.28549033203125	-0.03651157531738281	-0.33758243408203126	3.810882568359375	-4.5166015625	-2.2125244140625	
276	1.104	0.0	0.0	0.0	0.0	4.575	4.623	4.6290000000000004	4.566	9.805452899169921	0.16819266662597654	0.1657984649658203	3.711700439453125	-4.43267822265625	-0.675201416015625	9.67137760620117	0.5057751007080078	0.19812018737792966	0.576019287109375	-5.023956298828125	-3.116607666015625	9.78031378173828	0.33578678283691404	-0.006584054565429687	3.5247802734375	-4.444122314453125	-2.02178955078125	
277	1.108	0.0	0.0	0.0	0.0	4.578	4.626	4.626	4.551	9.883264453125	0.11192892761230468	0.023343466186523436	3.326416015625	-4.299163818359375	-0.774383544921875	9.732429748535155	0.5195417602539062	0.17836802368164062	1.209259033203125	-5.0048828125	-2.979278564453125	9.94671079711914	0.15861585998535155	-0.17657237243652343	3.894805908203125	-4.63104248046875	-2.033233642578125	
278	1.112	0.0	0.0	0.0	0.0	4.587	4.623	4.626	4.545	9.923965881347655	-0.07362170104980469	0.05985504150390625	3.47137451171875	-4.364013671875	-0.81634521484375	9.943718045043944	0.2885013000488281	0.05327098693847656	0.93841552734375	-5.077362060546875	-2.89154052734375	10.283096130371094	0.105344873046875	-0.37708676147460934	3.604888916015625	-4.791259765625	-1.964569091796875	
279	1.116	0.0	0.0	0.0	0.0	4.581	4.62	4.6290000000000004	4.575	9.917980377197265	0.17896657409667968	0.0143652099609375	2.040863037109375	-3.47137451171875	-1.1749267578125	9.801263046264648	0.5345055206298828	0.09995791931152344	1.018524169921875	-4.66156005859375	-3.2501220703125	10.034099157714843	0.16220716247558592	-0.30406361083984373	3.63922119140625	-4.390716552734375	-2.471923828125	
280	1.12	0.0	0.0	0.0	0.0	4.578	4.6290000000000004	4.632	4.575	9.78689783630371	0.18614917907714842	0.22744915771484372	3.452301025390625	-4.199981689453125	-1.01470947265625	9.568426934814452	0.5877765075683593	0.3016694091796875	0.926971435546875	-5.008697509765625	-2.8228759765625	9.808445651245117	0.3854664672851562	-0.11731588134765625	3.452301025390625	-4.28009033203125	-2.1820068359375	
281	1.124	0.0	0.0	0.0	0.0	4.572	4.623	4.623	4.575	9.899425314331054	-0.1514332550048828	0.0047884033203125	1.979827880859375	-3.5858154296875	-0.911712646484375	9.922768780517577	0.3459621398925781	0.08798691101074219	1.48773193359375	-5.14984130859375	-3.101348876953125	10.140042581176758	0.06643909606933593	-0.26336218261718747	3.5552978515625	-4.520416259765625	-2.09808349609375	
282	1.1280000000000001	0.0	0.0	0.0	0.0	4.572	4.623	4.62	4.5840000000000005	9.891644158935547	0.12090718383789062	0.0796072052001953	3.39508056640625	-4.192352294921875	-0.789642333984375	9.808445651245117	0.4908113403320312	0.10474632263183593	0.70953369140625	-4.8065185546875	-3.139495849609375	10.137648379516602	0.1927332336425781	-0.3489548919677734	3.5247802734375	-4.4708251953125	-2.51007080078125	
283	1.1320000000000001	0.0	0.0	0.0	0.0	4.5840000000000005	4.626	4.6290000000000004	4.5600000000000005	9.835978970336914	0.239420166015625	0.032920272827148434	2.5177001953125	-3.505706787109375	-0.766754150390625	9.694122521972655	0.5363011718749999	0.15861585998535155	0.9765625	-5.035400390625	-3.139495849609375	9.85692823486328	0.2825157958984375	-0.2166752502441406	3.505706787109375	-4.291534423828125	-2.0294189453125	
284	1.1360000000000001	0.0	0.0	0.0	0.0	4.581	4.6290000000000004	4.6290000000000004	4.551	9.846154327392577	0.0526724365234375	0.11671733093261719	2.3651123046875	-3.90625	-0.812530517578125	9.776123928833007	0.39743747558593745	0.1849520782470703	0.667572021484375	-5.039215087890625	-2.689361572265625	10.086173043823242	0.22086510314941404	-0.2932897033691406	3.631591796875	-4.60052490234375	-2.140045166015625	
285	1.1400000000000001	0.0	0.0	0.0	0.0	4.5840000000000005	4.626	4.626	4.554	9.96586441040039	-0.13108254089355467	-0.09935936889648436	1.5869140625	-3.1890869140625	-0.8392333984375	9.980229620361328	0.44053310546874996	-0.07781155395507812	1.430511474609375	-5.33294677734375	-3.093719482421875	10.289081634521484	0.062249243164062495	-0.47764323120117186	3.53240966796875	-4.64630126953125	-2.13623046875	
286	1.1440000000000001	0.0	0.0	0.0	0.0	4.437	0.003	0.003	0.006	9.847351428222655	0.1879448303222656	0.013766659545898436	1.5869140625	-3.108978271484375	-1.07574462890625	9.71028338317871	0.5255272644042969	0.14006079711914063	1.201629638671875	-5.126953125	-3.063201904296875	9.967061511230469	0.21906945190429686	-0.2861070983886719	3.482818603515625	-4.550933837890625	-2.223968505859375	
287	1.1480000000000001	0.0	0.0	0.0	0.0	0.009000000000000001	0.003	0.003	0.006	9.83837317199707	0.06344634399414062	0.05686228942871093	1.94549560546875	-3.31878662109375	-0.797271728515625	9.749787710571288	0.5135562561035156	0.13766659545898435	1.010894775390625	-4.90570068359375	-2.803802490234375	9.9981861328125	0.21727380065917967	-0.33578678283691404	3.513336181640625	-4.520416259765625	-1.750946044921875	
288	1.1520000000000001	0.0	0.0	0.0	0.0	0.003	0.003	0.006	0.006	9.935936889648437	-0.12150573425292968	-0.04908113403320312	2.040863037109375	-3.35693359375	-1.033782958984375	9.910797772216796	0.42317514343261714	0.0526724365234375	1.293182373046875	-5.138397216796875	-3.032684326171875	10.196306320190429	0.09756371765136718	-0.364517202758789	3.597259521484375	-4.85992431640625	-2.094268798828125	
289	1.156	0.0	0.0	0.0	0.0	0.003	0.003	0.003	0.006	9.871293444824218	0.08319850769042968	0.023942016601562498	1.74713134765625	-3.177642822265625	-1.0528564453125	9.792284790039062	0.4255693450927734	0.18914193115234373	0.762939453125	-4.840850830078125	-3.086090087890625	10.037091909790039	0.21128829650878905	-0.28311434631347654	3.337860107421875	-4.425048828125	-2.185821533203125	
290	1.16	0.0	0.0	0.0	0.0	0.006	0.003	0.003	0.006	9.788094937133788	0.10414777221679687	0.12090718383789062	1.117706298828125	-2.838134765625	-0.95367431640625	9.662997900390625	0.584185205078125	0.2154781494140625	1.079559326171875	-5.24139404296875	-3.170013427734375	9.852738381958007	0.2280477081298828	-0.23403321228027343	3.3721923828125	-4.57763671875	-2.033233642578125	
291	1.164	0.0	0.0	0.0	0.0	0.003	0.006	0.006	0.006	9.888052856445311	0.1640028137207031	0.012569558715820313	2.15911865234375	-3.4637451171875	-0.66375732421875	9.813832604980469	0.40462008056640625	0.1274912384033203	0.682830810546875	-5.146026611328125	-2.99072265625	10.061033926391602	0.24779987182617186	-0.3573345977783203	3.51715087890625	-4.718780517578125	-2.0294189453125	
292	1.168	0.0	0.0	0.0	0.0	0.003	0.003	0.003	0.003	9.944316595458984	0.040102877807617184	-0.06045359191894531	3.215789794921875	-4.032135009765625	-0.972747802734375	9.865307940673828	0.4632780212402344	0.10295067138671875	1.03759765625	-4.894256591796875	-3.246307373046875	10.09993970336914	0.08978256225585937	-0.2507926239013672	3.44085693359375	-4.69970703125	-1.926422119140625	
293	1.172	0.0	0.0	0.0	0.0	0.006	0.003	0.003	0.003	9.810241302490233	0.3130418670654297	0.0383072265625	2.3345947265625	-3.543853759765625	-1.007080078125	9.64623848876953	0.479438882446289	0.21248539733886718	0.732421875	-4.9896240234375	-3.391265869140625	9.818022457885741	0.30346506042480464	-0.16699556579589842	3.475189208984375	-4.38690185546875	-2.25067138671875	
294	1.176	0.0	0.0	0.0	0.0	0.006	0.003	0.003	0.006	9.83777462158203	0.2519897247314453	0.11731588134765625	3.681182861328125	-4.32586669921875	-0.63323974609375	9.6917283203125	0.526125814819336	0.15741875915527342	0.690460205078125	-5.031585693359375	-2.750396728515625	9.86411083984375	0.27353753967285155	-0.13347674255371092	3.82232666015625	-4.795074462890625	-2.231597900390625	
295	1.18	0.0	0.0	0.0	0.0	0.003	0.006	0.003	0.003	9.948506448364258	0.03890577697753906	-0.07781155395507812	1.697540283203125	-3.448486328125	-0.84686279296875	9.868899243164062	0.3968389251708984	0.14305354919433594	0.904083251953125	-5.04302978515625	-3.383636474609375	10.177751257324218	0.12808978881835936	-0.36152445068359373	3.589630126953125	-4.5318603515625	-2.05230712890625	
296	1.184	0.0	0.0	0.0	0.0	0.003	0.006	0.003	0.003	9.910199221801758	0.30406361083984373	-0.0017956512451171875	3.57818603515625	-4.608154296875	-1.1444091796875	9.715670336914062	0.4435258575439453	0.13347674255371092	0.93841552734375	-4.76837158203125	-3.12042236328125	9.906607919311522	0.15981296081542967	-0.14544775085449219	3.665924072265625	-4.57763671875	-2.25830078125	
297	1.188	0.0	0.0	0.0	0.0	0.003	0.006	0.003	0.003	9.894038360595703	0.15562310791015624	-0.0143652099609375	3.80706787109375	-4.665374755859375	-0.75531005859375	9.6396544342041	0.5770026000976562	0.1562216583251953	0.759124755859375	-4.917144775390625	-2.69317626953125	9.839570272827148	0.27952304382324217	-0.12449848632812499	3.5400390625	-4.45556640625	-2.162933349609375	
298	1.192	0.0	0.0	0.0	0.0	0.003	0.006	0.003	0.006	9.955090502929687	0.06643909606933593	0.033518823242187495	3.665924072265625	-4.364013671875	-0.675201416015625	9.86411083984375	0.4321533996582031	0.12210428466796874	0.79345703125	-5.039215087890625	-3.025054931640625	10.10712230834961	0.1197100830078125	-0.23523031311035156	3.498077392578125	-4.547119140625	-2.040863037109375	
299	1.196	0.0	0.0	0.0	0.0	0.003	0.006	0.003	0.003	9.98561657409668	-0.029927520751953124	-0.10714052429199218	3.864288330078125	-4.291534423828125	-1.12152099609375	9.794678991699218	0.39983167724609375	0.086191259765625	0.919342041015625	-4.7607421875	-3.11279296875	10.047267266845703	0.05566518859863281	-0.15981296081542967	3.589630126953125	-4.53948974609375	-2.3193359375	
300	1.2	0.0	0.0	0.0	0.0	0.003	0.006	0.003	0.009000000000000001	9.87009634399414	0.47165772705078124	0.07841010437011718	4.596710205078125	-5.176544189453125	-0.850677490234375	9.743802206420899	0.5386953735351562	0.09038111267089843	1.12152099609375	-4.96673583984375	-2.933502197265625	9.964068759155273	0.36571430358886714	-0.3124433166503906	3.505706787109375	-4.37164306640625	-2.178192138671875	
301	1.204	0.0	0.0	0.0	0.0	0.006	0.003	0.006	0.003	9.952696301269532	0.04848258361816406	0.017956512451171875	4.871368408203125	-4.99725341796875	-0.9918212890625	9.804255798339844	0.4387374542236328	0.1292868896484375	0.74005126953125	-5.157470703125	-2.5787353515625	10.01015714111328	0.12689268798828124	-0.1304839904785156	3.368377685546875	-4.41741943359375	-1.979827880859375	
302	1.208	0.0	0.0	0.0	0.0	-0.003	0.003	0.006	0.003	9.891644158935547	-0.19213468322753904	0.02454056701660156	3.1890869140625	-4.29534912109375	-1.1444091796875	9.909600671386718	0.3890577697753906	0.07900865478515624	0.934600830078125	-5.06591796875	-3.025054931640625	10.171167202758788	0.09816226806640624	-0.19213468322753904	3.452301025390625	-4.69207763671875	-2.38037109375	
303	1.212	0.0	0.0	0.0	0.0	0.003	0.006	0.003	0.003	9.90840357055664	0.059256491088867186	0.008379705810546874	4.016876220703125	-4.82940673828125	-0.6866455078125	9.695319622802733	0.5195417602539062	0.2442085693359375	0.728607177734375	-4.955291748046875	-2.98309326171875	10.038887561035155	0.14484920043945312	-0.29927520751953124	3.5552978515625	-4.528045654296875	-2.44140625	
304	1.216	0.0	0.0	0.0	0.0	0.006	0.003	0.003	0.003	9.797073193359374	0.030526071166992186	0.1406593475341797	2.55584716796875	-4.062652587890625	-0.7476806640625	9.779715231323241	0.5309142181396485	0.16160861206054686	1.09100341796875	-4.985809326171875	-2.9296875	10.039486111450195	0.30466216125488277	-0.2555810272216797	3.7689208984375	-4.611968994140625	-1.94549560546875	
305	1.22	0.0	0.0	0.0	0.0	0.006	0.006	0.003	0.003	9.958083255004881	-0.16041151123046873	0.025737667846679687	2.193450927734375	-3.31878662109375	-0.95367431640625	9.81862100830078	0.3507505432128906	0.277727392578125	0.865936279296875	-5.035400390625	-3.04412841796875	10.142436782836914	0.01975216369628906	-0.1945288848876953	3.673553466796875	-4.6234130859375	-2.063751220703125	
306	1.224	0.0	0.0	0.0	0.0	0.006	0.003	0.006	0.006	9.873687646484374	-0.04608838195800781	0.029927520751953124	2.117156982421875	-3.162384033203125	-1.026153564453125	9.906009368896484	0.45190556335449217	0.055066638183593745	1.02996826171875	-4.894256591796875	-3.154754638671875	10.095151300048828	0.2603694305419922	-0.31004911499023435	3.65447998046875	-4.566192626953125	-2.1514892578125	
