	time	dac1	dac2	dac3	dac4	adc1.3	adc2.3	adc3.3	adc4.3	imu1accx	imu1accy	imu1accz	imu1gyrox	imu1gyroy	imu1gyroz	imu2accx	imu2accy	imu2accz	imu2gyrox	imu2gyroy	imu2gyroz	imu3accx	imu3accy	imu3accz	imu3gyrox	imu3gyroy	imu3gyroz	log
0	0.0	0.0	0.0	0.0	0.0	4.554	4.611	4.6080000000000005	4.539	9.873687646484374	0.12569558715820311	0.055066638183593745	2.590179443359375	-3.627777099609375	-0.885009765625	9.782707983398437	0.4896142395019531	0.1610100616455078	1.033782958984375	-5.02777099609375	-3.177642822265625	10.022726699829102	0.21727380065917967	-0.2280477081298828	3.60107421875	-4.4403076171875	-1.911163330078125	Estabilizou em 7s, 1026  rpm
1	0.004	0.0	0.0	0.0	0.0	4.5600000000000005	4.614	4.614	4.524	9.868899243164062	0.12569558715820311	0.058657940673828124	2.655029296875	-3.9520263671875	-0.896453857421875	9.788693487548828	0.49260699157714843	0.17118541870117188	1.007080078125	-4.947662353515625	-3.2806396484375	10.020332498168944	0.21308394775390624	-0.22565350646972654	3.6163330078125	-4.58526611328125	-2.201080322265625	Started
2	0.008	0.0	0.0	0.0	0.0	4.569	4.614	4.614	4.53	9.880870251464843	0.12090718383789062	0.05027823486328125	2.72369384765625	-3.7841796875	-0.988006591796875	9.78629928588867	0.4914098907470703	0.17178396911621094	0.751495361328125	-5.279541015625	-3.131866455078125	10.012551342773437	0.21787235107421873	-0.2262520568847656	3.505706787109375	-4.604339599609375	-2.223968505859375	IMU1|LSM6DS3|0x6A|I2C-1|±2g (±19,6m/s²)|±125º/s|400Hz
3	0.012	0.0	0.0	0.0	0.0	4.563	4.602	4.611	4.554	9.878476049804688	0.12449848632812499	0.04608838195800781	2.674102783203125	-3.53240966796875	-0.766754150390625	9.782707983398437	0.49260699157714843	0.16280571289062498	0.988006591796875	-5.184173583984375	-3.27301025390625	10.012551342773437	0.2232593048095703	-0.24899697265624998	3.696441650390625	-4.604339599609375	-2.0751953125	IMU2|LSM6DS3|0x6B|I2C-1|±2g (±19,6m/s²)|±125º/s|400Hz
4	0.016	0.0	0.0	0.0	0.0	4.557	4.611	4.611	4.554	9.873687646484374	0.1197100830078125	0.052073886108398436	2.61688232421875	-3.818511962890625	-0.8392333984375	9.776722479248047	0.488417138671875	0.1562216583251953	1.087188720703125	-4.749298095703125	-3.07464599609375	10.014945544433592	0.21966800231933592	-0.25737667846679685	3.5552978515625	-4.41741943359375	-2.162933349609375	IMU3|LSM6DS3|0x6B|I2C-2|±2g (±19,6m/s²)|±125º/s|400Hz
5	0.02	0.0	0.0	0.0	0.0	4.551	4.611	4.614	4.557	9.867702142333984	0.1149216796875	0.054468087768554684	2.513885498046875	-3.513336181640625	-1.007080078125	9.788693487548828	0.47704468078613277	0.15083470458984374	0.751495361328125	-4.608154296875	-3.154754638671875	10.026916552734374	0.2184709014892578	-0.2501940734863281	3.711700439453125	-4.47845458984375	-2.05230712890625	ADC|ADS1015|0|0|1|0|±6,144 V|2400 SPS
6	0.024	0.0	0.0	0.0	0.0	4.542	4.611	4.605	4.5600000000000005	9.880271701049804	0.11372457885742186	0.040701428222656245	2.4566650390625	-3.71551513671875	-0.86212158203125	9.785102185058593	0.479438882446289	0.1580173095703125	0.9765625	-5.11932373046875	-2.87628173828125	10.01015714111328	0.21787235107421873	-0.23702596435546874	3.406524658203125	-4.4708251953125	-2.105712890625	Gen1|Disabled
7	0.028	0.0	0.0	0.0	0.0	4.5600000000000005	4.611	4.611	4.533	9.868300692749022	0.10594342346191406	0.05087678527832031	2.498626708984375	-3.604888916015625	-0.843048095703125	9.789890588378906	0.48063598327636714	0.15562310791015624	1.06048583984375	-4.894256591796875	-3.070831298828125	10.007164389038085	0.2041056915283203	-0.24001871643066405	3.810882568359375	-4.52423095703125	-2.269744873046875	Gen2|Enabled|Noise|0.0|10.0|1668
8	0.032	0.0	0.0	0.0	0.0	4.566	4.611	4.611	4.521	9.873687646484374	0.10773907470703124	0.05327098693847656	2.597808837890625	-3.772735595703125	-0.92315673828125	9.789292037963866	0.47884033203125	0.16759411621093748	0.75531005859375	-4.791259765625	-3.04412841796875	10.00955859069824	0.19572598571777342	-0.23882161560058593	3.505706787109375	-4.444122314453125	-1.857757568359375	Gen3|Enabled|Noise|0.0|10.0|128
9	0.036000000000000004	0.0	0.0	0.0	0.0	4.563	4.6080000000000005	4.614	4.542	9.865307940673828	0.1149216796875	0.05566518859863281	2.544403076171875	-3.54766845703125	-0.762939453125	9.777919580078125	0.4740519287109375	0.1562216583251953	1.007080078125	-4.886627197265625	-3.170013427734375	10.00955859069824	0.19991583862304688	-0.239420166015625	3.650665283203125	-4.55474853515625	-2.09808349609375	Gen4|Enabled|Noise|0.0|10.0|128
10	0.04	0.0	0.0	0.0	0.0	4.557	4.611	4.611	4.548	9.874286196899414	0.10594342346191406	0.05566518859863281	2.5482177734375	-3.650665283203125	-0.9918212890625	9.782707983398437	0.4656722229003906	0.1640028137207031	0.865936279296875	-5.039215087890625	-2.87628173828125	10.01015714111328	0.1867477294921875	-0.23582886352539062	3.509521484375	-4.512786865234375	-2.223968505859375	Ctrl|Disabled
11	0.044	0.0	0.0	0.0	0.0	4.5600000000000005	4.611	4.614	4.554	9.872490545654296	0.10594342346191406	0.058657940673828124	2.38800048828125	-3.60107421875	-0.965118408203125	9.788094937133788	0.45669396667480466	0.1693897674560547	0.896453857421875	-5.18035888671875	-3.16619873046875	10.014346994018554	0.17896657409667968	-0.2232593048095703	3.528594970703125	-4.619598388671875	-1.8768310546875	
12	0.048	0.0	0.0	0.0	0.0	4.548	4.614	4.614	4.5600000000000005	9.8694977935791	0.08559270935058594	0.05626373901367187	2.4261474609375	-3.505706787109375	-0.988006591796875	9.789890588378906	0.45010991210937495	0.16460136413574217	0.904083251953125	-5.19561767578125	-2.964019775390625	10.012551342773437	0.18375497741699218	-0.22565350646972654	3.711700439453125	-4.589080810546875	-2.17437744140625	
13	0.052000000000000005	0.0	0.0	0.0	0.0	4.5600000000000005	4.611	4.611	4.548	9.874286196899414	0.09038111267089843	0.07302315063476562	2.62451171875	-3.73077392578125	-0.896453857421875	9.789890588378906	0.45070846252441404	0.16759411621093748	1.018524169921875	-5.107879638671875	-3.040313720703125	10.020332498168944	0.17836802368164062	-0.22385785522460935	3.35693359375	-4.375457763671875	-1.89971923828125	
14	0.056	0.0	0.0	0.0	0.0	4.557	4.611	4.611	4.521	9.868899243164062	0.086191259765625	0.06284779357910156	2.47955322265625	-3.749847412109375	-0.7171630859375	9.784503634643555	0.44412440795898434	0.17417817077636719	0.87738037109375	-4.7454833984375	-3.086090087890625	10.018536846923828	0.17417817077636719	-0.22505495605468748	3.6163330078125	-4.3792724609375	-2.32696533203125	
15	0.06	0.0	0.0	0.0	0.0	4.566	4.611	4.614	4.524	9.873089096069336	0.08259995727539061	0.05626373901367187	2.666473388671875	-3.7384033203125	-1.110076904296875	9.78031378173828	0.44592005920410155	0.1693897674560547	0.942230224609375	-4.863739013671875	-2.971649169921875	10.018536846923828	0.17357962036132812	-0.21248539733886718	3.48663330078125	-4.291534423828125	-2.147674560546875	
16	0.064	0.0	0.0	0.0	0.0	4.569	4.605	4.611	4.545	9.873089096069336	0.08319850769042968	0.0652419952392578	2.6397705078125	-3.48663330078125	-0.789642333984375	9.779116680908203	0.43514615173339843	0.17238251953125	0.980377197265625	-4.93621826171875	-3.139495849609375	10.013149893188476	0.17058686828613281	-0.22206220397949217	3.4942626953125	-4.421234130859375	-2.0599365234375	
17	0.068	0.0	0.0	0.0	0.0	4.554	4.6080000000000005	4.611	4.554	9.872490545654296	0.07422025146484375	0.07122749938964844	2.777099609375	-3.803253173828125	-0.95367431640625	9.778518130493163	0.4339490509033203	0.19033903198242186	0.949859619140625	-5.0811767578125	-3.0517578125	10.008960040283203	0.16220716247558592	-0.2232593048095703	3.574371337890625	-4.810333251953125	-2.147674560546875	
18	0.07200000000000001	0.0	0.0	0.0	0.0	4.557	4.611	4.611	4.554	9.874286196899414	0.07601590270996093	0.055066638183593745	2.796173095703125	-3.910064697265625	-0.843048095703125	9.78689783630371	0.4369418029785156	0.18614917907714842	1.1749267578125	-5.04302978515625	-2.99072265625	10.021529598999022	0.1610100616455078	-0.22026655273437498	3.818511962890625	-4.5166015625	-2.26593017578125	
19	0.076	0.0	0.0	0.0	0.0	4.542	4.614	4.6080000000000005	4.566	9.8694977935791	0.0718260498046875	0.062249243164062495	2.506256103515625	-3.56292724609375	-0.83160400390625	9.783905084228515	0.4327519500732422	0.19033903198242186	1.129150390625	-5.0048828125	-2.948760986328125	10.01733974609375	0.1610100616455078	-0.22445640563964842	3.658294677734375	-4.60052490234375	-2.18963623046875	
20	0.08	0.0	0.0	0.0	0.0	4.566	4.611	4.6080000000000005	4.5360000000000005	9.874286196899414	0.07122749938964844	0.06823474731445311	2.666473388671875	-3.77655029296875	-1.018524169921875	9.788693487548828	0.430956298828125	0.1867477294921875	0.99945068359375	-4.970550537109375	-3.154754638671875	10.01733974609375	0.16759411621093748	-0.21428104858398436	3.5247802734375	-4.543304443359375	-2.300262451171875	
21	0.084	0.0	0.0	0.0	0.0	4.5600000000000005	4.611	4.611	4.521	9.865307940673828	0.076614453125	0.06404489440917968	2.46429443359375	-3.7689208984375	-0.972747802734375	9.789890588378906	0.43454760131835934	0.17298106994628906	0.98419189453125	-4.96673583984375	-3.047943115234375	10.003573086547851	0.16639701538085935	-0.21787235107421873	3.59344482421875	-4.673004150390625	-2.05230712890625	
22	0.088	0.0	0.0	0.0	0.0	4.563	4.611	4.611	4.53	9.864709390258788	0.07362170104980469	0.07122749938964844	2.73895263671875	-3.818511962890625	-1.064300537109375	9.788094937133788	0.43035774841308594	0.17357962036132812	0.93841552734375	-5.07354736328125	-2.99835205078125	10.011952792358398	0.16699556579589842	-0.21787235107421873	3.765106201171875	-4.85992431640625	-2.201080322265625	
23	0.092	0.0	0.0	0.0	0.0	4.563	4.599	4.611	4.548	9.871293444824218	0.0796072052001953	0.0718260498046875	2.66265869140625	-3.72314453125	-0.78582763671875	9.792284790039062	0.4375403533935547	0.16879121704101563	0.972747802734375	-5.0811767578125	-3.200531005859375	10.00955859069824	0.1693897674560547	-0.2280477081298828	3.62396240234375	-4.55474853515625	-2.124786376953125	
24	0.096	0.0	0.0	0.0	0.0	4.557	4.614	4.614	4.554	9.864709390258788	0.07481880187988281	0.076614453125	2.532958984375	-3.7078857421875	-0.896453857421875	9.788693487548828	0.4387374542236328	0.18435352783203124	0.6866455078125	-4.894256591796875	-2.941131591796875	10.013748443603514	0.1693897674560547	-0.239420166015625	3.56292724609375	-4.543304443359375	-1.888275146484375	
25	0.1	0.0	0.0	0.0	0.0	4.548	4.6080000000000005	4.614	4.5600000000000005	9.875483297729492	0.08200140686035155	0.06703764648437499	2.50244140625	-3.711700439453125	-0.80108642578125	9.785102185058593	0.44412440795898434	0.17836802368164062	1.056671142578125	-5.0506591796875	-3.21197509765625	10.014346994018554	0.17657237243652343	-0.22385785522460935	3.604888916015625	-4.497528076171875	-2.223968505859375	
26	0.10400000000000001	0.0	0.0	0.0	0.0	4.5600000000000005	4.611	4.602	4.5600000000000005	9.880870251464843	0.09337386474609374	0.07003039855957031	2.452850341796875	-3.7078857421875	-0.8544921875	9.784503634643555	0.4471171600341797	0.1640028137207031	0.84686279296875	-5.306243896484375	-3.017425537109375	10.011354241943359	0.1801636749267578	-0.22505495605468748	3.559112548828125	-4.4708251953125	-2.0599365234375	
27	0.108	0.0	0.0	0.0	0.0	4.5600000000000005	4.605	4.611	4.53	9.875483297729492	0.09337386474609374	0.07242460021972656	2.7008056640625	-3.421783447265625	-0.904083251953125	9.785102185058593	0.45010991210937495	0.1771709228515625	0.980377197265625	-4.795074462890625	-2.986907958984375	10.018536846923828	0.1753752716064453	-0.22266075439453123	3.787994384765625	-4.60052490234375	-2.01416015625	
28	0.112	0.0	0.0	0.0	0.0	4.566	4.6080000000000005	4.611	4.521	9.873687646484374	0.09636661682128905	0.06643909606933593	2.628326416015625	-3.89862060546875	-0.919342041015625	9.789890588378906	0.46148236999511716	0.17417817077636719	0.835418701171875	-4.848480224609375	-3.040313720703125	10.011952792358398	0.18614917907714842	-0.22505495605468748	3.276824951171875	-4.444122314453125	-2.033233642578125	
29	0.116	0.0	0.0	0.0	0.0	4.563	4.605	4.611	4.545	9.87727894897461	0.10474632263183593	0.06823474731445311	2.597808837890625	-3.871917724609375	-1.01470947265625	9.78689783630371	0.4656722229003906	0.16998831787109375	1.1138916015625	-5.157470703125	-3.21197509765625	10.014346994018554	0.19333178405761717	-0.21607669982910155	3.520965576171875	-4.47845458984375	-2.063751220703125	
30	0.12	0.0	0.0	0.0	0.0	4.557	4.611	4.611	4.551	9.871293444824218	0.1083376251220703	0.06584054565429687	2.5787353515625	-3.780364990234375	-0.919342041015625	9.788693487548828	0.4626794708251953	0.15682020874023436	0.957489013671875	-4.99725341796875	-3.1280517578125	10.015544094848632	0.18914193115234373	-0.2346317626953125	3.551483154296875	-4.398345947265625	-1.987457275390625	
31	0.124	0.0	0.0	0.0	0.0	4.554	4.611	4.611	4.551	9.871293444824218	0.10654197387695312	0.06943184814453125	2.666473388671875	-3.780364990234375	-0.7781982421875	9.789890588378906	0.4686649749755859	0.16519991455078123	0.8392333984375	-5.176544189453125	-3.11279296875	10.01674119567871	0.19572598571777342	-0.2262520568847656	3.753662109375	-4.70733642578125	-2.170562744140625	
32	0.128	0.0	0.0	0.0	0.0	4.545	4.611	4.611	4.563	9.874884747314452	0.10654197387695312	0.05686228942871093	2.521514892578125	-3.79180908203125	-1.0223388671875	9.781510882568359	0.47165772705078124	0.16879121704101563	1.033782958984375	-5.062103271484375	-3.009796142578125	10.014945544433592	0.19093758239746092	-0.2232593048095703	3.604888916015625	-4.7454833984375	-2.208709716796875	
33	0.132	0.0	0.0	0.0	0.0	4.563	4.611	4.6080000000000005	4.542	9.86291373901367	0.1083376251220703	0.05626373901367187	2.4261474609375	-3.74603271484375	-1.0223388671875	9.78629928588867	0.479438882446289	0.1610100616455078	1.010894775390625	-4.955291748046875	-2.84576416015625	10.011952792358398	0.1927332336425781	-0.21787235107421873	3.818511962890625	-4.802703857421875	-2.11334228515625	
34	0.136	0.0	0.0	0.0	0.0	4.5600000000000005	4.614	4.611	4.524	9.864709390258788	0.11552023010253906	0.05686228942871093	2.788543701171875	-3.757476806640625	-0.850677490234375	9.783905084228515	0.48063598327636714	0.15382745666503905	0.743865966796875	-4.894256591796875	-3.01361083984375	10.013748443603514	0.201112939453125	-0.21787235107421873	3.4027099609375	-4.39453125	-2.17437744140625	
35	0.14	0.0	0.0	0.0	0.0	4.569	4.611	4.614	4.527	9.87727894897461	0.1197100830078125	0.059256491088867186	2.567291259765625	-3.795623779296875	-0.93841552734375	9.781510882568359	0.4830301849365234	0.15023615417480468	0.8392333984375	-4.840850830078125	-2.98309326171875	10.011952792358398	0.20171148986816406	-0.22864625854492185	3.6773681640625	-4.611968994140625	-1.9683837890625	
36	0.14400000000000002	0.0	0.0	0.0	0.0	4.563	4.599	4.611	4.542	9.87668039855957	0.12330138549804687	0.052073886108398436	2.69317626953125	-3.398895263671875	-0.84686279296875	9.784503634643555	0.4836287353515625	0.1580173095703125	0.988006591796875	-5.0201416015625	-3.0059814453125	10.007762939453125	0.20530279235839843	-0.23523031311035156	3.5400390625	-4.5166015625	-1.895904541015625	
37	0.148	0.0	0.0	0.0	0.0	4.557	4.611	4.611	4.554	9.872490545654296	0.12330138549804687	0.04908113403320312	2.50244140625	-3.68499755859375	-0.827789306640625	9.775525378417969	0.48722003784179685	0.15861585998535155	0.896453857421875	-4.81414794921875	-2.9296875	10.013748443603514	0.21068974609375	-0.24361001892089842	3.86810302734375	-4.878997802734375	-2.25067138671875	
38	0.152	0.0	0.0	0.0	0.0	4.554	4.611	4.611	4.554	9.8694977935791	0.12509703674316405	0.05686228942871093	2.532958984375	-3.688812255859375	-0.782012939453125	9.776722479248047	0.49380409240722656	0.1592144104003906	1.178741455078125	-5.2032470703125	-3.082275390625	10.005368737792969	0.2166752502441406	-0.23523031311035156	3.47137451171875	-4.512786865234375	-2.223968505859375	
39	0.156	0.0	0.0	0.0	0.0	4.545	4.614	4.6080000000000005	4.563	9.867702142333984	0.12868833923339842	0.04908113403320312	2.559661865234375	-3.53240966796875	-0.759124755859375	9.783905084228515	0.49260699157714843	0.17058686828613281	0.873565673828125	-4.913330078125	-2.811431884765625	10.013748443603514	0.2166752502441406	-0.23642741394042968	3.513336181640625	-4.665374755859375	-2.15911865234375	
40	0.16	0.0	0.0	0.0	0.0	4.563	4.611	4.6080000000000005	4.5360000000000005	9.871891995239258	0.12629413757324218	0.055066638183593745	2.674102783203125	-3.71551513671875	-0.835418701171875	9.78689783630371	0.49021278991699213	0.1580173095703125	1.04522705078125	-5.046844482421875	-3.223419189453125	10.011354241943359	0.21428104858398436	-0.23523031311035156	3.6773681640625	-4.772186279296875	-2.330780029296875	
41	0.164	0.0	0.0	0.0	0.0	4.5600000000000005	4.614	4.611	4.521	9.866505041503906	0.12030863342285156	0.05027823486328125	2.552032470703125	-3.559112548828125	-0.9002685546875	9.781510882568359	0.4997895965576172	0.14305354919433594	0.835418701171875	-4.978179931640625	-2.87628173828125	10.007762939453125	0.21787235107421873	-0.24839842224121092	3.35693359375	-4.520416259765625	-2.246856689453125	
42	0.168	0.0	0.0	0.0	0.0	4.563	4.611	4.614	4.5360000000000005	9.867103591918944	0.12210428466796874	0.05327098693847656	2.597808837890625	-3.963470458984375	-0.9002685546875	9.789292037963866	0.4950011932373047	0.14724340209960937	0.789642333984375	-4.886627197265625	-3.05938720703125	10.013748443603514	0.2154781494140625	-0.2537853759765625	3.5400390625	-4.24957275390625	-2.101898193359375	
43	0.17200000000000001	0.0	0.0	0.0	0.0	4.563	4.614	4.611	4.548	9.871293444824218	0.12210428466796874	0.04129997863769531	2.655029296875	-3.673553466796875	-0.83160400390625	9.783306533813477	0.4944026428222656	0.13946224670410157	0.95367431640625	-4.840850830078125	-3.2196044921875	10.01015714111328	0.20769699401855468	-0.2424129180908203	3.3721923828125	-4.46319580078125	-2.14385986328125	
44	0.176	0.0	0.0	0.0	0.0	4.5600000000000005	4.611	4.614	4.551	9.859920986938477	0.11611878051757812	0.05566518859863281	2.4871826171875	-3.475189208984375	-0.881195068359375	9.783905084228515	0.49380409240722656	0.14724340209960937	1.247406005859375	-4.9591064453125	-3.154754638671875	10.014346994018554	0.21188684692382811	-0.24121581726074218	3.597259521484375	-4.47845458984375	-2.079010009765625	
45	0.18	0.0	0.0	0.0	0.0	4.545	4.6080000000000005	4.614	4.563	9.864709390258788	0.11791443176269531	0.04608838195800781	2.7313232421875	-3.757476806640625	-0.946044921875	9.788693487548828	0.4878185882568359	0.16160861206054686	0.81634521484375	-5.054473876953125	-2.96783447265625	10.017938296508788	0.19812018737792966	-0.23822306518554687	3.467559814453125	-4.497528076171875	-1.9073486328125	
46	0.184	0.0	0.0	0.0	0.0	4.563	4.611	4.602	4.545	9.868300692749022	0.105344873046875	0.04967968444824218	2.353668212890625	-3.688812255859375	-0.865936279296875	9.787496386718749	0.48063598327636714	0.1592144104003906	0.972747802734375	-5.031585693359375	-3.10516357421875	10.013149893188476	0.20769699401855468	-0.2292448089599609	3.5552978515625	-4.726409912109375	-2.002716064453125	
47	0.188	0.0	0.0	0.0	0.0	4.5600000000000005	4.614	4.611	4.527	9.867702142333984	0.10354922180175781	0.05566518859863281	2.727508544921875	-3.86810302734375	-0.9002685546875	9.784503634643555	0.4740519287109375	0.17178396911621094	0.896453857421875	-4.82940673828125	-3.032684326171875	10.00955859069824	0.20051438903808594	-0.2280477081298828	3.414154052734375	-4.73785400390625	-2.109527587890625	
48	0.192	0.0	0.0	0.0	0.0	4.566	4.611	4.6080000000000005	4.518	9.872490545654296	0.10893617553710937	0.05985504150390625	2.666473388671875	-3.68499755859375	-1.056671142578125	9.777919580078125	0.47285482788085936	0.16819266662597654	0.904083251953125	-5.138397216796875	-3.22723388671875	10.017938296508788	0.19812018737792966	-0.23044190979003906	3.54766845703125	-4.528045654296875	-2.03704833984375	
49	0.196	0.0	0.0	0.0	0.0	4.5600000000000005	4.6080000000000005	4.611	4.548	9.867103591918944	0.09816226806640624	0.05087678527832031	2.635955810546875	-3.692626953125	-0.888824462890625	9.788094937133788	0.46686932373046874	0.17298106994628906	0.8697509765625	-5.0048828125	-2.887725830078125	10.007762939453125	0.18854338073730467	-0.22206220397949217	3.6773681640625	-4.69970703125	-2.08282470703125	
50	0.2	0.0	0.0	0.0	0.0	4.557	4.6080000000000005	4.614	4.548	9.879074600219726	0.09756371765136718	0.05805939025878906	2.55584716796875	-3.5858154296875	-0.762939453125	9.78689783630371	0.46686932373046874	0.17477672119140625	0.732421875	-4.718780517578125	-2.9296875	10.011354241943359	0.18375497741699218	-0.21787235107421873	3.475189208984375	-4.528045654296875	-2.166748046875	
51	0.20400000000000001	0.0	0.0	0.0	0.0	4.5600000000000005	4.611	4.611	4.551	9.867702142333984	0.08738836059570312	0.06045359191894531	2.3651123046875	-3.612518310546875	-0.93841552734375	9.78031378173828	0.4542997650146484	0.17477672119140625	0.995635986328125	-5.245208740234375	-3.032684326171875	10.024522351074218	0.1849520782470703	-0.21607669982910155	3.391265869140625	-4.383087158203125	-2.262115478515625	
52	0.20800000000000002	0.0	0.0	0.0	0.0	4.545	4.611	4.6080000000000005	4.563	9.85692823486328	0.08020575561523437	0.06404489440917968	2.590179443359375	-3.993988037109375	-1.06048583984375	9.78629928588867	0.45968671875	0.181959326171875	0.904083251953125	-4.894256591796875	-2.902984619140625	10.021529598999022	0.18435352783203124	-0.2166752502441406	3.513336181640625	-4.364013671875	-1.995086669921875	
53	0.212	0.0	0.0	0.0	0.0	4.563	4.611	4.611	4.5360000000000005	9.871293444824218	0.08020575561523437	0.0652419952392578	2.574920654296875	-3.673553466796875	-1.068115234375	9.788693487548828	0.4465186096191406	0.18255787658691405	1.171112060546875	-4.886627197265625	-3.185272216796875	10.013748443603514	0.18914193115234373	-0.21188684692382811	3.53240966796875	-4.79888916015625	-1.964569091796875	
54	0.216	0.0	0.0	0.0	0.0	4.5600000000000005	4.611	4.611	4.524	9.868899243164062	0.07900865478515624	0.06763619689941405	2.643585205078125	-3.902435302734375	-0.812530517578125	9.787496386718749	0.4429273071289062	0.16220716247558592	0.70953369140625	-4.772186279296875	-2.956390380859375	10.013149893188476	0.16879121704101563	-0.22565350646972654	3.414154052734375	-4.543304443359375	-2.109527587890625	
55	0.22	0.0	0.0	0.0	0.0	4.563	4.611	4.614	4.53	9.8694977935791	0.07062894897460938	0.059256491088867186	2.635955810546875	-3.795623779296875	-0.8697509765625	9.785700735473633	0.4429273071289062	0.17058686828613281	1.01470947265625	-5.02777099609375	-3.02886962890625	10.012551342773437	0.17118541870117188	-0.22864625854492185	3.612518310546875	-4.52423095703125	-2.00653076171875	
56	0.224	0.0	0.0	0.0	0.0	4.563	4.602	4.611	4.548	9.875483297729492	0.076614453125	0.06643909606933593	2.613067626953125	-3.57818603515625	-0.86212158203125	9.789890588378906	0.4429273071289062	0.16041151123046873	0.835418701171875	-5.04302978515625	-3.07464599609375	10.01075569152832	0.16460136413574217	-0.22744915771484372	3.5400390625	-4.425048828125	-1.880645751953125	
57	0.228	0.0	0.0	0.0	0.0	4.557	4.611	4.611	4.554	9.879673150634765	0.08379705810546874	0.06763619689941405	2.544403076171875	-3.612518310546875	-0.919342041015625	9.791087689208984	0.4429273071289062	0.16519991455078123	0.942230224609375	-5.084991455078125	-3.204345703125	10.01733974609375	0.16340426330566404	-0.22206220397949217	3.551483154296875	-4.79888916015625	-1.987457275390625	
58	0.232	0.0	0.0	0.0	0.0	4.551	4.611	4.611	4.557	9.878476049804688	0.09157821350097656	0.0652419952392578	2.655029296875	-3.917694091796875	-0.988006591796875	9.790489138793944	0.4381389038085937	0.16041151123046873	0.7171630859375	-4.886627197265625	-3.093719482421875	10.008960040283203	0.16879121704101563	-0.2292448089599609	3.753662109375	-4.52423095703125	-2.15911865234375	
59	0.23600000000000002	0.0	0.0	0.0	0.0	4.545	4.614	4.605	4.5600000000000005	9.878476049804688	0.08559270935058594	0.06584054565429687	2.750396728515625	-3.643035888671875	-0.9613037109375	9.78689783630371	0.4465186096191406	0.15741875915527342	0.896453857421875	-5.695343017578125	-3.08990478515625	10.01015714111328	0.16220716247558592	-0.23104046020507812	3.68499755859375	-4.55474853515625	-2.178192138671875	
60	0.24	0.0	0.0	0.0	0.0	4.5600000000000005	4.611	4.6080000000000005	4.53	9.868899243164062	0.08678981018066406	0.05566518859863281	2.5787353515625	-3.662109375	-0.79345703125	9.785102185058593	0.4525041137695312	0.16519991455078123	0.881195068359375	-5.0048828125	-3.0670166015625	10.019733947753906	0.17178396911621094	-0.2346317626953125	3.5552978515625	-4.5013427734375	-2.14385986328125	
61	0.244	0.0	0.0	0.0	0.0	4.563	4.614	4.611	4.521	9.873089096069336	0.08439560852050781	0.06105214233398437	2.628326416015625	-3.726959228515625	-1.110076904296875	9.791087689208984	0.4483142608642578	0.16639701538085935	0.78582763671875	-5.046844482421875	-2.948760986328125	10.01733974609375	0.17597382202148437	-0.22864625854492185	3.4027099609375	-4.421234130859375	-1.96075439453125	
62	0.248	0.0	0.0	0.0	0.0	4.563	4.611	4.614	4.539	9.871293444824218	0.086191259765625	0.06105214233398437	2.696990966796875	-3.662109375	-0.8544921875	9.777919580078125	0.4333505004882812	0.15562310791015624	0.926971435546875	-5.1116943359375	-3.124237060546875	10.022128149414062	0.16879121704101563	-0.2280477081298828	3.551483154296875	-4.497528076171875	-1.922607421875	
63	0.252	0.0	0.0	0.0	0.0	4.5600000000000005	4.614	4.611	4.548	9.86351228942871	0.08379705810546874	0.05087678527832031	2.391815185546875	-3.62396240234375	-0.904083251953125	9.772532626342773	0.4465186096191406	0.1592144104003906	0.865936279296875	-4.985809326171875	-2.895355224609375	10.020931048583984	0.17836802368164062	-0.2262520568847656	3.597259521484375	-4.608154296875	-2.197265625	
64	0.256	0.0	0.0	0.0	0.0	4.554	4.611	4.614	4.557	9.86411083984375	0.09038111267089843	0.05386953735351562	2.529144287109375	-3.650665283203125	-1.026153564453125	9.790489138793944	0.4590881683349609	0.1693897674560547	0.774383544921875	-4.848480224609375	-3.13568115234375	10.026916552734374	0.17118541870117188	-0.22445640563964842	3.79180908203125	-4.669189453125	-2.18963623046875	
65	0.26	0.0	0.0	0.0	0.0	4.548	4.611	4.605	4.563	9.866505041503906	0.08080430603027343	0.05805939025878906	2.468109130859375	-3.692626953125	-1.068115234375	9.785102185058593	0.4608838195800781	0.16041151123046873	0.919342041015625	-5.023956298828125	-2.99835205078125	10.022128149414062	0.18315642700195311	-0.23223756103515625	3.4637451171875	-4.474639892578125	-2.25067138671875	
66	0.264	0.0	0.0	0.0	0.0	4.563	4.611	4.611	4.545	9.867702142333984	0.08798691101074219	0.05805939025878906	2.349853515625	-3.604888916015625	-0.858306884765625	9.76894132385254	0.47105917663574215	0.17657237243652343	1.087188720703125	-5.1727294921875	-3.162384033203125	10.019135397338866	0.19153613281249998	-0.22026655273437498	3.681182861328125	-4.52423095703125	-2.101898193359375	
67	0.268	0.0	0.0	0.0	0.0	4.5600000000000005	4.611	4.611	4.527	9.866505041503906	0.0987608184814453	0.05686228942871093	2.67791748046875	-3.597259521484375	-0.804901123046875	9.77432827758789	0.469862075805664	0.17298106994628906	0.988006591796875	-5.0201416015625	-3.093719482421875	10.015544094848632	0.1879448303222656	-0.23642741394042968	3.437042236328125	-4.367828369140625	-2.22015380859375	
68	0.272	0.0	0.0	0.0	0.0	4.566	4.6080000000000005	4.611	4.524	9.882067352294921	0.1149216796875	0.04668693237304687	2.689361572265625	-3.627777099609375	-0.881195068359375	9.791087689208984	0.4686649749755859	0.17118541870117188	0.804901123046875	-4.932403564453125	-3.07464599609375	10.014945544433592	0.20290859069824219	-0.2232593048095703	3.681182861328125	-4.398345947265625	-2.063751220703125	
69	0.276	0.0	0.0	0.0	0.0	4.566	4.605	4.614	4.545	9.879673150634765	0.10414777221679687	0.062249243164062495	2.285003662109375	-3.589630126953125	-0.759124755859375	9.783905084228515	0.47165772705078124	0.17477672119140625	0.843048095703125	-5.336761474609375	-3.143310546875	10.021529598999022	0.20231004028320312	-0.21487959899902342	3.635406494140625	-4.695892333984375	-2.117156982421875	
70	0.28	0.0	0.0	0.0	0.0	4.557	4.6080000000000005	4.614	4.548	9.87668039855957	0.09696516723632811	0.051475335693359374	3.025054931640625	-4.058837890625	-0.91552734375	9.79348189086914	0.46208092041015625	0.16280571289062498	1.03759765625	-4.84466552734375	-2.925872802734375	10.024522351074218	0.18076222534179687	-0.2214636535644531	3.665924072265625	-4.57763671875	-2.109527587890625	
71	0.28400000000000003	0.0	0.0	0.0	0.0	4.557	4.611	4.611	4.551	9.87009634399414	0.09516951599121093	0.04908113403320312	2.605438232421875	-3.658294677734375	-1.033782958984375	9.782109432983399	0.47764323120117186	0.1640028137207031	0.843048095703125	-4.9591064453125	-2.90679931640625	10.001178884887695	0.19692308654785154	-0.2154781494140625	3.56292724609375	-4.791259765625	-2.071380615234375	
72	0.28800000000000003	0.0	0.0	0.0	0.0	4.545	4.611	4.602	4.563	9.852139831542969	0.09756371765136718	0.047884033203124995	2.593994140625	-3.864288330078125	-0.9613037109375	9.771934075927733	0.4656722229003906	0.15562310791015624	0.995635986328125	-4.886627197265625	-3.070831298828125	10.001777435302733	0.21009119567871093	-0.21966800231933592	3.520965576171875	-4.70733642578125	-2.29644775390625	
73	0.292	0.0	0.0	0.0	0.0	4.563	4.611	4.6080000000000005	4.5360000000000005	9.861716638183593	0.10175357055664062	0.054468087768554684	2.471923828125	-3.56292724609375	-0.84686279296875	9.785102185058593	0.4560954162597656	0.16759411621093748	0.988006591796875	-5.054473876953125	-3.05938720703125	10.005368737792969	0.19033903198242186	-0.22565350646972654	3.7078857421875	-4.390716552734375	-2.155303955078125	
74	0.296	0.0	0.0	0.0	0.0	4.563	4.6080000000000005	4.611	4.521	9.88266590270996	0.11133037719726561	0.05327098693847656	2.643585205078125	-3.902435302734375	-0.949859619140625	9.785102185058593	0.48063598327636714	0.16639701538085935	0.858306884765625	-4.913330078125	-2.941131591796875	10.011952792358398	0.21727380065917967	-0.23822306518554687	3.566741943359375	-4.779815673828125	-2.13623046875	
75	0.3	0.0	0.0	0.0	0.0	4.566	4.611	4.611	4.53	9.883264453125	0.11013327636718749	0.04908113403320312	2.712249755859375	-3.79180908203125	-0.858306884765625	9.789292037963866	0.48542438659667964	0.1562216583251953	0.995635986328125	-4.924774169921875	-3.116607666015625	10.014945544433592	0.2088940948486328	-0.2328361114501953	3.4942626953125	-4.505157470703125	-2.0599365234375	
76	0.304	0.0	0.0	0.0	0.0	4.566	4.602	4.611	4.551	9.87608184814453	0.12030863342285156	0.054468087768554684	2.63214111328125	-3.475189208984375	-0.904083251953125	9.792284790039062	0.4830301849365234	0.1514332550048828	1.0223388671875	-4.9285888671875	-3.143310546875	10.00955859069824	0.1897404815673828	-0.24600422058105467	3.631591796875	-4.58526611328125	-2.0751953125	
77	0.308	0.0	0.0	0.0	0.0	4.557	4.6080000000000005	4.614	4.554	9.8694977935791	0.13407529296874998	0.05566518859863281	2.628326416015625	-3.978729248046875	-0.919342041015625	9.78689783630371	0.4961982940673828	0.15023615417480468	0.885009765625	-4.84466552734375	-2.99835205078125	10.005368737792969	0.22385785522460935	-0.25258827514648435	3.23486328125	-4.425048828125	-2.0294189453125	
78	0.312	0.0	0.0	0.0	0.0	4.551	4.611	4.611	4.5600000000000005	9.87727894897461	0.1197100830078125	0.044292730712890624	2.391815185546875	-3.467559814453125	-1.049041748046875	9.789890588378906	0.48183308410644526	0.1484405029296875	0.942230224609375	-4.95147705078125	-3.223419189453125	10.011952792358398	0.20470424194335937	-0.25438392639160157	3.509521484375	-4.5928955078125	-2.166748046875	
79	0.316	0.0	0.0	0.0	0.0	4.5600000000000005	4.611	4.602	4.5600000000000005	9.874286196899414	0.09935936889648436	0.047884033203124995	2.635955810546875	-3.787994384765625	-0.762939453125	9.789292037963866	0.4674678741455078	0.1484405029296875	0.926971435546875	-4.92095947265625	-1.9683837890625	10.018536846923828	0.19093758239746092	-0.2316390106201172	3.658294677734375	-4.70733642578125	-2.132415771484375	
80	0.32	0.0	0.0	0.0	0.0	4.5600000000000005	4.611	4.6080000000000005	4.527	9.888052856445311	0.10354922180175781	0.02633621826171875	2.605438232421875	-3.57818603515625	-1.079559326171875	9.795277542114258	0.469263525390625	0.143652099609375	0.91552734375	-5.130767822265625	-3.253936767578125	10.02392380065918	0.2059013427734375	-0.24660277099609373	3.620147705078125	-4.43267822265625	-1.941680908203125	
81	0.324	0.0	0.0	0.0	0.0	4.569	4.605	4.6080000000000005	4.521	9.883264453125	0.0987608184814453	0.029328970336914062	2.4871826171875	-3.60870361328125	-0.92315673828125	9.791087689208984	0.47584757995605464	0.143652099609375	0.8392333984375	-4.79888916015625	-2.941131591796875	10.019733947753906	0.19153613281249998	-0.23044190979003906	3.505706787109375	-4.69970703125	-2.12860107421875	
82	0.328	0.0	0.0	0.0	0.0	4.5600000000000005	4.6080000000000005	4.614	4.542	9.855731134033203	0.08319850769042968	0.040701428222656245	2.51007080078125	-3.719329833984375	-0.80108642578125	9.769539874267577	0.4578910675048828	0.16280571289062498	1.220703125	-4.93621826171875	-3.0364990234375	10.007762939453125	0.18435352783203124	-0.22086510314941404	3.71551513671875	-4.60052490234375	-2.1514892578125	
83	0.332	0.0	0.0	0.0	0.0	4.5600000000000005	4.611	4.611	4.548	9.855731134033203	0.09756371765136718	0.033518823242187495	2.60162353515625	-3.841400146484375	-0.980377197265625	9.77432827758789	0.469862075805664	0.14544775085449219	1.117706298828125	-5.08880615234375	-3.139495849609375	10.002974536132811	0.1897404815673828	-0.24301146850585936	3.612518310546875	-4.5928955078125	-2.155303955078125	
84	0.336	0.0	0.0	0.0	0.0	4.557	4.611	4.611	4.554	9.865307940673828	0.11671733093261719	0.03232172241210937	2.391815185546875	-3.597259521484375	-0.850677490234375	9.777919580078125	0.489015689086914	0.14305354919433594	1.16729736328125	-4.924774169921875	-2.95257568359375	10.00955859069824	0.21128829650878905	-0.2454056701660156	3.467559814453125	-4.53948974609375	-2.15911865234375	
85	0.34	0.0	0.0	0.0	0.0	4.548	4.611	4.611	4.563	9.884461553955077	0.11252747802734374	0.044891281127929686	2.41851806640625	-3.376007080078125	-0.70953369140625	9.789890588378906	0.47644613037109373	0.1580173095703125	0.95367431640625	-4.94384765625	-2.918243408203125	10.028113653564452	0.1945288848876953	-0.2376245147705078	3.4332275390625	-4.4708251953125	-2.1209716796875	
86	0.34400000000000003	0.0	0.0	0.0	0.0	4.563	4.611	4.611	4.542	9.888052856445311	0.11073182678222655	0.04548983154296875	2.777099609375	-3.604888916015625	-0.858306884765625	9.80066449584961	0.48183308410644526	0.1466448516845703	1.064300537109375	-4.913330078125	-2.899169921875	10.026318002319336	0.19871873779296872	-0.26336218261718747	3.612518310546875	-4.45556640625	-2.216339111328125	
87	0.34800000000000003	0.0	0.0	0.0	0.0	4.5600000000000005	4.611	4.611	4.521	9.890447058105469	0.13407529296874998	0.034715924072265626	2.83050537109375	-3.841400146484375	-0.911712646484375	9.79348189086914	0.5093664031982421	0.1466448516845703	1.163482666015625	-4.82177734375	-3.08990478515625	10.02990930480957	0.2376245147705078	-0.26216508178710934	3.54766845703125	-4.43267822265625	-2.002716064453125	
88	0.352	0.0	0.0	0.0	0.0	4.566	4.6080000000000005	4.6080000000000005	4.527	9.853935482788085	0.12150573425292968	0.05566518859863281	2.696990966796875	-3.70025634765625	-0.98419189453125	9.787496386718749	0.47105917663574215	0.16041151123046873	0.9918212890625	-4.9591064453125	-2.9296875	10.007164389038085	0.2041056915283203	-0.24061726684570311	3.51715087890625	-4.543304443359375	-1.941680908203125	
89	0.356	0.0	0.0	0.0	0.0	4.5600000000000005	4.605	4.614	4.548	9.855731134033203	0.10654197387695312	0.054468087768554684	2.44903564453125	-3.60107421875	-0.8544921875	9.779715231323241	0.46028526916503903	0.15263035583496093	0.91552734375	-4.64630126953125	-3.16619873046875	10.018536846923828	0.19093758239746092	-0.2472013214111328	3.39508056640625	-4.52423095703125	-2.132415771484375	
90	0.36	0.0	0.0	0.0	0.0	4.554	4.611	4.611	4.551	9.86411083984375	0.11731588134765625	0.03950432739257812	2.60162353515625	-3.57818603515625	-0.762939453125	9.779116680908203	0.49260699157714843	0.1406593475341797	0.9307861328125	-5.0201416015625	-3.0975341796875	10.01015714111328	0.2136824981689453	-0.23223756103515625	3.7841796875	-4.581451416015625	-2.254486083984375	
91	0.364	0.0	0.0	0.0	0.0	4.554	4.611	4.6080000000000005	4.557	9.868899243164062	0.10235212097167969	0.05327098693847656	2.429962158203125	-3.6163330078125	-0.885009765625	9.791087689208984	0.4626794708251953	0.17118541870117188	0.865936279296875	-4.8828125	-3.01361083984375	10.014945544433592	0.19812018737792966	-0.2262520568847656	3.35693359375	-4.436492919921875	-2.117156982421875	
92	0.368	0.0	0.0	0.0	0.0	4.545	4.611	4.605	4.5600000000000005	9.864709390258788	0.09696516723632811	0.06584054565429687	2.44903564453125	-3.662109375	-0.95367431640625	9.792284790039062	0.4513070129394531	0.16759411621093748	1.026153564453125	-5.1116943359375	-3.162384033203125	10.00955859069824	0.17118541870117188	-0.2214636535644531	3.757476806640625	-4.3792724609375	-2.155303955078125	
93	0.372	0.0	0.0	0.0	0.0	4.5600000000000005	4.611	4.6080000000000005	4.5360000000000005	9.86411083984375	0.1083376251220703	0.05626373901367187	2.62451171875	-3.51715087890625	-0.96893310546875	9.791087689208984	0.47285482788085936	0.16340426330566404	0.9307861328125	-4.962921142578125	-3.0975341796875	10.019733947753906	0.19812018737792966	-0.22385785522460935	3.612518310546875	-4.364013671875	-2.124786376953125	
94	0.376	0.0	0.0	0.0	0.0	4.563	4.611	4.611	4.521	9.864709390258788	0.10354922180175781	0.05985504150390625	2.399444580078125	-3.631591796875	-0.8697509765625	9.783306533813477	0.4746504791259765	0.17178396911621094	0.93841552734375	-4.970550537109375	-2.90679931640625	10.01015714111328	0.19512743530273435	-0.21906945190429686	3.7078857421875	-4.55474853515625	-2.166748046875	
95	0.38	0.0	0.0	0.0	0.0	4.566	4.605	4.614	4.533	9.866505041503906	0.1005564697265625	0.06464344482421874	2.773284912109375	-3.631591796875	-0.988006591796875	9.785700735473633	0.4572925170898437	0.17776947326660156	0.77056884765625	-4.932403564453125	-2.9754638671875	10.000580334472655	0.18854338073730467	-0.21966800231933592	3.643035888671875	-4.489898681640625	-2.18963623046875	
96	0.384	0.0	0.0	0.0	0.0	4.563	4.611	4.614	4.548	9.898826763916015	0.10654197387695312	0.059256491088867186	2.6397705078125	-3.72314453125	-0.93841552734375	9.791087689208984	0.46507367248535153	0.17058686828613281	1.071929931640625	-4.87518310546875	-2.9449462890625	10.024522351074218	0.201112939453125	-0.22505495605468748	3.6468505859375	-4.444122314453125	-2.17437744140625	
97	0.388	0.0	0.0	0.0	0.0	4.557	4.6080000000000005	4.614	4.557	9.888052856445311	0.10714052429199218	0.07242460021972656	2.780914306640625	-3.509521484375	-0.759124755859375	9.78629928588867	0.4632780212402344	0.16639701538085935	1.068115234375	-5.107879638671875	-2.933502197265625	10.018536846923828	0.20051438903808594	-0.21487959899902342	3.6163330078125	-4.73785400390625	-2.086639404296875	
98	0.392	0.0	0.0	0.0	0.0	4.548	4.6080000000000005	4.611	4.5600000000000005	9.865307940673828	0.09337386474609374	0.06943184814453125	2.605438232421875	-3.910064697265625	-0.91552734375	9.782707983398437	0.4537012145996093	0.181959326171875	1.140594482421875	-4.8370361328125	-2.95257568359375	10.002375985717773	0.1867477294921875	-0.21428104858398436	3.509521484375	-4.49371337890625	-2.0294189453125	
99	0.396	0.0	0.0	0.0	0.0	4.5600000000000005	4.611	4.599	4.548	9.860519537353515	0.09457096557617187	0.06643909606933593	2.696990966796875	-3.68499755859375	-0.980377197265625	9.782707983398437	0.4560954162597656	0.17118541870117188	0.9765625	-4.95147705078125	-3.10516357421875	9.99160207824707	0.1897404815673828	-0.23642741394042968	3.787994384765625	-4.486083984375	-2.0751953125	
100	0.4	0.0	0.0	0.0	0.0	4.557	4.611	4.611	4.53	9.868300692749022	0.10175357055664062	0.06763619689941405	2.696990966796875	-3.80706787109375	-0.95367431640625	9.781510882568359	0.4626794708251953	0.17776947326660156	0.8087158203125	-5.0048828125	-2.964019775390625	10.001178884887695	0.19153613281249998	-0.22445640563964842	3.444671630859375	-4.634857177734375	-2.0599365234375	
101	0.404	0.0	0.0	0.0	0.0	4.566	4.6080000000000005	4.6080000000000005	4.521	9.871891995239258	0.08798691101074219	0.09457096557617187	2.471923828125	-3.520965576171875	-0.911712646484375	9.781510882568359	0.46028526916503903	0.181959326171875	0.946044921875	-4.82940673828125	-2.880096435546875	10.021529598999022	0.19632453613281248	-0.21068974609375	3.665924072265625	-4.619598388671875	-2.109527587890625	
102	0.40800000000000003	0.0	0.0	0.0	0.0	4.563	4.605	4.611	4.545	9.880271701049804	0.08379705810546874	0.07481880187988281	2.49481201171875	-3.692626953125	-0.774383544921875	9.789292037963866	0.46028526916503903	0.17417817077636719	0.99945068359375	-5.031585693359375	-3.139495849609375	10.017938296508788	0.1867477294921875	-0.22086510314941404	3.467559814453125	-4.50897216796875	-2.2125244140625	
103	0.41200000000000003	0.0	0.0	0.0	0.0	4.557	4.611	4.611	4.548	9.868899243164062	0.0909796630859375	0.08678981018066406	2.47955322265625	-3.803253173828125	-0.762939453125	9.784503634643555	0.46507367248535153	0.17178396911621094	0.67901611328125	-4.878997802734375	-3.10516357421875	10.016142645263672	0.19093758239746092	-0.22445640563964842	3.643035888671875	-4.64630126953125	-2.086639404296875	
104	0.41600000000000004	0.0	0.0	0.0	0.0	4.5600000000000005	4.611	4.611	4.551	9.86411083984375	0.08559270935058594	0.09217676391601562	2.635955810546875	-3.589630126953125	-1.03759765625	9.775525378417969	0.4471171600341797	0.1801636749267578	0.823974609375	-5.035400390625	-3.009796142578125	10.001178884887695	0.1657984649658203	-0.2041056915283203	3.82232666015625	-4.650115966796875	-2.18963623046875	
105	0.42	0.0	0.0	0.0	0.0	4.545	4.611	4.611	4.563	9.867702142333984	0.07481880187988281	0.08499415893554688	2.338409423828125	-3.803253173828125	-0.797271728515625	9.783905084228515	0.4423287567138672	0.19033903198242186	0.896453857421875	-5.21087646484375	-2.9754638671875	10.00417163696289	0.16819266662597654	-0.20051438903808594	3.543853759765625	-4.5623779296875	-2.0904541015625	
106	0.424	0.0	0.0	0.0	0.0	4.563	4.614	4.611	4.539	9.873687646484374	0.08439560852050781	0.07601590270996093	2.414703369140625	-3.79180908203125	-1.094818115234375	9.78689783630371	0.4525041137695312	0.19093758239746092	0.850677490234375	-4.947662353515625	-2.899169921875	10.014346994018554	0.16639701538085935	-0.2059013427734375	3.6773681640625	-4.69970703125	-2.071380615234375	
107	0.428	0.0	0.0	0.0	0.0	4.563	4.611	4.611	4.524	9.873687646484374	0.07841010437011718	0.07721300354003906	2.73895263671875	-3.7689208984375	-0.911712646484375	9.791087689208984	0.4423287567138672	0.1975216369628906	0.682830810546875	-4.90570068359375	-2.960205078125	10.01733974609375	0.16220716247558592	-0.19692308654785154	3.5400390625	-4.6234130859375	-2.11334228515625	
108	0.432	0.0	0.0	0.0	0.0	4.563	4.611	4.611	4.527	9.87727894897461	0.08379705810546874	0.09217676391601562	2.52532958984375	-3.57818603515625	-0.823974609375	9.78629928588867	0.43035774841308594	0.20829554443359374	0.92315673828125	-4.791259765625	-3.040313720703125	10.015544094848632	0.15562310791015624	-0.19333178405761717	3.7994384765625	-4.489898681640625	-2.231597900390625	
109	0.436	0.0	0.0	0.0	0.0	4.563	4.602	4.614	4.542	9.8694977935791	0.06883329772949218	0.076614453125	2.544403076171875	-3.6468505859375	-0.881195068359375	9.78689783630371	0.4417302062988281	0.201112939453125	1.071929931640625	-4.9285888671875	-2.96783447265625	10.013748443603514	0.16699556579589842	-0.201112939453125	3.570556640625	-4.680633544921875	-2.140045166015625	
110	0.44	0.0	0.0	0.0	0.0	4.557	4.611	4.6080000000000005	4.554	9.85752678527832	0.07122749938964844	0.07541735229492187	2.63214111328125	-3.597259521484375	-0.8697509765625	9.788693487548828	0.4321533996582031	0.18914193115234373	0.782012939453125	-5.1727294921875	-3.078460693359375	10.011354241943359	0.1562216583251953	-0.20231004028320312	3.673553466796875	-4.4097900390625	-2.17437744140625	
111	0.444	0.0	0.0	0.0	0.0	4.557	4.6080000000000005	4.611	4.557	9.85692823486328	0.07362170104980469	0.07003039855957031	2.605438232421875	-3.77655029296875	-0.8697509765625	9.777919580078125	0.43155484924316406	0.181959326171875	0.720977783203125	-4.787445068359375	-3.0517578125	10.008960040283203	0.15023615417480468	-0.20231004028320312	3.59344482421875	-4.688262939453125	-2.239227294921875	
112	0.448	0.0	0.0	0.0	0.0	4.542	4.611	4.605	4.5600000000000005	9.867702142333984	0.08439560852050781	0.05985504150390625	2.498626708984375	-3.810882568359375	-0.83160400390625	9.784503634643555	0.4423287567138672	0.17836802368164062	0.9613037109375	-4.978179931640625	-3.082275390625	10.015544094848632	0.16460136413574217	-0.201112939453125	3.261566162109375	-4.486083984375	-2.06756591796875	
113	0.452	0.0	0.0	0.0	0.0	4.5600000000000005	4.611	4.6080000000000005	4.53	9.873089096069336	0.08020575561523437	0.04908113403320312	2.544403076171875	-3.833770751953125	-0.93841552734375	9.789890588378906	0.4417302062988281	0.15562310791015624	0.9765625	-4.82177734375	-2.98309326171875	10.013149893188476	0.17477672119140625	-0.21487959899902342	3.53240966796875	-4.360198974609375	-1.964569091796875	
114	0.456	0.0	0.0	0.0	0.0	4.566	4.6080000000000005	4.611	4.518	9.873687646484374	0.08080430603027343	0.047884033203124995	2.620697021484375	-3.41033935546875	-1.16729736328125	9.78031378173828	0.4417302062988281	0.1640028137207031	1.346588134765625	-4.99725341796875	-3.0670166015625	10.018536846923828	0.1657984649658203	-0.23104046020507812	3.536224365234375	-4.306793212890625	-2.101898193359375	
115	0.46	0.0	0.0	0.0	0.0	4.563	4.6080000000000005	4.614	4.5360000000000005	9.865307940673828	0.09337386474609374	0.032920272827148434	2.613067626953125	-3.60870361328125	-0.91552734375	9.77492682800293	0.4626794708251953	0.16041151123046873	0.946044921875	-5.077362060546875	-3.116607666015625	10.011952792358398	0.1867477294921875	-0.2454056701660156	3.662109375	-4.528045654296875	-2.033233642578125	
116	0.464	0.0	0.0	0.0	0.0	4.5600000000000005	4.614	4.614	4.554	9.87069489440918	0.08918401184082031	0.03172317199707031	2.62451171875	-3.787994384765625	-0.96893310546875	9.785700735473633	0.4674678741455078	0.15382745666503905	0.911712646484375	-5.035400390625	-3.017425537109375	10.011952792358398	0.19692308654785154	-0.2501940734863281	3.787994384765625	-4.619598388671875	-1.926422119140625	
117	0.468	0.0	0.0	0.0	0.0	4.557	4.6080000000000005	4.605	4.554	9.87608184814453	0.1083376251220703	0.034715924072265626	2.498626708984375	-3.543853759765625	-0.762939453125	9.789292037963866	0.46148236999511716	0.12569558715820311	0.99945068359375	-4.856109619140625	-3.07464599609375	10.013748443603514	0.1927332336425781	-0.26396073303222656	3.631591796875	-4.6234130859375	-2.26593017578125	
118	0.47200000000000003	0.0	0.0	0.0	0.0	4.548	4.611	4.611	4.5600000000000005	9.874884747314452	0.11252747802734374	0.029927520751953124	2.4566650390625	-3.692626953125	-1.06048583984375	9.789890588378906	0.48243163452148435	0.12509703674316405	0.904083251953125	-4.852294921875	-2.9449462890625	10.012551342773437	0.2059013427734375	-0.27952304382324217	3.772735595703125	-4.657745361328125	-2.044677734375	
119	0.47600000000000003	0.0	0.0	0.0	0.0	4.5600000000000005	4.611	4.611	4.548	9.873687646484374	0.12449848632812499	0.017956512451171875	2.597808837890625	-3.749847412109375	-0.8392333984375	9.781510882568359	0.4860229370117187	0.12988544006347655	0.881195068359375	-4.932403564453125	-2.98309326171875	10.011354241943359	0.21009119567871093	-0.277727392578125	3.6468505859375	-4.421234130859375	-2.079010009765625	
120	0.48	0.0	0.0	0.0	0.0	4.563	4.611	4.611	4.527	9.866505041503906	0.12090718383789062	0.025139117431640625	2.811431884765625	-3.597259521484375	-0.86212158203125	9.782707983398437	0.47584757995605464	0.13407529296874998	0.95367431640625	-5.062103271484375	-2.9296875	10.008960040283203	0.20530279235839843	-0.2771288421630859	3.4027099609375	-4.53948974609375	-2.18963623046875	
121	0.484	0.0	0.0	0.0	0.0	4.566	4.611	4.611	4.524	9.861716638183593	0.11432312927246092	0.03950432739257812	2.559661865234375	-3.993988037109375	-0.919342041015625	9.788693487548828	0.4800374328613281	0.12988544006347655	0.774383544921875	-4.82177734375	-3.08990478515625	10.008361489868163	0.21068974609375	-0.26695348510742184	3.559112548828125	-4.367828369140625	-2.094268798828125	
122	0.488	0.0	0.0	0.0	0.0	4.5600000000000005	4.605	4.614	4.542	9.87608184814453	0.12389993591308593	0.02454056701660156	2.40325927734375	-3.604888916015625	-0.96893310546875	9.792284790039062	0.4908113403320312	0.13347674255371092	1.861572265625	-4.791259765625	-3.0975341796875	10.012551342773437	0.21188684692382811	-0.2711433380126953	3.6163330078125	-4.5623779296875	-2.162933349609375	
123	0.492	0.0	0.0	0.0	0.0	4.5600000000000005	4.611	4.611	4.554	9.874286196899414	0.1131260284423828	0.023343466186523436	2.452850341796875	-3.665924072265625	-0.965118408203125	9.791087689208984	0.4830301849365234	0.13287819213867186	0.606536865234375	-4.955291748046875	-2.9449462890625	10.014346994018554	0.2232593048095703	-0.2699462371826172	3.665924072265625	-4.703521728515625	-2.132415771484375	
124	0.496	0.0	0.0	0.0	0.0	4.554	4.611	4.611	4.554	9.872490545654296	0.12090718383789062	0.030526071166992186	2.5482177734375	-3.997802734375	-0.850677490234375	9.785102185058593	0.48243163452148435	0.1388636962890625	0.896453857421875	-4.79888916015625	-3.078460693359375	10.019733947753906	0.20709844360351562	-0.24839842224121092	3.444671630859375	-4.52423095703125	-1.995086669921875	
125	0.5	0.0	0.0	0.0	0.0	4.545	4.611	4.6080000000000005	4.563	9.868899243164062	0.11432312927246092	0.018555062866210937	2.605438232421875	-3.673553466796875	-0.9002685546875	9.772532626342773	0.49021278991699213	0.15083470458984374	0.919342041015625	-5.023956298828125	-3.1280517578125	10.011952792358398	0.2154781494140625	-0.239420166015625	3.3111572265625	-4.7607421875	-2.101898193359375	
126	0.504	0.0	0.0	0.0	0.0	4.563	4.605	4.6080000000000005	4.5360000000000005	9.866505041503906	0.11791443176269531	0.03232172241210937	2.6702880859375	-3.536224365234375	-0.873565673828125	9.787496386718749	0.489015689086914	0.1592144104003906	0.911712646484375	-5.092620849609375	-3.11279296875	10.01075569152832	0.21188684692382811	-0.23044190979003906	3.734588623046875	-4.848480224609375	-2.819061279296875	
127	0.508	0.0	0.0	0.0	0.0	4.563	4.614	4.611	4.524	9.867702142333984	0.11372457885742186	0.04369418029785156	2.685546875	-3.62396240234375	-0.949859619140625	9.784503634643555	0.4842272857666015	0.1610100616455078	0.7476806640625	-4.886627197265625	-2.834320068359375	10.01733974609375	0.20709844360351562	-0.2328361114501953	3.604888916015625	-4.425048828125	-2.292633056640625	
128	0.512	0.0	0.0	0.0	0.0	4.566	4.611	4.614	4.533	9.87069489440918	0.11851298217773437	0.05386953735351562	2.468109130859375	-3.681182861328125	-0.728607177734375	9.78629928588867	0.49380409240722656	0.16819266662597654	1.125335693359375	-5.096435546875	-3.032684326171875	10.025719451904296	0.20171148986816406	-0.23582886352539062	3.59344482421875	-4.53948974609375	-2.117156982421875	
129	0.516	0.0	0.0	0.0	0.0	4.566	4.602	4.614	4.548	9.878476049804688	0.12090718383789062	0.052073886108398436	2.521514892578125	-3.97491455078125	-1.007080078125	9.788693487548828	0.4955997436523437	0.16699556579589842	0.77056884765625	-4.82940673828125	-2.994537353515625	10.019733947753906	0.2214636535644531	-0.22685060729980466	3.63922119140625	-4.7454833984375	-2.124786376953125	
130	0.52	0.0	0.0	0.0	0.0	4.554	4.611	4.614	4.554	9.87009634399414	0.12330138549804687	0.05805939025878906	2.559661865234375	-3.826141357421875	-1.02996826171875	9.780912332153319	0.4860229370117187	0.16340426330566404	0.9307861328125	-4.8828125	-3.116607666015625	10.019733947753906	0.21188684692382811	-0.22864625854492185	3.482818603515625	-4.428863525390625	-2.05230712890625	
131	0.524	0.0	0.0	0.0	0.0	4.551	4.611	4.611	4.5600000000000005	9.86411083984375	0.10773907470703124	0.06045359191894531	2.5634765625	-3.6773681640625	-0.873565673828125	9.779116680908203	0.489015689086914	0.16460136413574217	1.003265380859375	-4.886627197265625	-2.994537353515625	10.012551342773437	0.21487959899902342	-0.22864625854492185	3.704071044921875	-4.840850830078125	-2.170562744140625	
132	0.528	0.0	0.0	0.0	0.0	4.5600000000000005	4.614	4.605	4.5600000000000005	9.87009634399414	0.1083376251220703	0.061650692749023434	2.399444580078125	-3.4942626953125	-0.873565673828125	9.78031378173828	0.489015689086914	0.17417817077636719	0.827789306640625	-5.054473876953125	-3.116607666015625	10.018536846923828	0.2166752502441406	-0.2262520568847656	3.41033935546875	-4.405975341796875	-1.964569091796875	
133	0.532	0.0	0.0	0.0	0.0	4.5600000000000005	4.6080000000000005	4.611	4.533	9.867702142333984	0.10953472595214843	0.07122749938964844	2.407073974609375	-3.7994384765625	-1.02996826171875	9.781510882568359	0.48243163452148435	0.17058686828613281	0.81634521484375	-5.0201416015625	-3.002166748046875	10.000580334472655	0.20769699401855468	-0.24061726684570311	3.444671630859375	-4.6234130859375	-2.140045166015625	
134	0.536	0.0	0.0	0.0	0.0	4.563	4.6080000000000005	4.6080000000000005	4.521	9.874286196899414	0.11073182678222655	0.07122749938964844	2.66265869140625	-3.6468505859375	-1.117706298828125	9.789890588378906	0.47884033203125	0.16759411621093748	0.759124755859375	-4.98199462890625	-2.895355224609375	10.01075569152832	0.20649989318847656	-0.22086510314941404	3.73077392578125	-4.627227783203125	-2.13623046875	
135	0.54	0.0	0.0	0.0	0.0	4.563	4.6080000000000005	4.614	4.542	9.868899243164062	0.1149216796875	0.062249243164062495	2.5482177734375	-3.604888916015625	-0.6866455078125	9.777919580078125	0.4782417816162109	0.17597382202148437	0.90789794921875	-4.901885986328125	-2.9449462890625	10.01075569152832	0.19871873779296872	-0.23523031311035156	3.66973876953125	-4.413604736328125	-2.06756591796875	
136	0.544	0.0	0.0	0.0	0.0	4.5600000000000005	4.611	4.614	4.551	9.865307940673828	0.10354922180175781	0.08738836059570312	2.51007080078125	-3.68499755859375	-0.9765625	9.776722479248047	0.47884033203125	0.17357962036132812	0.84686279296875	-4.993438720703125	-3.01361083984375	10.007762939453125	0.19512743530273435	-0.22445640563964842	3.5858154296875	-4.726409912109375	-2.002716064453125	
137	0.548	0.0	0.0	0.0	0.0	4.557	4.611	4.611	4.557	9.8694977935791	0.10115502014160156	0.07422025146484375	2.735137939453125	-3.795623779296875	-0.9613037109375	9.779715231323241	0.4608838195800781	0.17298106994628906	0.95367431640625	-5.19561767578125	-3.24249267578125	10.011952792358398	0.19393033447265623	-0.21787235107421873	3.467559814453125	-4.596710205078125	-2.353668212890625	
138	0.552	0.0	0.0	0.0	0.0	4.545	4.611	4.611	4.5600000000000005	9.874884747314452	0.09696516723632811	0.07721300354003906	2.52532958984375	-3.482818603515625	-0.8392333984375	9.78689783630371	0.4656722229003906	0.1693897674560547	1.010894775390625	-5.035400390625	-2.933502197265625	10.01733974609375	0.19153613281249998	-0.2166752502441406	3.448486328125	-4.63104248046875	-2.132415771484375	
139	0.556	0.0	0.0	0.0	0.0	4.5600000000000005	4.611	4.614	4.542	9.867103591918944	0.09636661682128905	0.0796072052001953	2.590179443359375	-3.520965576171875	-0.9307861328125	9.777321029663085	0.4572925170898437	0.18255787658691405	0.934600830078125	-5.123138427734375	-2.994537353515625	10.02990930480957	0.19033903198242186	-0.2088940948486328	3.604888916015625	-4.665374755859375	-2.117156982421875	
140	0.56	0.0	0.0	0.0	0.0	4.5600000000000005	4.605	4.6080000000000005	4.524	9.861716638183593	0.08020575561523437	0.07900865478515624	2.64739990234375	-3.719329833984375	-0.9613037109375	9.779116680908203	0.45070846252441404	0.1927332336425781	0.873565673828125	-4.947662353515625	-2.910614013671875	10.020332498168944	0.17477672119140625	-0.21188684692382811	3.620147705078125	-4.7149658203125	-2.12860107421875	
141	0.5640000000000001	0.0	0.0	0.0	0.0	4.566	4.611	4.611	4.527	9.867702142333984	0.07900865478515624	0.07900865478515624	2.590179443359375	-3.41796875	-0.751495361328125	9.781510882568359	0.4435258575439453	0.19153613281249998	0.96893310546875	-5.126953125	-3.337860107421875	10.015544094848632	0.16340426330566404	-0.20171148986816406	3.6468505859375	-4.69207763671875	-2.307891845703125	
142	0.5680000000000001	0.0	0.0	0.0	0.0	4.566	4.605	4.614	4.545	9.86291373901367	0.07900865478515624	0.0718260498046875	2.5787353515625	-3.692626953125	-0.957489013671875	9.776722479248047	0.4387374542236328	0.18435352783203124	0.75531005859375	-4.82940673828125	-3.8909912109375	10.011354241943359	0.16041151123046873	-0.19512743530273435	3.238677978515625	-4.4708251953125	-2.0294189453125	
143	0.5720000000000001	0.0	0.0	0.0	0.0	4.5600000000000005	4.611	4.614	4.554	9.879074600219726	0.07362170104980469	0.07302315063476562	2.49481201171875	-3.559112548828125	-0.80108642578125	9.779715231323241	0.43454760131835934	0.1879448303222656	0.92315673828125	-4.749298095703125	-3.173828125	10.007762939453125	0.15083470458984374	-0.1879448303222656	3.448486328125	-4.50897216796875	-2.193450927734375	
144	0.5760000000000001	0.0	0.0	0.0	0.0	4.554	4.6080000000000005	4.611	4.554	9.877877499389648	0.07422025146484375	0.07781155395507812	2.223968505859375	-3.47137451171875	-0.995635986328125	9.788094937133788	0.421978042602539	0.18435352783203124	0.75531005859375	-4.75311279296875	-3.116607666015625	10.016142645263672	0.15682020874023436	-0.1945288848876953	3.597259521484375	-4.6539306640625	-2.262115478515625	
145	0.58	0.0	0.0	0.0	0.0	4.542	4.611	4.605	4.5600000000000005	9.8694977935791	0.07841010437011718	0.076614453125	2.735137939453125	-3.70025634765625	-0.87738037109375	9.787496386718749	0.4375403533935547	0.17657237243652343	0.904083251953125	-5.1727294921875	-3.116607666015625	10.014945544433592	0.16160861206054686	-0.19572598571777342	3.570556640625	-4.436492919921875	-2.147674560546875	
146	0.584	0.0	0.0	0.0	0.0	4.5600000000000005	4.614	4.611	4.533	9.873687646484374	0.07541735229492187	0.07122749938964844	2.7313232421875	-3.53240966796875	-0.751495361328125	9.788693487548828	0.4375403533935547	0.17417817077636719	1.2359619140625	-5.218505859375	-3.223419189453125	10.007164389038085	0.15682020874023436	-0.19333178405761717	3.650665283203125	-4.45556640625	-1.8463134765625	
147	0.588	0.0	0.0	0.0	0.0	4.563	4.611	4.611	4.521	9.874286196899414	0.0652419952392578	0.06464344482421874	2.716064453125	-3.91387939453125	-0.919342041015625	9.777919580078125	0.44053310546874996	0.17896657409667968	0.904083251953125	-4.848480224609375	-2.765655517578125	10.007762939453125	0.16639701538085935	-0.21428104858398436	3.582000732421875	-4.5318603515625	-2.09808349609375	
148	0.592	0.0	0.0	0.0	0.0	4.566	4.611	4.611	4.5360000000000005	9.866505041503906	0.0718260498046875	0.06404489440917968	2.44140625	-3.5858154296875	-1.02996826171875	9.783306533813477	0.4483142608642578	0.16699556579589842	0.911712646484375	-5.069732666015625	-3.04412841796875	10.008361489868163	0.1657984649658203	-0.23403321228027343	3.570556640625	-4.53948974609375	-2.109527587890625	
149	0.596	0.0	0.0	0.0	0.0	4.566	4.614	4.614	4.548	9.8694977935791	0.07362170104980469	0.059256491088867186	2.67791748046875	-3.620147705078125	-0.896453857421875	9.785102185058593	0.4537012145996093	0.1562216583251953	0.9613037109375	-4.962921142578125	-3.101348876953125	10.002974536132811	0.1753752716064453	-0.23642741394042968	3.650665283203125	-4.665374755859375	-2.079010009765625	
150	0.6	0.0	0.0	0.0	0.0	4.557	4.611	4.614	4.551	9.874286196899414	0.07841010437011718	0.04848258361816406	2.38037109375	-3.70025634765625	-0.858306884765625	9.78689783630371	0.46627077331542965	0.14425065002441406	0.80108642578125	-4.962921142578125	-3.04412841796875	10.01015714111328	0.18435352783203124	-0.2376245147705078	3.4637451171875	-4.299163818359375	-1.972198486328125	
151	0.604	0.0	0.0	0.0	0.0	4.548	4.6080000000000005	4.611	4.5600000000000005	9.883264453125	0.09038111267089843	0.05087678527832031	2.841949462890625	-3.48663330078125	-0.8697509765625	9.791087689208984	0.44592005920410155	0.143652099609375	1.01470947265625	-4.917144775390625	-2.8076171875	10.01733974609375	0.19572598571777342	-0.2549824768066406	3.63922119140625	-4.608154296875	-2.193450927734375	
152	0.608	0.0	0.0	0.0	0.0	4.5600000000000005	4.614	4.602	4.551	9.87608184814453	0.09217676391601562	0.04369418029785156	2.60162353515625	-3.7078857421875	-0.8697509765625	9.784503634643555	0.4626794708251953	0.1304839904785156	0.9002685546875	-4.962921142578125	-3.11279296875	10.029310754394531	0.1879448303222656	-0.25139117431640623	3.387451171875	-4.772186279296875	-2.162933349609375	
153	0.612	0.0	0.0	0.0	0.0	4.5600000000000005	4.614	4.611	4.527	9.866505041503906	0.09756371765136718	0.03411737365722656	2.460479736328125	-3.643035888671875	-1.15966796875	9.783905084228515	0.46507367248535153	0.14305354919433594	1.09100341796875	-4.978179931640625	-2.887725830078125	10.020332498168944	0.18734627990722655	-0.26336218261718747	3.76129150390625	-4.482269287109375	-2.246856689453125	
154	0.616	0.0	0.0	0.0	0.0	4.569	4.611	4.611	4.521	9.87009634399414	0.09995791931152344	0.04668693237304687	2.819061279296875	-3.82232666015625	-0.92315673828125	9.780912332153319	0.47105917663574215	0.13946224670410157	0.72479248046875	-4.993438720703125	-3.170013427734375	10.020332498168944	0.19991583862304688	-0.2657563842773437	3.5858154296875	-4.543304443359375	-2.056121826171875	
155	0.62	0.0	0.0	0.0	0.0	4.566	4.611	4.611	4.545	9.880271701049804	0.10474632263183593	0.033518823242187495	2.44903564453125	-3.627777099609375	-0.89263916015625	9.78031378173828	0.47165772705078124	0.14305354919433594	0.80108642578125	-5.04302978515625	-2.948760986328125	10.01733974609375	0.20290859069824219	-0.26755203552246093	3.437042236328125	-4.314422607421875	-2.079010009765625	
156	0.624	0.0	0.0	0.0	0.0	4.5600000000000005	4.611	4.614	4.554	9.87608184814453	0.10714052429199218	0.02454056701660156	2.712249755859375	-3.902435302734375	-1.07574462890625	9.777919580078125	0.47105917663574215	0.14245499877929688	1.13677978515625	-4.848480224609375	-3.093719482421875	10.025719451904296	0.20530279235839843	-0.26815058593749996	3.620147705078125	-4.5013427734375	-2.2430419921875	
157	0.628	0.0	0.0	0.0	0.0	4.557	4.611	4.611	4.551	9.873687646484374	0.10773907470703124	0.027533319091796873	2.5787353515625	-3.589630126953125	-0.743865966796875	9.782109432983399	0.48063598327636714	0.13467384338378904	0.904083251953125	-4.856109619140625	-3.07464599609375	10.007762939453125	0.20829554443359374	-0.2597708801269531	3.60107421875	-4.55474853515625	-2.0599365234375	
158	0.632	0.0	0.0	0.0	0.0	4.548	4.611	4.6080000000000005	4.563	9.874286196899414	0.12210428466796874	0.02693476867675781	2.735137939453125	-3.681182861328125	-0.888824462890625	9.782707983398437	0.47285482788085936	0.143652099609375	1.15966796875	-4.8065185546875	-3.017425537109375	10.005368737792969	0.20470424194335937	-0.2549824768066406	3.757476806640625	-4.608154296875	-2.15911865234375	
159	0.636	0.0	0.0	0.0	0.0	4.563	4.611	4.611	4.542	9.87069489440918	0.11611878051757812	0.03531447448730469	2.613067626953125	-3.604888916015625	-0.9918212890625	9.785700735473633	0.47165772705078124	0.15083470458984374	1.003265380859375	-5.157470703125	-3.223419189453125	10.016142645263672	0.20470424194335937	-0.24121581726074218	3.482818603515625	-4.57763671875	-2.12860107421875	
160	0.64	0.0	0.0	0.0	0.0	4.563	4.614	4.611	4.527	9.874884747314452	0.11372457885742186	0.0383072265625	2.513885498046875	-3.71551513671875	-0.946044921875	9.780912332153319	0.47764323120117186	0.15562310791015624	0.93841552734375	-4.94384765625	-3.131866455078125	10.006565838623047	0.2041056915283203	-0.23582886352539062	3.45611572265625	-4.550933837890625	-2.0904541015625	
161	0.644	0.0	0.0	0.0	0.0	4.569	4.611	4.611	4.53	9.880870251464843	0.11731588134765625	0.03651157531738281	2.712249755859375	-3.734588623046875	-0.95367431640625	9.789292037963866	0.4752490295410156	0.1484405029296875	1.09100341796875	-5.146026611328125	-3.0670166015625	10.015544094848632	0.2041056915283203	-0.2328361114501953	3.559112548828125	-4.55474853515625	-2.34222412109375	
162	0.648	0.0	0.0	0.0	0.0	4.563	4.599	4.614	4.545	9.867103591918944	0.11552023010253906	0.04189852905273437	2.582550048828125	-3.54766845703125	-0.95367431640625	9.78629928588867	0.48123453369140623	0.14963760375976562	0.934600830078125	-4.985809326171875	-3.08990478515625	10.00417163696289	0.2166752502441406	-0.23104046020507812	3.353118896484375	-4.6539306640625	-2.124786376953125	
163	0.652	0.0	0.0	0.0	0.0	4.5600000000000005	4.611	4.614	4.557	9.866505041503906	0.12808978881835936	0.04189852905273437	2.651214599609375	-3.780364990234375	-0.75531005859375	9.788693487548828	0.4860229370117187	0.1514332550048828	0.96893310546875	-4.810333251953125	-3.04412841796875	10.011354241943359	0.2154781494140625	-0.2232593048095703	3.574371337890625	-4.486083984375	-1.97601318359375	
164	0.656	0.0	0.0	0.0	0.0	4.548	4.6080000000000005	4.611	4.557	9.874884747314452	0.11671733093261719	0.04848258361816406	2.704620361328125	-3.50189208984375	-1.003265380859375	9.785102185058593	0.48722003784179685	0.15322890625	0.835418701171875	-4.8065185546875	-2.7313232421875	10.017938296508788	0.21787235107421873	-0.23223756103515625	3.662109375	-4.535675048828125	-2.1209716796875	
165	0.66	0.0	0.0	0.0	0.0	4.545	4.614	4.605	4.563	9.87668039855957	0.12808978881835936	0.05985504150390625	2.422332763671875	-3.536224365234375	-0.8392333984375	9.782707983398437	0.48063598327636714	0.16220716247558592	1.02996826171875	-4.955291748046875	-2.902984619140625	10.020332498168944	0.2232593048095703	-0.23882161560058593	3.505706787109375	-4.66156005859375	-2.4261474609375	
166	0.664	0.0	0.0	0.0	0.0	4.563	4.614	4.611	4.533	9.87608184814453	0.12868833923339842	0.051475335693359374	3.0059814453125	-3.662109375	-0.732421875	9.783905084228515	0.49320554199218747	0.17238251953125	0.919342041015625	-5.039215087890625	-2.971649169921875	10.01075569152832	0.20350714111328125	-0.23822306518554687	3.688812255859375	-4.32586669921875	-2.246856689453125	
167	0.668	0.0	0.0	0.0	0.0	4.566	4.611	4.611	4.521	9.8694977935791	0.12210428466796874	0.04668693237304687	2.452850341796875	-3.787994384765625	-1.0833740234375	9.779116680908203	0.4950011932373047	0.16280571289062498	1.140594482421875	-5.035400390625	-3.101348876953125	10.008960040283203	0.20171148986816406	-0.23822306518554687	3.5247802734375	-4.482269287109375	-1.922607421875	
168	0.672	0.0	0.0	0.0	0.0	4.5600000000000005	4.6080000000000005	4.614	4.5360000000000005	9.874884747314452	0.12389993591308593	0.04967968444824218	2.582550048828125	-3.643035888671875	-0.885009765625	9.775525378417969	0.49200844116210934	0.16759411621093748	0.99945068359375	-4.7454833984375	-3.108978271484375	10.002974536132811	0.20829554443359374	-0.23343466186523437	3.6163330078125	-4.6844482421875	-2.1209716796875	
169	0.676	0.0	0.0	0.0	0.0	4.563	4.611	4.614	4.548	9.871293444824218	0.12689268798828124	0.05686228942871093	2.685546875	-3.79180908203125	-0.850677490234375	9.788693487548828	0.4842272857666015	0.16819266662597654	0.9613037109375	-4.978179931640625	-3.116607666015625	10.005368737792969	0.20649989318847656	-0.23702596435546874	3.452301025390625	-4.810333251953125	-2.063751220703125	
170	0.68	0.0	0.0	0.0	0.0	4.557	4.611	4.614	4.557	9.874286196899414	0.12569558715820311	0.06823474731445311	2.685546875	-3.80706787109375	-0.8544921875	9.78629928588867	0.48662148742675776	0.16519991455078123	0.67901611328125	-5.035400390625	-3.19671630859375	10.019733947753906	0.19812018737792966	-0.2328361114501953	3.71551513671875	-4.47845458984375	-2.239227294921875	
171	0.684	0.0	0.0	0.0	0.0	4.545	4.6080000000000005	4.605	4.563	9.882067352294921	0.11252747802734374	0.06703764648437499	2.521514892578125	-3.4942626953125	-0.93841552734375	9.783905084228515	0.47704468078613277	0.1693897674560547	0.762939453125	-5.18035888671875	-3.01361083984375	10.016142645263672	0.20949264526367187	-0.22505495605468748	3.72314453125	-4.566192626953125	-2.1514892578125	
172	0.6880000000000001	0.0	0.0	0.0	0.0	4.563	4.614	4.611	4.548	9.885658654785155	0.11192892761230468	0.07841010437011718	2.655029296875	-3.955841064453125	-0.804901123046875	9.779116680908203	0.47105917663574215	0.18315642700195311	0.64849853515625	-4.75311279296875	-2.87628173828125	10.016142645263672	0.20290859069824219	-0.2214636535644531	3.543853759765625	-4.52423095703125	-2.155303955078125	
173	0.6920000000000001	0.0	0.0	0.0	0.0	4.5600000000000005	4.611	4.611	4.527	9.88266590270996	0.11073182678222655	0.07841010437011718	2.498626708984375	-3.467559814453125	-0.904083251953125	9.780912332153319	0.4638765716552734	0.19632453613281248	0.965118408203125	-4.917144775390625	-2.994537353515625	10.01733974609375	0.1927332336425781	-0.21009119567871093	3.719329833984375	-4.482269287109375	-2.101898193359375	
174	0.6960000000000001	0.0	0.0	0.0	0.0	4.566	4.611	4.611	4.524	9.868300692749022	0.1005564697265625	0.07422025146484375	2.376556396484375	-3.692626953125	-0.64849853515625	9.788693487548828	0.4626794708251953	0.18555062866210936	0.934600830078125	-4.8370361328125	-2.9449462890625	10.019733947753906	0.1927332336425781	-0.21009119567871093	3.490447998046875	-4.489898681640625	-2.05230712890625	
175	0.7000000000000001	0.0	0.0	0.0	0.0	4.566	4.6080000000000005	4.614	4.545	9.880271701049804	0.09217676391601562	0.07481880187988281	2.483367919921875	-3.780364990234375	-0.84686279296875	9.788693487548828	0.4578910675048828	0.1867477294921875	0.7476806640625	-4.741668701171875	-2.98309326171875	10.016142645263672	0.1897404815673828	-0.20949264526367187	3.696441650390625	-4.474639892578125	-2.048492431640625	
176	0.704	0.0	0.0	0.0	0.0	4.5600000000000005	4.611	4.611	4.551	9.87608184814453	0.08858546142578125	0.07422025146484375	2.6092529296875	-3.62396240234375	-1.007080078125	9.790489138793944	0.4525041137695312	0.18614917907714842	0.904083251953125	-4.901885986328125	-3.139495849609375	10.01674119567871	0.17597382202148437	-0.20051438903808594	3.612518310546875	-4.474639892578125	-2.071380615234375	
177	0.708	0.0	0.0	0.0	0.0	4.557	4.611	4.611	4.554	9.8694977935791	0.08559270935058594	0.0796072052001953	2.61688232421875	-3.37982177734375	-0.720977783203125	9.78629928588867	0.4447229583740234	0.18614917907714842	1.117706298828125	-5.04302978515625	-3.0517578125	10.022128149414062	0.1771709228515625	-0.20171148986816406	3.620147705078125	-4.4708251953125	-2.1514892578125	
178	0.712	0.0	0.0	0.0	0.0	4.542	4.611	4.602	4.563	9.87608184814453	0.08379705810546874	0.07302315063476562	2.330780029296875	-3.429412841796875	-0.858306884765625	9.777321029663085	0.4435258575439453	0.18854338073730467	0.9307861328125	-5.130767822265625	-2.99835205078125	10.013149893188476	0.16340426330566404	-0.19632453613281248	3.513336181640625	-4.634857177734375	-2.2430419921875	
179	0.716	0.0	0.0	0.0	0.0	4.563	4.611	4.611	4.539	9.878476049804688	0.086191259765625	0.07841010437011718	2.490997314453125	-3.414154052734375	-1.03759765625	9.787496386718749	0.4387374542236328	0.1849520782470703	0.98419189453125	-5.039215087890625	-3.139495849609375	10.016142645263672	0.15861585998535155	-0.1975216369628906	3.528594970703125	-4.611968994140625	-2.09808349609375	
180	0.72	0.0	0.0	0.0	0.0	4.5600000000000005	4.611	4.611	4.524	9.872490545654296	0.08319850769042968	0.076614453125	2.69317626953125	-3.826141357421875	-0.774383544921875	9.792284790039062	0.44412440795898434	0.1849520782470703	0.79345703125	-5.0811767578125	-3.086090087890625	10.01015714111328	0.16160861206054686	-0.1927332336425781	3.414154052734375	-4.695892333984375	-2.25067138671875	
181	0.724	0.0	0.0	0.0	0.0	4.5600000000000005	4.611	4.611	4.53	9.8694977935791	0.08140285644531249	0.06643909606933593	2.552032470703125	-3.8299560546875	-0.034332275390625	9.788693487548828	0.4375403533935547	0.18315642700195311	1.010894775390625	-4.90570068359375	-3.18145751953125	10.01015714111328	0.1640028137207031	-0.21787235107421873	3.520965576171875	-4.718780517578125	-2.3193359375	
182	0.728	0.0	0.0	0.0	0.0	4.563	4.605	4.614	4.548	9.865307940673828	0.07781155395507812	0.05686228942871093	2.5787353515625	-3.8604736328125	-0.759124755859375	9.775525378417969	0.4387374542236328	0.17357962036132812	0.9002685546875	-5.260467529296875	-2.98309326171875	10.017938296508788	0.1771709228515625	-0.21428104858398436	3.72314453125	-4.512786865234375	-2.216339111328125	
183	0.732	0.0	0.0	0.0	0.0	4.563	4.6080000000000005	4.611	4.551	9.881468801879882	0.07242460021972656	0.054468087768554684	2.52532958984375	-3.604888916015625	-1.018524169921875	9.789292037963866	0.4483142608642578	0.16639701538085935	0.74005126953125	-4.61578369140625	-3.025054931640625	10.019733947753906	0.17836802368164062	-0.22505495605468748	3.509521484375	-4.486083984375	-2.197265625	
184	0.736	0.0	0.0	0.0	0.0	4.551	4.6080000000000005	4.611	4.563	9.877877499389648	0.08259995727539061	0.05805939025878906	2.689361572265625	-3.772735595703125	-1.026153564453125	9.789890588378906	0.4429273071289062	0.16759411621093748	1.1138916015625	-4.8828125	-2.9296875	10.012551342773437	0.18315642700195311	-0.22864625854492185	3.429412841796875	-4.4708251953125	-2.170562744140625	
185	0.74	0.0	0.0	0.0	0.0	4.563	4.6080000000000005	4.602	4.5600000000000005	9.87668039855957	0.09038111267089843	0.05327098693847656	2.635955810546875	-3.780364990234375	-0.732421875	9.789890588378906	0.45010991210937495	0.1580173095703125	1.186370849609375	-4.970550537109375	-3.070831298828125	10.014945544433592	0.1771709228515625	-0.2442085693359375	3.551483154296875	-4.44793701171875	-2.105712890625	
186	0.744	0.0	0.0	0.0	0.0	4.5600000000000005	4.614	4.6080000000000005	4.533	9.873687646484374	0.0796072052001953	0.04967968444824218	2.269744873046875	-3.627777099609375	-1.02996826171875	9.785700735473633	0.45669396667480466	0.15502455749511718	0.896453857421875	-5.283355712890625	-3.04412841796875	10.013149893188476	0.17178396911621094	-0.23343466186523437	3.513336181640625	-4.4097900390625	-2.288818359375	
187	0.748	0.0	0.0	0.0	0.0	4.569	4.611	4.6080000000000005	4.521	9.878476049804688	0.09157821350097656	0.04967968444824218	2.38800048828125	-3.559112548828125	-0.9918212890625	9.785102185058593	0.45669396667480466	0.15083470458984374	0.949859619140625	-5.016326904296875	-3.0059814453125	10.019733947753906	0.1849520782470703	-0.24839842224121092	3.6468505859375	-4.58526611328125	-2.05230712890625	
188	0.752	0.0	0.0	0.0	0.0	4.5600000000000005	4.6080000000000005	4.614	4.542	9.873089096069336	0.09576806640624999	0.05087678527832031	2.685546875	-3.932952880859375	-0.904083251953125	9.788693487548828	0.4531026641845703	0.15562310791015624	0.9002685546875	-4.6844482421875	-2.986907958984375	10.014945544433592	0.18136077575683593	-0.2501940734863281	3.597259521484375	-4.547119140625	-1.97601318359375	
189	0.756	0.0	0.0	0.0	0.0	4.5600000000000005	4.611	4.614	4.551	9.871293444824218	0.07900865478515624	0.04848258361816406	2.292633056640625	-3.51715087890625	-0.736236572265625	9.78689783630371	0.4656722229003906	0.13467384338378904	1.10626220703125	-4.947662353515625	-2.986907958984375	10.007762939453125	0.1801636749267578	-0.24839842224121092	3.543853759765625	-4.520416259765625	-1.96075439453125	
190	0.76	0.0	0.0	0.0	0.0	4.5600000000000005	4.611	4.611	4.557	9.871293444824218	0.09217676391601562	0.05087678527832031	2.44903564453125	-3.681182861328125	-0.87738037109375	9.783306533813477	0.45968671875	0.1466448516845703	0.965118408203125	-5.22613525390625	-3.177642822265625	10.016142645263672	0.1897404815673828	-0.24959552307128904	3.41796875	-4.543304443359375	-2.1820068359375	
191	0.764	0.0	0.0	0.0	0.0	4.548	4.6080000000000005	4.6080000000000005	4.566	9.868300692749022	0.10295067138671875	0.04189852905273437	2.593994140625	-3.5247802734375	-0.74005126953125	9.788693487548828	0.46627077331542965	0.15023615417480468	1.003265380859375	-5.283355712890625	-2.979278564453125	10.016142645263672	0.1897404815673828	-0.2507926239013672	3.482818603515625	-4.611968994140625	-2.155303955078125	
192	0.768	0.0	0.0	0.0	0.0	4.566	4.611	4.614	4.548	9.87727894897461	0.09337386474609374	0.016160861206054686	2.7313232421875	-3.59344482421875	-0.843048095703125	9.787496386718749	0.4644751220703125	0.1370680450439453	0.942230224609375	-4.894256591796875	-3.1585693359375	10.007762939453125	0.18914193115234373	-0.23403321228027343	3.66973876953125	-4.566192626953125	-2.208709716796875	
193	0.772	0.0	0.0	0.0	0.0	4.5600000000000005	4.611	4.611	4.521	9.87009634399414	0.11731588134765625	0.0143652099609375	2.765655517578125	-4.00543212890625	-0.9613037109375	9.773131176757811	0.44891281127929683	0.13407529296874998	1.117706298828125	-5.21087646484375	-3.009796142578125	10.02990930480957	0.16759411621093748	-0.24779987182617186	3.60870361328125	-4.558563232421875	-2.147674560546875	
194	0.776	0.0	0.0	0.0	0.0	4.566	4.611	4.611	4.527	9.879673150634765	0.16280571289062498	0.017956512451171875	2.948760986328125	-3.604888916015625	-0.057220458984375	9.771934075927733	0.565031591796875	0.15502455749511718	1.132965087890625	-4.840850830078125	-3.047943115234375	9.991003527832031	0.2861070983886719	-0.2232593048095703	3.635406494140625	-4.711151123046875	-2.13623046875	
195	0.78	0.0	0.0	0.0	0.0	4.563	4.605	4.614	4.545	9.87668039855957	0.09157821350097656	0.009576806640625	3.0059814453125	-3.8604736328125	-0.728607177734375	9.789890588378906	0.3555389465332031	0.12150573425292968	0.980377197265625	-4.9285888671875	-2.880096435546875	10.04247886352539	0.03591302490234375	-0.2753331909179687	3.66973876953125	-4.608154296875	-1.941680908203125	
196	0.784	0.0	0.0	0.0	0.0	4.557	4.611	4.611	4.551	9.881468801879882	0.14784195251464843	0.037110125732421874	2.971649169921875	-3.795623779296875	-1.10626220703125	9.78031378173828	0.4950011932373047	0.16460136413574217	0.946044921875	-4.627227783203125	-3.131866455078125	9.983820922851562	0.2555810272216797	-0.19393033447265623	3.56292724609375	-4.535675048828125	-2.4261474609375	
197	0.788	0.0	0.0	0.0	0.0	4.554	4.611	4.611	4.551	9.874286196899414	0.22206220397949217	0.0047884033203125	2.902984619140625	-3.673553466796875	-0.79345703125	9.778518130493163	0.47584757995605464	0.1388636962890625	0.774383544921875	-4.84466552734375	-3.0364990234375	9.955689053344726	0.29089550170898437	-0.16998831787109375	3.6468505859375	-4.45556640625	-1.934051513671875	
198	0.792	0.0	0.0	0.0	0.0	4.545	4.614	4.6080000000000005	4.5600000000000005	9.861716638183593	0.10175357055664062	0.05686228942871093	3.0059814453125	-3.77655029296875	-1.007080078125	9.772532626342773	0.44053310546874996	0.1693897674560547	0.965118408203125	-4.82940673828125	-3.314971923828125	9.963470208740233	0.17357962036132812	-0.20470424194335937	3.77655029296875	-4.726409912109375	-2.47955322265625	
199	0.796	0.0	0.0	0.0	0.0	4.5600000000000005	4.611	4.611	4.539	9.878476049804688	0.0047884033203125	0.015562310791015624	2.269744873046875	-3.56292724609375	-0.8392333984375	9.787496386718749	0.4513070129394531	0.14544775085449219	0.81634521484375	-4.99725341796875	-2.864837646484375	9.949703549194336	0.19093758239746092	-0.13108254089355467	3.574371337890625	-4.5623779296875	-2.285003662109375	
200	0.8	0.0	0.0	0.0	0.0	4.5600000000000005	4.605	4.611	4.521	9.868899243164062	0.18136077575683593	0.05746083984375	3.05938720703125	-4.00543212890625	-0.93841552734375	9.755773214721678	0.5704185455322265	0.16220716247558592	0.843048095703125	-4.802703857421875	-3.139495849609375	10.05504842224121	0.25318682556152344	-0.3082534637451172	3.63922119140625	-4.57000732421875	-2.2735595703125	
201	0.804	0.0	0.0	0.0	0.0	4.563	4.611	4.611	4.533	9.904213717651366	0.015562310791015624	0.04908113403320312	2.338409423828125	-3.688812255859375	-0.9307861328125	9.7683427734375	0.44113165588378905	0.11731588134765625	1.07574462890625	-5.18798828125	-2.95257568359375	9.910797772216796	0.17058686828613281	-0.12210428466796874	3.448486328125	-4.7454833984375	-1.949310302734375	
202	0.808	0.0	0.0	0.0	0.0	4.5600000000000005	4.611	4.614	4.548	9.865307940673828	0.1197100830078125	0.09337386474609374	3.3721923828125	-4.138946533203125	-0.91552734375	9.76116016845703	0.5285200164794922	0.19812018737792966	0.9307861328125	-4.96673583984375	-3.0059814453125	10.053252770996092	0.10295067138671875	-0.2825157958984375	3.559112548828125	-4.547119140625	-2.513885498046875	
203	0.812	0.0	0.0	0.0	0.0	4.557	4.6080000000000005	4.611	4.554	9.904812268066406	0.03950432739257812	0.044891281127929686	2.4566650390625	-4.00543212890625	-0.942230224609375	9.78031378173828	0.5333084197998047	0.11851298217773437	0.865936279296875	-5.24139404296875	-2.773284912109375	10.04247886352539	0.38187516479492184	-0.2741360900878906	3.650665283203125	-4.650115966796875	-1.8310546875	
204	0.8160000000000001	0.0	0.0	0.0	0.0	4.548	4.6080000000000005	4.6080000000000005	4.557	9.874884747314452	-0.04189852905273437	0.013168109130859374	2.124786376953125	-3.513336181640625	-1.15966796875	9.795876092529296	0.42317514343261714	0.12569558715820311	1.007080078125	-4.8980712890625	-3.0975341796875	10.01674119567871	0.12150573425292968	-0.3094505645751953	3.635406494140625	-4.547119140625	-2.300262451171875	
205	0.8200000000000001	0.0	0.0	0.0	0.0	4.557	4.611	4.602	4.548	9.896432562255859	-0.017357962036132813	0.07900865478515624	1.922607421875	-3.162384033203125	-0.78582763671875	9.773131176757811	0.4560954162597656	0.14245499877929688	0.89263916015625	-5.08880615234375	-2.895355224609375	10.032303506469725	0.3010708587646484	-0.24660277099609373	3.650665283203125	-4.638671875	-1.83868408203125	
206	0.8240000000000001	0.0	0.0	0.0	0.0	4.557	4.614	4.611	4.527	9.871891995239258	-0.08259995727539061	0.023343466186523436	2.109527587890625	-3.42559814453125	-1.087188720703125	9.82580361328125	0.40761283264160153	0.1227028350830078	1.056671142578125	-4.90570068359375	-3.276824951171875	10.098144052124022	0.12629413757324218	-0.3184288208007812	3.7384033203125	-4.718780517578125	-2.475738525390625	
207	0.8280000000000001	0.0	0.0	0.0	0.0	4.563	4.611	4.611	4.524	9.89523546142578	0.001197100830078125	0.06763619689941405	2.513885498046875	-3.757476806640625	-0.8544921875	9.686939916992188	0.6099228729248046	0.28431144714355466	0.957489013671875	-5.1116943359375	-2.8076171875	10.02332525024414	0.3812766143798828	-0.2537853759765625	3.757476806640625	-4.535675048828125	-1.83868408203125	
208	0.8320000000000001	0.0	0.0	0.0	0.0	4.563	4.6080000000000005	4.614	4.545	9.852139831542969	-0.1197100830078125	0.055066638183593745	2.033233642578125	-3.15093994140625	-1.033782958984375	9.797073193359374	0.35793314819335936	0.1693897674560547	1.056671142578125	-5.05828857421875	-3.376007080078125	10.046668716430663	-0.00718260498046875	-0.2501940734863281	3.509521484375	-4.558563232421875	-2.323150634765625	
209	0.836	0.0	0.0	0.0	0.0	4.5600000000000005	4.614	4.614	4.551	9.746196408081055	0.2316390106201172	0.22026655273437498	2.445220947265625	-3.2501220703125	-0.782012939453125	9.727641345214844	0.5584475372314452	0.3280056274414062	0.732421875	-5.176544189453125	-2.964019775390625	10.079588989257813	0.33758243408203126	-0.229843359375	3.692626953125	-4.64630126953125	-1.88446044921875	
210	0.84	0.0	0.0	0.0	0.0	4.557	4.611	4.611	4.557	9.888052856445311	-0.1322796417236328	0.025737667846679687	1.972198486328125	-3.2958984375	-0.9307861328125	9.881468801879882	0.2950853546142578	0.08738836059570312	0.84686279296875	-4.8980712890625	-3.177642822265625	10.039486111450195	-0.013766659545898436	-0.23882161560058593	3.70025634765625	-4.44793701171875	-2.269744873046875	
211	0.844	0.0	0.0	0.0	0.0	4.545	4.611	4.6080000000000005	4.563	9.756371765136718	0.2962824554443359	0.21068974609375	2.437591552734375	-3.47900390625	-0.675201416015625	9.710881933593749	0.5758054992675781	0.3429693878173828	0.95367431640625	-4.955291748046875	-2.716064453125	10.02332525024414	0.38845921936035155	-0.18375497741699218	3.582000732421875	-4.650115966796875	-2.0751953125	
212	0.848	0.0	0.0	0.0	0.0	4.563	4.611	4.611	4.539	9.872490545654296	0.01915361328125	0.07422025146484375	1.88446044921875	-3.12042236328125	-0.698089599609375	9.886855755615233	0.2723404388427734	0.09756371765136718	0.89263916015625	-4.810333251953125	-2.9296875	10.08078609008789	-0.07781155395507812	-0.24121581726074218	3.551483154296875	-4.49371337890625	-2.288818359375	
213	0.852	0.0	0.0	0.0	0.0	4.5600000000000005	4.611	4.611	4.524	9.78629928588867	0.2962824554443359	0.2059013427734375	2.3956298828125	-3.681182861328125	-0.89263916015625	9.76894132385254	0.6560112548828124	0.22385785522460935	0.885009765625	-4.665374755859375	-3.16619873046875	10.06223102722168	0.3794809631347656	-0.2088940948486328	3.421783447265625	-4.474639892578125	-2.0599365234375	
214	0.856	0.0	0.0	0.0	0.0	4.563	4.611	4.611	4.527	9.87608184814453	0.044891281127929686	0.06703764648437499	1.682281494140625	-3.265380859375	-0.90789794921875	9.87608184814453	0.25318682556152344	0.08918401184082031	1.132965087890625	-4.82177734375	-3.07464599609375	10.071209283447265	-0.0017956512451171875	-0.3435679382324219	3.54766845703125	-4.680633544921875	-1.8463134765625	
215	0.86	0.0	0.0	0.0	0.0	4.563	4.605	4.614	4.551	9.742605105590819	0.3232172241210937	0.21308394775390624	2.597808837890625	-3.265380859375	-0.87738037109375	9.74799205932617	0.689530078125	0.25438392639160157	0.7476806640625	-4.69207763671875	-3.139495849609375	10.038887561035155	0.40761283264160153	-0.19512743530273435	3.47137451171875	-4.604339599609375	-1.827239990234375	
216	0.864	0.0	0.0	0.0	0.0	4.557	4.611	4.614	4.5600000000000005	9.894038360595703	0.029927520751953124	0.05626373901367187	1.918792724609375	-3.154754638671875	-0.90789794921875	9.82460651245117	0.24779987182617186	0.14125789794921875	0.911712646484375	-5.008697509765625	-2.70843505859375	10.097545501708984	-0.025139117431640625	-0.3573345977783203	3.71551513671875	-4.73785400390625	-1.91497802734375	
217	0.868	0.0	0.0	0.0	0.0	4.551	4.6080000000000005	4.611	4.5600000000000005	9.877877499389648	0.24301146850585936	0.0	3.0975341796875	-3.849029541015625	-1.16729736328125	9.733626849365233	0.7254431030273437	0.2346317626953125	1.018524169921875	-4.90570068359375	-2.964019775390625	10.022726699829102	0.4513070129394531	-0.22266075439453123	3.589630126953125	-4.596710205078125	-2.643585205078125	
218	0.872	0.0	0.0	0.0	0.0	4.542	4.611	4.605	4.5600000000000005	9.873687646484374	0.05327098693847656	0.07062894897460938	1.8310546875	-3.0364990234375	-0.7476806640625	9.79946739501953	0.2292448089599609	0.14245499877929688	0.621795654296875	-5.035400390625	-2.6397705078125	10.071209283447265	-0.025737667846679687	-0.35793314819335936	3.66973876953125	-5.023956298828125	-1.911163330078125	
219	0.876	0.0	0.0	0.0	0.0	4.5600000000000005	4.614	4.611	4.533	9.886257205200195	0.1801636749267578	0.00239420166015625	3.032684326171875	-3.662109375	-0.98419189453125	9.665392102050781	0.6440402465820312	0.25797522888183594	0.98419189453125	-4.94384765625	-3.467559814453125	9.861716638183593	0.34177228698730466	-0.07481880187988281	3.978729248046875	-4.611968994140625	-2.727508544921875	
220	0.88	0.0	0.0	0.0	0.0	4.563	4.6080000000000005	4.6080000000000005	4.518	9.894038360595703	0.04908113403320312	0.04908113403320312	2.964019775390625	-3.040313720703125	-0.690460205078125	9.808445651245117	0.229843359375	0.10773907470703124	0.728607177734375	-5.161285400390625	-2.605438232421875	10.091559997558592	-0.002992752075195312	-0.3705027069091797	3.612518310546875	-4.772186279296875	-1.8310546875	
221	0.884	0.0	0.0	0.0	0.0	4.569	4.6080000000000005	4.611	4.5360000000000005	9.843161575317382	0.17118541870117188	0.04249707946777344	2.7618408203125	-3.574371337890625	-0.81634521484375	9.64025298461914	0.6841431243896484	0.2561795776367187	1.31988525390625	-4.901885986328125	-3.60107421875	9.823409411621093	0.3800795135498047	-0.05985504150390625	3.498077392578125	-4.436492919921875	-2.475738525390625	
222	0.888	0.0	0.0	0.0	0.0	4.554	4.614	4.617	4.551	9.8694977935791	0.19812018737792966	0.020949264526367185	2.552032470703125	-3.963470458984375	-0.93841552734375	9.826402163696288	0.29927520751953124	0.0526724365234375	1.117706298828125	-5.229949951171875	-2.658843994140625	9.8694977935791	0.2424129180908203	-0.10654197387695312	3.77655029296875	-4.6234130859375	-1.918792724609375	
223	0.892	0.0	0.0	0.0	0.0	4.557	4.6080000000000005	4.611	4.557	9.813832604980469	0.1227028350830078	0.037708676147460936	2.712249755859375	-3.726959228515625	-1.003265380859375	9.668384854125977	0.7068880401611328	0.229843359375	1.491546630859375	-4.8675537109375	-3.734588623046875	9.847351428222655	0.3746925598144531	-0.08200140686035155	3.475189208984375	-4.119873046875	-2.689361572265625	
224	0.896	0.0	0.0	0.0	0.0	4.548	4.6080000000000005	4.611	4.563	9.880870251464843	0.2292448089599609	0.003591302490234375	2.5787353515625	-3.65447998046875	-0.77056884765625	9.753379013061522	0.5003881469726562	0.05805939025878906	0.972747802734375	-5.22613525390625	-2.735137939453125	9.860519537353515	0.2885013000488281	-0.09516951599121093	3.5858154296875	-4.375457763671875	-2.025604248046875	
225	0.9	0.0	0.0	0.0	0.0	4.563	4.611	4.614	4.548	9.916184725952148	0.00718260498046875	-0.022146365356445312	3.90625	-4.383087158203125	-0.919342041015625	9.658209497070311	0.7164648468017578	0.23642741394042968	0.904083251953125	-4.833221435546875	-3.42559814453125	10.09395419921875	-0.011372457885742187	-0.3962403747558593	3.53240966796875	-4.528045654296875	-2.4261474609375	
226	0.904	0.0	0.0	0.0	0.0	4.5600000000000005	4.614	4.611	4.524	9.896432562255859	0.19333178405761717	-0.03531447448730469	2.307891845703125	-3.597259521484375	-0.64849853515625	9.771934075927733	0.47884033203125	0.03890577697753906	1.209259033203125	-5.245208740234375	-2.956390380859375	9.884461553955077	0.23702596435546874	-0.09935936889648436	3.76129150390625	-4.550933837890625	-1.979827880859375	
227	0.908	0.0	0.0	0.0	0.0	4.566	4.6080000000000005	4.611	4.524	9.935936889648437	0.034715924072265626	-0.07362170104980469	3.95965576171875	-4.581451416015625	-1.0223388671875	9.8311905670166	0.4171896392822265	0.15203180541992187	1.026153564453125	-4.8980712890625	-3.56292724609375	10.120888967895507	-0.03172317199707031	-0.42796354675292964	3.4637451171875	-4.497528076171875	-2.346038818359375	
228	0.912	0.0	0.0	0.0	0.0	4.5600000000000005	4.6080000000000005	4.614	4.551	9.903016616821288	0.27174188842773433	-0.051475335693359374	2.4261474609375	-3.818511962890625	-0.606536865234375	9.74200655517578	0.5380968231201172	0.06464344482421874	1.171112060546875	-5.34820556640625	-2.78472900390625	9.850344180297851	0.2651578338623047	-0.1131260284423828	3.5247802734375	-4.4403076171875	-1.67083740234375	
229	0.916	0.0	0.0	0.0	0.0	4.557	4.611	4.614	4.551	9.941922393798828	0.07541735229492187	-0.10594342346191406	4.405975341796875	-5.039215087890625	-1.07574462890625	9.850344180297851	0.3800795135498047	0.12449848632812499	0.789642333984375	-4.917144775390625	-3.383636474609375	10.116699114990233	-0.07422025146484375	-0.4273649963378906	3.345489501953125	-4.360198974609375	-2.323150634765625	
230	0.92	0.0	0.0	0.0	0.0	4.5600000000000005	4.611	4.611	4.551	9.828796365356444	0.3525461944580078	0.25737667846679685	3.60107421875	-4.344940185546875	-0.812530517578125	9.830592016601562	0.5740098480224609	0.27293898925781246	0.4425048828125	-5.237579345703125	-2.6092529296875	10.044274514770507	0.4129997863769531	-0.2166752502441406	3.570556640625	-4.60052490234375	-1.827239990234375	
231	0.924	0.0	0.0	0.0	0.0	4.545	4.611	4.6080000000000005	4.563	9.937133990478515	0.1484405029296875	-0.09816226806640624	5.0201416015625	-5.157470703125	-1.056671142578125	9.840168823242188	0.4177881896972656	0.1514332550048828	0.827789306640625	-4.756927490234375	-3.559112548828125	10.09993970336914	-0.044292730712890624	-0.41060558471679687	3.56292724609375	-4.421234130859375	-2.445220947265625	
232	0.928	0.0	0.0	0.0	0.0	4.563	4.611	4.611	4.539	9.784503634643555	0.40462008056640625	0.3028665100097656	4.02069091796875	-4.7607421875	-0.469207763671875	9.80665	0.5847837554931641	0.2741360900878906	0.34332275390625	-4.98199462890625	-2.475738525390625	10.05564697265625	0.47704468078613277	-0.2346317626953125	3.559112548828125	-4.703521728515625	-1.697540283203125	
233	0.932	0.0	0.0	0.0	0.0	4.5600000000000005	4.614	4.611	4.521	9.957484704589843	0.16220716247558592	-0.14305354919433594	0.728607177734375	-5.641937255859375	-1.079559326171875	9.970652813720703	-0.008978256225585938	-0.13587094421386717	1.194000244140625	-5.05828857421875	-3.16619873046875	10.15740054321289	-0.11671733093261719	-0.4159925384521484	3.8299560546875	-4.657745361328125	-2.25830078125	
234	0.936	0.0	0.0	0.0	0.0	4.563	4.611	4.611	4.533	9.788693487548828	0.42975919799804685	0.3016694091796875	4.268646240234375	-4.589080810546875	-0.682830810546875	9.805452899169921	0.5907692596435546	0.25797522888183594	0.40435791015625	-4.810333251953125	-2.323150634765625	10.050858569335936	0.5105635040283203	-0.26216508178710934	3.459930419921875	-4.5623779296875	-1.789093017578125	
235	0.9400000000000001	0.0	0.0	0.0	0.0	4.5600000000000005	4.605	4.614	4.548	9.885658654785155	-0.29867665710449215	0.03591302490234375	0.461578369140625	-2.437591552734375	-1.201629638671875	9.94072529296875	-0.00239420166015625	-0.1352723937988281	1.277923583984375	-5.062103271484375	-3.16619873046875	10.137648379516602	-0.10295067138671875	-0.4333505004882812	3.875732421875	-4.63104248046875	-2.3193359375	
236	0.9440000000000001	0.0	0.0	0.0	0.0	4.5600000000000005	4.6080000000000005	4.614	4.557	9.767145672607422	0.4225765930175781	0.31483751831054685	4.11224365234375	-4.596710205078125	-0.84686279296875	9.603741409301758	0.824203921508789	0.2861070983886719	1.018524169921875	-4.92095947265625	-2.872467041015625	9.999981784057617	0.63206923828125	-0.1945288848876953	3.437042236328125	-4.535675048828125	-2.08282470703125	
237	0.9480000000000001	0.0	0.0	0.0	0.0	4.551	4.6080000000000005	4.6080000000000005	4.5600000000000005	9.900622415161132	-0.33698388366699217	0.034715924072265626	-0.087738037109375	-2.02178955078125	-1.0528564453125	9.966462960815429	0.002992752075195312	-0.1592144104003906	1.129150390625	-4.730224609375	-3.055572509765625	10.186130963134765	-0.086191259765625	-0.47584757995605464	3.467559814453125	-4.5013427734375	-2.140045166015625	
238	0.9520000000000001	0.0	0.0	0.0	0.0	4.5600000000000005	4.614	4.602	4.563	9.7162688873291	0.01975216369628906	-0.020949264526367185	0.514984130859375	-2.384185791015625	-1.384735107421875	9.578003741455078	0.8200140686035156	0.31004911499023435	1.16729736328125	-5.039215087890625	-3.093719482421875	9.97843396911621	0.6171054779052734	-0.16280571289062498	3.5400390625	-4.741668701171875	-2.14385986328125	
239	0.9560000000000001	0.0	0.0	0.0	0.0	4.563	4.614	4.611	4.533	9.89463691101074	-0.38786066894531246	0.04848258361816406	-0.14495849609375	-2.3193359375	-0.988006591796875	9.859322436523437	0.09756371765136718	0.13287819213867186	1.068115234375	-4.7760009765625	-2.986907958984375	10.177751257324218	-0.09457096557617187	-0.469862075805664	3.337860107421875	-4.650115966796875	-1.8310546875	
240	0.96	0.0	0.0	0.0	0.0	4.566	4.6080000000000005	4.6080000000000005	4.521	9.885060104370117	0.014963760375976562	-0.0143652099609375	0.385284423828125	-2.13623046875	-1.190185546875	9.597157354736327	0.7972691528320313	0.3184288208007812	1.21307373046875	-5.023956298828125	-2.979278564453125	10.005368737792969	0.6290764862060546	-0.17238251953125	3.5247802734375	-4.5166015625	-1.8768310546875	
241	0.964	0.0	0.0	0.0	0.0	4.563	4.605	4.611	4.542	9.890447058105469	-0.41838674011230464	0.06404489440917968	-0.743865966796875	-1.94549560546875	-1.01470947265625	9.872490545654296	0.06105214233398437	0.1352723937988281	1.071929931640625	-5.016326904296875	-3.101348876953125	10.063428128051758	-0.10953472595214843	-0.20649989318847656	3.54766845703125	-4.7760009765625	-2.002716064453125	
242	0.968	0.0	0.0	0.0	0.0	4.557	4.614	4.617	4.551	9.87608184814453	0.04908113403320312	0.028131869506835935	0.308990478515625	-2.025604248046875	-1.28173828125	9.657012396240233	0.9552864624023437	0.35015199279785153	1.57928466796875	-4.8370361328125	-3.864288330078125	9.970652813720703	0.7134720947265625	-0.13467384338378904	3.505706787109375	-4.9591064453125	-2.239227294921875	
243	0.972	0.0	0.0	0.0	0.0	4.557	4.6080000000000005	4.611	4.554	9.88386300354004	0.13287819213867186	0.044891281127929686	1.42669677734375	-2.933502197265625	-0.63323974609375	9.892841259765625	-0.014963760375976562	0.09337386474609374	0.995635986328125	-5.115509033203125	-2.99835205078125	10.08677159423828	-0.1592144104003906	-0.21009119567871093	3.31878662109375	-4.749298095703125	-1.918792724609375	
244	0.976	0.0	0.0	0.0	0.0	4.551	4.611	4.6080000000000005	4.5600000000000005	9.881468801879882	0.04129997863769531	0.03591302490234375	0.48828125	-2.079010009765625	-1.21307373046875	9.662399349975585	0.9528922607421875	0.35314474487304687	1.689910888671875	-4.913330078125	-3.932952880859375	9.83777462158203	0.28012159423828126	-0.025139117431640625	3.528594970703125	-4.306793212890625	-2.9296875	
245	0.98	0.0	0.0	0.0	0.0	4.5600000000000005	4.614	4.614	4.542	9.874884747314452	0.2537853759765625	0.033518823242187495	1.5869140625	-3.10516357421875	-0.614166259765625	9.889848507690429	0.023942016601562498	0.08439560852050781	0.629425048828125	-4.95147705078125	-2.5482177734375	10.065223779296874	-0.08140285644531249	-0.17657237243652343	3.437042236328125	-4.61578369140625	-1.789093017578125	
246	0.984	0.0	0.0	0.0	0.0	4.557	4.611	4.6080000000000005	4.524	9.892841259765625	0.05566518859863281	0.02693476867675781	0.091552734375	-2.4261474609375	-1.262664794921875	9.657012396240233	0.9044096771240234	0.3495534423828125	1.468658447265625	-4.817962646484375	-3.6163330078125	9.846154327392577	0.24480711975097655	-0.028131869506835935	3.437042236328125	-4.29534912109375	-2.70843505859375	
247	0.988	0.0	0.0	0.0	0.0	4.569	4.6080000000000005	4.611	4.527	9.88386300354004	0.22385785522460935	0.029328970336914062	1.861572265625	-3.231048583984375	-0.69427490234375	9.776722479248047	0.4836287353515625	0.17118541870117188	0.7171630859375	-4.924774169921875	-2.70843505859375	9.85692823486328	0.08499415893554688	-0.09995791931152344	3.452301025390625	-4.444122314453125	-1.800537109375	
248	0.992	0.0	0.0	0.0	0.0	4.566	4.602	4.614	4.548	9.904812268066406	0.2651578338623047	0.05327098693847656	5.077362060546875	-5.290985107421875	-0.911712646484375	9.645639938354492	0.9876081848144531	0.34237083740234375	1.766204833984375	-4.92095947265625	-3.940582275390625	9.835978970336914	0.3387795349121094	-0.020949264526367185	3.765106201171875	-4.47845458984375	-2.89154052734375	
249	0.996	0.0	0.0	0.0	0.0	4.563	4.611	4.614	4.554	9.894038360595703	0.34835634155273437	0.023942016601562498	2.05230712890625	-3.41033935546875	-0.732421875	9.7545761138916	0.5321113189697265	0.16639701538085935	0.896453857421875	-5.08880615234375	-2.6092529296875	9.817423907470703	0.12988544006347655	-0.07242460021972656	3.597259521484375	-4.53948974609375	-1.60980224609375	
250	1.0	0.0	0.0	0.0	0.0	4.554	4.6080000000000005	4.611	4.557	9.913191973876952	0.22565350646972654	0.04189852905273437	5.57708740234375	-5.25665283203125	-1.068115234375	9.778518130493163	0.5548562347412109	0.2753331909179687	0.957489013671875	-4.764556884765625	-3.856658935546875	9.919776028442381	-0.16819266662597654	-0.3268085266113281	3.4027099609375	-4.17327880859375	-2.254486083984375	
251	1.004	0.0	0.0	0.0	0.0	4.548	4.611	4.6080000000000005	4.566	9.821015209960937	0.30047230834960936	-0.06943184814453125	4.795074462890625	-5.184173583984375	-0.789642333984375	9.7683427734375	0.5674257934570313	0.181959326171875	0.888824462890625	-5.21087646484375	-2.44903564453125	9.860519537353515	0.15322890625	-0.07302315063476562	3.7689208984375	-4.791259765625	-2.040863037109375	
252	1.008	0.0	0.0	0.0	0.0	4.566	4.614	4.614	4.5360000000000005	9.920973129272461	0.25258827514648435	0.03531447448730469	5.89752197265625	-5.53131103515625	-1.15203857421875	9.738415252685547	0.6183025787353515	0.3016694091796875	0.7476806640625	-4.657745361328125	-3.818511962890625	10.032902056884765	-0.08319850769042968	-0.3268085266113281	3.51715087890625	-4.3487548828125	-2.269744873046875	
253	1.012	0.0	0.0	0.0	0.0	4.563	4.611	4.611	4.521	9.962871658325195	0.277727392578125	-0.05746083984375	4.795074462890625	-5.13458251953125	-0.583648681640625	9.789890588378906	0.6332663391113281	0.20649989318847656	0.2593994140625	-5.02777099609375	-2.20489501953125	9.83777462158203	0.12330138549804687	-0.05805939025878906	3.42559814453125	-4.60052490234375	-1.537322998046875	
254	1.016	0.0	0.0	0.0	0.0	4.563	4.6080000000000005	4.611	4.533	9.948506448364258	0.24779987182617186	0.009576806640625	5.89752197265625	-5.451202392578125	-1.0833740234375	9.77432827758789	0.6398503936767578	0.30047230834960936	0.6256103515625	-4.82940673828125	-3.84521484375	10.075997686767577	-0.07841010437011718	-0.3178302703857422	3.635406494140625	-4.566192626953125	-2.300262451171875	
255	1.02	0.0	0.0	0.0	0.0	4.563	4.614	4.614	4.548	9.963470208740233	0.27892449340820313	-0.05805939025878906	4.589080810546875	-5.45501708984375	-0.8392333984375	9.746196408081055	0.6913257293701172	0.19093758239746092	-0.00762939453125	-5.023956298828125	-2.315521240234375	10.032303506469725	0.5482721801757812	-0.22565350646972654	3.79180908203125	-4.87518310546875	-1.842498779296875	
256	1.024	0.0	0.0	0.0	0.0	4.5600000000000005	4.6080000000000005	4.611	4.554	9.903615167236328	-0.15502455749511718	-0.04908113403320312	3.780364990234375	-4.428863525390625	-1.07574462890625	9.963470208740233	0.044292730712890624	-0.13168109130859373	0.965118408203125	-4.787445068359375	-2.899169921875	10.028712203979492	-0.05327098693847656	-0.2813186950683594	3.612518310546875	-4.230499267578125	-2.43377685546875	
257	1.028	0.0	0.0	0.0	0.0	4.551	4.6080000000000005	4.6080000000000005	4.557	9.956886154174803	0.2603694305419922	-0.020350714111328123	5.19561767578125	-5.50079345703125	-0.835418701171875	9.771934075927733	0.6398503936767578	0.16340426330566404	0.125885009765625	-5.13458251953125	-2.384185791015625	10.073603485107421	0.48662148742675776	-0.23822306518554687	3.63922119140625	-4.558563232421875	-1.76239013671875	
258	1.032	0.0	0.0	0.0	0.0	4.557	4.611	4.602	4.548	9.907206469726562	-0.2501940734863281	-0.08918401184082031	3.337860107421875	-4.08935546875	-1.110076904296875	9.96047745666504	0.032920272827148434	-0.11851298217773437	0.926971435546875	-4.726409912109375	-3.170013427734375	10.243591802978514	-0.2442085693359375	-0.5740098480224609	3.8604736328125	-4.72259521484375	-2.178192138671875	
259	1.036	0.0	0.0	0.0	0.0	4.5600000000000005	4.614	4.611	4.53	9.931148486328125	0.2501940734863281	0.016160861206054686	5.08880615234375	-5.30242919921875	-0.667572021484375	9.582193594360351	0.7846995941162109	0.3603273498535156	0.881195068359375	-5.168914794921875	-2.689361572265625	10.05564697265625	0.5668272430419922	-0.2262520568847656	3.73077392578125	-4.650115966796875	-1.796722412109375	
260	1.04	0.0	0.0	0.0	0.0	4.566	4.611	4.6080000000000005	4.524	9.89523546142578	-0.3938461730957031	-0.09756371765136718	2.857208251953125	-4.08172607421875	-1.2054443359375	9.975441217041014	-0.011372457885742187	-0.10354922180175781	0.7781982421875	-4.917144775390625	-2.986907958984375	10.254365710449218	-0.29269115295410153	-0.5548562347412109	3.711700439453125	-4.60052490234375	-2.22015380859375	
261	1.044	0.0	0.0	0.0	0.0	4.563	4.605	4.614	4.545	9.631873278808593	0.06703764648437499	0.3286041778564453	0.9307861328125	-2.948760986328125	-0.949859619140625	9.612121115112304	0.7338228088378905	0.34057518615722654	0.728607177734375	-4.9285888671875	-2.81524658203125	9.956886154174803	0.6637924102783203	-0.10414777221679687	3.589630126953125	-4.558563232421875	-2.38800048828125	
262	1.048	0.0	0.0	0.0	0.0	4.5600000000000005	4.611	4.614	4.554	9.911994873046874	-0.20709844360351562	-0.12868833923339842	2.407073974609375	-3.795623779296875	-0.797271728515625	9.968857162475585	-0.20530279235839843	-0.0383072265625	1.155853271484375	-4.985809326171875	-3.1890869140625	10.243591802978514	-0.09337386474609374	-0.5614402893066406	3.47900390625	-4.482269287109375	-1.94549560546875	
263	1.052	0.0	0.0	0.0	0.0	4.554	4.6080000000000005	4.611	4.557	9.635464581298828	-0.08439560852050781	0.2932897033691406	1.24359130859375	-2.712249755859375	-0.67901611328125	9.637260232543944	0.6763619689941406	0.32920272827148434	0.705718994140625	-5.016326904296875	-2.788543701171875	9.947907897949218	0.49739539489746093	-0.0909796630859375	3.749847412109375	-4.726409912109375	-2.35748291015625	
264	1.056	0.0	0.0	0.0	0.0	4.545	4.611	4.605	4.566	9.816825357055663	-0.20290859069824219	0.18614917907714842	-0.49591064453125	-1.54876708984375	-1.12152099609375	9.958681805419921	-0.03232172241210937	-0.059256491088867186	1.0833740234375	-4.730224609375	-3.15093994140625	10.245986004638672	-0.16998831787109375	-0.5548562347412109	3.662109375	-4.45556640625	-1.895904541015625	
265	1.06	0.0	0.0	0.0	0.0	4.566	4.614	4.611	4.5360000000000005	9.638457333374022	0.12210428466796874	0.28969840087890625	1.804351806640625	-3.143310546875	-1.09100341796875	9.649231240844726	0.8176198669433593	0.31184476623535157	1.89208984375	-4.9896240234375	-3.7841796875	9.99160207824707	0.4704606262207031	-0.15023615417480468	3.48663330078125	-4.60052490234375	-2.002716064453125	
266	1.064	0.0	0.0	0.0	0.0	4.5600000000000005	4.614	4.611	4.524	9.803058697509766	-0.02154781494140625	0.24839842224121092	-1.064300537109375	-1.331329345703125	-0.69427490234375	9.932345587158203	0.40581718139648437	-0.044891281127929686	1.22833251953125	-4.9285888671875	-3.009796142578125	10.095749850463866	0.06344634399414062	-0.3064578125	3.559112548828125	-4.81414794921875	-1.6937255859375	
267	1.068	0.0	0.0	0.0	0.0	4.563	4.6080000000000005	4.611	0.003	9.615712417602538	-0.009576806640625	0.32142157287597656	0.7781982421875	-2.552032470703125	-0.946044921875	9.781510882568359	0.4495113616943359	0.22744915771484372	0.83160400390625	-5.0201416015625	-3.498077392578125	9.993996279907225	0.44592005920410155	-0.15502455749511718	3.59344482421875	-4.688262939453125	-2.34222412109375	
268	1.072	0.0	0.0	0.0	0.0	0.0	0.006	0.006	0.006	9.824007962036132	0.21248539733886718	0.20470424194335937	-0.3204345703125	-1.73187255859375	-0.766754150390625	9.97184991455078	0.3345896820068359	-0.09217676391601562	1.895904541015625	-4.84466552734375	-3.116607666015625	10.128071572875976	0.11731588134765625	-0.3758896606445312	3.391265869140625	-4.87518310546875	-1.678466796875	
269	1.076	0.0	0.0	0.0	0.0	-0.003	0.003	0.006	0.006	9.871293444824218	0.0143652099609375	0.00718260498046875	1.003265380859375	-2.559661865234375	-1.2054443359375	9.710881933593749	0.6769605194091797	0.2376245147705078	1.079559326171875	-5.023956298828125	-3.322601318359375	9.815628256225585	0.1753752716064453	-0.058657940673828124	3.5247802734375	-4.444122314453125	-2.49481201171875	
270	1.08	0.0	0.0	0.0	0.0	0.003	0.003	0.006	0.003	9.804854348754882	0.054468087768554684	0.25737667846679685	-0.60272216796875	-1.766204833984375	-0.90789794921875	9.765948571777344	0.2807201446533203	0.21308394775390624	0.28228759765625	-4.833221435546875	-3.009796142578125	10.13226142578125	0.11192892761230468	-0.3794809631347656	3.337860107421875	-4.69970703125	-1.567840576171875	
271	1.084	0.0	0.0	0.0	0.0	0.003	0.003	0.006	0.003	9.871293444824218	-0.02154781494140625	-0.0005985504150390625	0.148773193359375	-1.94549560546875	-0.675201416015625	9.720458740234374	0.6242880828857421	0.19512743530273435	0.8087158203125	-4.730224609375	-3.070831298828125	9.835380419921874	0.1352723937988281	-0.09157821350097656	3.54766845703125	-4.398345947265625	-2.58636474609375	
272	1.088	0.0	0.0	0.0	0.0	0.003	0.003	0.003	0.003	9.816226806640625	0.09457096557617187	0.2424129180908203	-1.64794921875	-1.163482666015625	-0.84686279296875	9.742605105590819	0.32142157287597656	0.25258827514648435	0.957489013671875	-4.978179931640625	-3.265380859375	9.830592016601562	0.354940396118164	-0.027533319091796873	3.818511962890625	-4.535675048828125	-2.0294189453125	
273	1.092	0.0	0.0	0.0	0.0	0.003	0.006	0.006	0.006	9.855132583618163	0.1466448516845703	0.013168109130859374	1.102447509765625	-2.72369384765625	-0.81634521484375	9.641450085449218	0.5003881469726562	0.2765302917480469	0.81634521484375	-5.008697509765625	-3.1585693359375	9.81263550415039	0.08798691101074219	-0.05746083984375	3.60870361328125	-4.482269287109375	-2.76947021484375	
274	1.096	0.0	0.0	0.0	0.0	0.006	0.006	0.003	0.006	10.000580334472655	0.3190273712158203	-0.24121581726074218	4.787445068359375	-4.852294921875	-1.220703125	9.750984811401366	0.36571430358886714	0.2454056701660156	0.31280517578125	-4.909515380859375	-3.05938720703125	9.803657247924804	0.36092590026855464	-0.028131869506835935	3.704071044921875	-4.60052490234375	-1.8463134765625	
275	1.1	0.0	0.0	0.0	0.0	0.006	0.003	0.006	0.003	9.867702142333984	0.07481880187988281	0.0047884033203125	1.544952392578125	-2.838134765625	-0.80108642578125	9.661800799560547	0.44412440795898434	0.2609679809570312	0.87738037109375	-4.8370361328125	-3.2958984375	9.847351428222655	0.07900865478515624	-0.06823474731445311	3.551483154296875	-4.207611083984375	-2.12860107421875	
276	1.104	0.0	0.0	0.0	0.0	0.006	0.003	0.003	0.003	10.026916552734374	0.3268085266113281	-0.27353753967285155	4.60052490234375	-5.130767822265625	-0.919342041015625	9.744999307250977	0.4064157318115234	0.1274912384033203	1.0528564453125	-5.37109375	-2.655029296875	9.829993466186522	0.3573345977783203	-0.016160861206054686	3.65447998046875	-4.76837158203125	-2.025604248046875	
277	1.108	0.0	0.0	0.0	0.0	0.003	0.006	0.006	0.003	9.855731134033203	0.1693897674560547	0.08918401184082031	6.519317626953125	-6.05010986328125	-0.720977783203125	9.658209497070311	0.4800374328613281	0.2693476867675781	0.820159912109375	-4.974365234375	-3.452301025390625	10.052055670166014	-0.05087678527832031	-0.28012159423828126	3.612518310546875	-4.543304443359375	-1.949310302734375	
278	1.112	0.0	0.0	0.0	0.0	0.003	0.003	0.003	0.006	10.032303506469725	0.28790274963378903	-0.28909985046386716	4.92095947265625	-5.34820556640625	-1.12152099609375	9.743802206420899	0.41060558471679687	0.09696516723632811	0.957489013671875	-5.126953125	-2.7008056640625	9.819818109130859	0.34656069030761716	-0.031124621582031248	3.83758544921875	-4.436492919921875	-2.25830078125	
279	1.116	0.0	0.0	0.0	0.0	0.003	0.006	0.003	0.006	9.98561657409668	0.29927520751953124	-0.07900865478515624	6.305694580078125	-6.084442138671875	-0.782012939453125	9.904812268066406	0.45190556335449217	0.017357962036132813	1.2664794921875	-4.848480224609375	-2.78472900390625	10.056844073486328	-0.008978256225585938	-0.2603694305419922	3.742218017578125	-4.66156005859375	-2.349853515625	
280	1.12	0.0	0.0	0.0	0.0	0.003	0.003	0.003	0.006	10.04846436767578	0.2645592834472656	-0.29388825378417965	4.70733642578125	-5.268096923828125	-0.9918212890625	9.76175871887207	0.35015199279785153	0.11611878051757812	0.713348388671875	-4.978179931640625	-2.4566650390625	10.051457119750976	0.28909985046386716	-0.21248539733886718	3.56292724609375	-4.550933837890625	-2.040863037109375	
281	1.124	0.0	0.0	0.0	0.0	0.003	0.006	0.003	0.003	9.97244846496582	0.26755203552246093	-0.15083470458984374	6.267547607421875	-5.9814453125	-0.522613525390625	9.867702142333984	0.5045779998779296	0.08319850769042968	1.163482666015625	-4.802703857421875	-2.76947021484375	10.031106405639648	0.061650692749023434	-0.3064578125	3.475189208984375	-4.253387451171875	-2.117156982421875	
282	1.1280000000000001	0.0	0.0	0.0	0.0	0.0	0.003	0.003	0.003	9.735422500610351	-0.05386953735351562	0.3752911102294922	4.512786865234375	-4.90570068359375	-0.7781982421875	9.801861596679688	0.44412440795898434	0.3058592620849609	0.751495361328125	-4.96673583984375	-3.01361083984375	10.03050785522461	0.28371289672851563	-0.19512743530273435	3.6468505859375	-4.7149658203125	-2.288818359375	
283	1.1320000000000001	0.0	0.0	0.0	0.0	0.003	0.003	0.003	0.009000000000000001	9.989806427001952	0.11252747802734374	-0.1580173095703125	6.053924560546875	-5.886077880859375	-0.896453857421875	9.889848507690429	0.44592005920410155	0.04369418029785156	1.323699951171875	-5.02777099609375	-2.83050537109375	10.251372958374024	0.1370680450439453	-0.5434837768554687	3.62396240234375	-4.627227783203125	-1.91497802734375	
284	1.1360000000000001	0.0	0.0	0.0	0.0	0.003	0.003	0.003	0.003	9.700108026123047	-0.02154781494140625	0.4285620971679687	4.47845458984375	-4.810333251953125	-0.766754150390625	9.795277542114258	0.4674678741455078	0.2753331909179687	0.835418701171875	-4.947662353515625	-2.899169921875	10.00955859069824	0.22086510314941404	-0.17896657409667968	3.536224365234375	-4.5623779296875	-2.1514892578125	
285	1.1400000000000001	0.0	0.0	0.0	0.0	0.003	0.003	0.006	0.003	9.976638317871092	0.07781155395507812	-0.16819266662597654	5.51605224609375	-5.72967529296875	-0.766754150390625	9.87727894897461	0.44592005920410155	0.07422025146484375	1.4190673828125	-5.2032470703125	-3.047943115234375	10.175357055664062	0.21009119567871093	-0.5476736297607422	3.673553466796875	-4.67681884765625	-2.1514892578125	
286	1.1440000000000001	0.0	0.0	0.0	0.0	0.003	0.006	0.003	0.003	9.698910925292969	-0.00718260498046875	0.43035774841308594	4.09698486328125	-4.669189453125	-0.885009765625	9.858125335693359	0.45669396667480466	0.27353753967285155	0.743865966796875	-4.84466552734375	-2.87628173828125	10.092757098388672	0.16041151123046873	-0.1897404815673828	3.490447998046875	-4.6844482421875	-1.979827880859375	
287	1.1480000000000001	0.0	0.0	0.0	0.0	0.003	0.003	0.003	0.006	9.840767373657226	-0.2920926025390625	0.12689268798828124	-1.445770263671875	-1.476287841796875	-0.843048095703125	9.900023864746093	0.4752490295410156	-0.023343466186523436	1.52587890625	-5.046844482421875	-3.1890869140625	10.235212097167969	0.16879121704101563	-0.5578489868164063	3.5247802734375	-4.45556640625	-2.040863037109375	
288	1.1520000000000001	0.0	0.0	0.0	0.0	0.006	0.003	0.003	0.006	9.647435589599608	-0.05327098693847656	0.45489831542968745	3.24249267578125	-4.1351318359375	-0.579833984375	9.797671743774414	0.49021278991699213	0.25737667846679685	0.919342041015625	-4.886627197265625	-3.21197509765625	10.014346994018554	0.2693476867675781	-0.12150573425292968	3.5552978515625	-4.64630126953125	-1.888275146484375	
289	1.156	0.0	0.0	0.0	0.0	0.0	0.006	0.003	0.006	9.803657247924804	-0.1867477294921875	0.20470424194335937	-1.537322998046875	-1.19781494140625	-1.1138916015625	9.9078050201416	0.47704468078613277	-0.05027823486328125	1.537322998046875	-5.123138427734375	-3.1890869140625	10.196904870605469	0.23343466186523437	-0.5045779998779296	3.84521484375	-4.39453125	-1.953125	
290	1.16	0.0	0.0	0.0	0.0	0.0	0.003	0.003	0.0	9.668983404541015	-0.21787235107421873	0.4070142822265625	-1.361846923828125	-1.094818115234375	-1.0986328125	9.778518130493163	0.55545478515625	0.20829554443359374	1.02996826171875	-5.092620849609375	-3.34930419921875	10.114304913330077	0.2059013427734375	-0.11671733093261719	3.444671630859375	-4.69970703125	-2.044677734375	
291	1.164	0.0	0.0	0.0	0.0	0.0	0.003	0.006	0.003	9.797671743774414	0.013168109130859374	0.23223756103515625	-1.636505126953125	-0.89263916015625	-1.033782958984375	9.889249957275391	0.5057751007080078	-0.04548983154296875	1.64794921875	-5.237579345703125	-3.170013427734375	10.08737014465332	0.11073182678222655	-0.42796354675292964	3.35693359375	-4.64630126953125	-2.178192138671875	
292	1.168	0.0	0.0	0.0	0.0	0.003	0.006	0.003	0.003	9.853935482788085	-0.04967968444824218	0.13766659545898435	-1.277923583984375	-1.2664794921875	-1.36566162109375	9.72285294189453	0.6374561920166015	0.22026655273437498	1.07574462890625	-4.985809326171875	-3.27301025390625	10.018536846923828	0.3076549133300781	-0.09935936889648436	3.452301025390625	-4.878997802734375	-1.739501953125	
293	1.172	0.0	0.0	0.0	0.0	0.006	0.003	0.003	0.003	9.801263046264648	-0.1388636962890625	0.2262520568847656	-2.5787353515625	-0.255584716796875	-0.95367431640625	9.789292037963866	0.3758896606445312	0.35673604736328124	0.484466552734375	-5.14984130859375	-3.025054931640625	10.137648379516602	0.06584054565429687	-0.42497079467773435	3.765106201171875	-4.730224609375	-2.231597900390625	
294	1.176	0.0	0.0	0.0	0.0	0.003	0.003	0.003	0.006	9.917980377197265	0.11192892761230468	0.09277531433105468	-0.988006591796875	-1.44195556640625	-1.132965087890625	9.77492682800293	0.6200982299804687	0.18854338073730467	0.972747802734375	-4.8370361328125	-3.368377685546875	9.821015209960937	0.34715924072265625	0.008379705810546874	3.498077392578125	-4.2266845703125	-2.223968505859375	
295	1.18	0.0	0.0	0.0	0.0	0.006	0.003	0.006	0.003	9.958083255004881	0.4752490295410156	-0.15263035583496093	3.032684326171875	-4.1351318359375	-0.86212158203125	9.663596450805663	0.41838674011230464	0.43155484924316406	0.232696533203125	-4.917144775390625	-3.025054931640625	9.970054263305663	0.10414777221679687	-0.40402153015136716	3.307342529296875	-4.608154296875	-2.216339111328125	
296	1.184	0.0	0.0	0.0	0.0	0.003	0.003	0.003	0.0	9.96586441040039	0.24779987182617186	0.058657940673828124	-0.74005126953125	-1.308441162109375	-0.9307861328125	9.750984811401366	0.47285482788085936	0.2154781494140625	0.659942626953125	-4.69207763671875	-2.941131591796875	9.788693487548828	0.4261678955078125	0.001197100830078125	3.6773681640625	-4.4403076171875	-2.323150634765625	
297	1.188	0.0	0.0	0.0	0.0	0.006	0.003	0.006	0.006	10.019135397338866	0.4782417816162109	-0.20470424194335937	4.50897216796875	-5.1116943359375	-1.30462646484375	9.810241302490233	0.354940396118164	0.28969840087890625	0.453948974609375	-4.665374755859375	-2.9754638671875	10.16338604736328	-0.022744915771484374	-0.4800374328613281	3.566741943359375	-4.817962646484375	-2.105712890625	
298	1.192	0.0	0.0	0.0	0.0	0.006	0.003	0.003	0.003	9.962273107910155	0.04548983154296875	-0.022744915771484374	-0.457763671875	-1.453399658203125	-0.78582763671875	9.701903677368163	0.49200844116210934	0.21787235107421873	0.58746337890625	-4.550933837890625	-3.37982177734375	9.722254391479492	0.48662148742675776	-0.0005985504150390625	3.7994384765625	-4.5013427734375	-2.384185791015625	
299	1.196	0.0	0.0	0.0	0.0	0.003	0.003	0.003	0.006	9.983820922851562	0.7685387329101562	-0.1927332336425781	5.413055419921875	-5.42449951171875	-0.835418701171875	9.69771382446289	0.4477157104492187	0.051475335693359374	0.919342041015625	-5.001068115234375	-2.590179443359375	9.801861596679688	0.05626373901367187	-0.0939724151611328	3.509521484375	-4.520416259765625	-1.964569091796875	
300	1.2	0.0	0.0	0.0	0.0	0.003	0.003	0.006	0.003	9.98561657409668	0.23642741394042968	-0.025139117431640625	7.5836181640625	-6.900787353515625	-0.96893310546875	9.828197814941406	0.39743747558593745	0.16759411621093748	0.61798095703125	-4.459381103515625	-3.032684326171875	9.900622415161132	0.3573345977783203	-0.044292730712890624	3.475189208984375	-4.7454833984375	-2.269744873046875	
301	1.204	0.0	0.0	0.0	0.0	0.003	0.006	0.003	0.006	9.993996279907225	0.32022447204589843	-0.2376245147705078	5.748748779296875	-5.886077880859375	-1.0528564453125	9.70968483276367	0.3633201019287109	0.040701428222656245	0.873565673828125	-4.9285888671875	-2.742767333984375	9.859322436523437	-0.05087678527832031	-0.13407529296874998	3.505706787109375	-4.756927490234375	-2.048492431640625	
