	time	dac1	dac2	dac3	dac4	adc1.3	adc2.3	adc3.3	adc4.3	imu1accx	imu1accy	imu1accz	imu1gyrox	imu1gyroy	imu1gyroz	imu2accx	imu2accy	imu2accz	imu2gyrox	imu2gyroy	imu2gyroz	imu3accx	imu3accy	imu3accz	imu3gyrox	imu3gyroy	imu3gyroz	log
0	0.0	0.0	0.0	0.0	0.0	4.548	4.593	4.596	4.524	9.867103591918944	0.07781155395507812	0.08140285644531249	2.4261474609375	-3.66973876953125	-0.81634521484375	9.776123928833007	0.44113165588378905	0.19572598571777342	0.919342041015625	-5.1116943359375	-2.986907958984375	10.013149893188476	0.1610100616455078	-0.20709844360351562	3.68499755859375	-4.608154296875	-2.11334228515625	Estabilizou em 8s, 1723  rpm
1	0.004	0.0	0.0	0.0	0.0	4.5360000000000005	4.596	4.596	4.53	9.873687646484374	0.08020575561523437	0.08499415893554688	2.62451171875	-3.89862060546875	-0.972747802734375	9.784503634643555	0.4381389038085937	0.2136824981689453	0.759124755859375	-5.16510009765625	-3.082275390625	10.011354241943359	0.16220716247558592	-0.2059013427734375	3.650665283203125	-4.7454833984375	-1.8768310546875	Started
2	0.008	0.0	0.0	0.0	0.0	4.539	4.599	4.596	4.533	9.861118087768554	0.06584054565429687	0.08020575561523437	2.64739990234375	-3.589630126953125	-0.957489013671875	9.781510882568359	0.4327519500732422	0.21906945190429686	1.1138916015625	-4.802703857421875	-3.0975341796875	10.016142645263672	0.1610100616455078	-0.20470424194335937	3.4027099609375	-4.222869873046875	-2.216339111328125	IMU1|LSM6DS3|0x6A|I2C-1|±2g (±19,6m/s²)|±125º/s|400Hz
3	0.012	0.0	0.0	0.0	0.0	4.527	4.596	4.593	4.542	9.87009634399414	0.07601590270996093	0.10295067138671875	2.593994140625	-3.810882568359375	-0.7781982421875	9.775525378417969	0.4321533996582031	0.19632453613281248	0.9613037109375	-4.833221435546875	-2.956390380859375	10.016142645263672	0.16041151123046873	-0.20949264526367187	3.337860107421875	-4.50897216796875	-1.964569091796875	IMU2|LSM6DS3|0x6B|I2C-1|±2g (±19,6m/s²)|±125º/s|400Hz
4	0.016	0.0	0.0	0.0	0.0	4.542	4.593	4.596	4.5120000000000005	9.871293444824218	0.06703764648437499	0.09576806640624999	2.47955322265625	-3.803253173828125	-0.92315673828125	9.77492682800293	0.4327519500732422	0.1975216369628906	0.919342041015625	-4.6234130859375	-3.19671630859375	10.011354241943359	0.16280571289062498	-0.21308394775390624	3.658294677734375	-4.772186279296875	-2.197265625	IMU3|LSM6DS3|0x6B|I2C-2|±2g (±19,6m/s²)|±125º/s|400Hz
5	0.02	0.0	0.0	0.0	0.0	4.542	4.596	4.599	4.497	9.877877499389648	0.07422025146484375	0.08020575561523437	2.34222412109375	-3.89862060546875	-1.003265380859375	9.777321029663085	0.43454760131835934	0.19333178405761717	0.83160400390625	-4.90570068359375	-2.956390380859375	10.013149893188476	0.15981296081542967	-0.20829554443359374	3.57818603515625	-4.4708251953125	-2.06756591796875	ADC|ADS1015|0|0|1|0|±6,144 V|2400 SPS
6	0.024	0.0	0.0	0.0	0.0	4.545	4.596	4.596	4.5120000000000005	9.868899243164062	0.07122749938964844	0.08738836059570312	2.391815185546875	-3.45611572265625	-0.774383544921875	9.780912332153319	0.4447229583740234	0.19213468322753904	0.850677490234375	-5.04302978515625	-3.154754638671875	10.011952792358398	0.17178396911621094	-0.21308394775390624	3.63922119140625	-4.627227783203125	-2.3193359375	Gen1|Disabled
7	0.028	0.0	0.0	0.0	0.0	4.539	4.596	4.596	4.53	9.883264453125	0.08080430603027343	0.07781155395507812	2.605438232421875	-3.894805908203125	-0.8392333984375	9.773729727172851	0.4381389038085937	0.17836802368164062	0.885009765625	-4.99725341796875	-2.9754638671875	10.020931048583984	0.17178396911621094	-0.22206220397949217	3.47900390625	-4.364013671875	-2.010345458984375	Gen2|Enabled|Noise|0.0|10.0|1668
8	0.032	0.0	0.0	0.0	0.0	4.533	4.596	4.596	4.5360000000000005	9.87608184814453	0.09157821350097656	0.07003039855957031	2.685546875	-3.66973876953125	-0.942230224609375	9.789292037963866	0.4537012145996093	0.17417817077636719	1.056671142578125	-4.93621826171875	-3.082275390625	10.022128149414062	0.181959326171875	-0.22685060729980466	3.56292724609375	-4.35638427734375	-2.28118896484375	Gen3|Enabled|Noise|0.0|10.0|128
9	0.036000000000000004	0.0	0.0	0.0	0.0	4.53	4.596	4.599	4.539	9.868300692749022	0.08678981018066406	0.06643909606933593	2.384185791015625	-3.849029541015625	-0.980377197265625	9.775525378417969	0.4537012145996093	0.17298106994628906	0.885009765625	-4.833221435546875	-3.208160400390625	10.022128149414062	0.1753752716064453	-0.23104046020507812	3.772735595703125	-4.673004150390625	-2.1514892578125	Gen4|Enabled|Noise|0.0|10.0|128
10	0.04	0.0	0.0	0.0	0.0	4.539	4.596	4.587	4.53	9.87608184814453	0.086191259765625	0.06045359191894531	2.574920654296875	-3.4637451171875	-0.91552734375	9.783306533813477	0.4483142608642578	0.17357962036132812	0.6561279296875	-4.764556884765625	-3.082275390625	10.008960040283203	0.17657237243652343	-0.2328361114501953	3.59344482421875	-4.69970703125	-1.949310302734375	Ctrl|Disabled
11	0.044	0.0	0.0	0.0	0.0	4.539	4.593	4.599	4.503	9.868899243164062	0.09217676391601562	0.05686228942871093	2.613067626953125	-3.612518310546875	-0.946044921875	9.78689783630371	0.4590881683349609	0.16519991455078123	0.713348388671875	-4.886627197265625	-3.093719482421875	10.012551342773437	0.18315642700195311	-0.24121581726074218	3.5552978515625	-4.57763671875	-2.08282470703125	
12	0.048	0.0	0.0	0.0	0.0	4.551	4.596	4.596	4.497	9.868899243164062	0.09636661682128905	0.055066638183593745	2.54058837890625	-3.82232666015625	-0.9765625	9.781510882568359	0.4572925170898437	0.14963760375976562	1.026153564453125	-5.176544189453125	-3.12042236328125	10.014945544433592	0.1945288848876953	-0.25438392639160157	3.54766845703125	-4.650115966796875	-2.223968505859375	
13	0.052000000000000005	0.0	0.0	0.0	0.0	4.545	4.593	4.596	4.521	9.873687646484374	0.09217676391601562	0.04369418029785156	2.468109130859375	-3.833770751953125	-1.049041748046875	9.789292037963866	0.47285482788085936	0.1640028137207031	1.02996826171875	-4.84466552734375	-3.070831298828125	10.007762939453125	0.1945288848876953	-0.24061726684570311	3.345489501953125	-4.58526611328125	-2.1820068359375	
14	0.056	0.0	0.0	0.0	0.0	4.539	4.596	4.596	4.533	9.866505041503906	0.09576806640624999	0.04668693237304687	2.63214111328125	-3.509521484375	-0.823974609375	9.785102185058593	0.4740519287109375	0.16340426330566404	0.946044921875	-4.970550537109375	-3.162384033203125	10.01733974609375	0.201112939453125	-0.24001871643066405	3.65447998046875	-4.611968994140625	-2.044677734375	
15	0.06	0.0	0.0	0.0	0.0	4.539	4.599	4.596	4.53	9.874286196899414	0.10115502014160156	0.040102877807617184	2.72369384765625	-3.79180908203125	-1.04522705078125	9.789292037963866	0.469862075805664	0.1592144104003906	0.7781982421875	-4.8828125	-3.21197509765625	10.019733947753906	0.2059013427734375	-0.24361001892089842	3.536224365234375	-4.520416259765625	-1.895904541015625	
16	0.064	0.0	0.0	0.0	0.0	4.527	4.596	4.593	4.542	9.8694977935791	0.10235212097167969	0.04608838195800781	2.6092529296875	-3.734588623046875	-1.0833740234375	9.789890588378906	0.469263525390625	0.16160861206054686	1.09100341796875	-4.604339599609375	-2.887725830078125	10.019135397338866	0.20949264526367187	-0.24301146850585936	3.60107421875	-4.535675048828125	-2.29644775390625	
17	0.068	0.0	0.0	0.0	0.0	4.542	4.596	4.599	4.518	9.874884747314452	0.10354922180175781	0.03531447448730469	2.49481201171875	-4.03594970703125	-0.701904296875	9.791087689208984	0.4842272857666015	0.1610100616455078	1.316070556640625	-5.126953125	-2.960205078125	10.00955859069824	0.19991583862304688	-0.24959552307128904	3.70025634765625	-4.528045654296875	-2.13623046875	
18	0.07200000000000001	0.0	0.0	0.0	0.0	4.542	4.596	4.599	4.5	9.874884747314452	0.11252747802734374	0.047285482788085934	2.5787353515625	-3.681182861328125	-0.942230224609375	9.782707983398437	0.47644613037109373	0.15263035583496093	0.79345703125	-5.1116943359375	-2.98309326171875	10.005368737792969	0.20290859069824219	-0.24600422058105467	3.688812255859375	-4.53948974609375	-2.2735595703125	
19	0.076	0.0	0.0	0.0	0.0	4.545	4.596	4.596	4.509	9.871293444824218	0.11372457885742186	0.04129997863769531	2.552032470703125	-3.849029541015625	-0.89263916015625	9.780912332153319	0.48662148742675776	0.1580173095703125	0.980377197265625	-4.82940673828125	-3.063201904296875	10.016142645263672	0.21009119567871093	-0.24839842224121092	3.482818603515625	-4.5623779296875	-2.28118896484375	
20	0.08	0.0	0.0	0.0	0.0	4.551	4.587	4.59	4.53	9.87009634399414	0.12988544006347655	0.040701428222656245	2.666473388671875	-3.9825439453125	-0.965118408203125	9.784503634643555	0.48722003784179685	0.14544775085449219	0.980377197265625	-4.856109619140625	-2.880096435546875	10.021529598999022	0.21428104858398436	-0.2376245147705078	3.757476806640625	-4.6844482421875	-2.147674560546875	
21	0.084	0.0	0.0	0.0	0.0	4.539	4.596	4.596	4.5360000000000005	9.87009634399414	0.12629413757324218	0.037708676147460936	2.719879150390625	-3.536224365234375	-1.01470947265625	9.789292037963866	0.48243163452148435	0.15203180541992187	0.858306884765625	-4.962921142578125	-3.12042236328125	10.020931048583984	0.229843359375	-0.23582886352539062	3.5552978515625	-4.581451416015625	-2.307891845703125	
22	0.088	0.0	0.0	0.0	0.0	4.5360000000000005	4.596	4.599	4.5360000000000005	9.874884747314452	0.13108254089355467	0.04249707946777344	2.288818359375	-3.887176513671875	-0.86212158203125	9.78629928588867	0.48722003784179685	0.1562216583251953	1.06048583984375	-4.871368408203125	-3.009796142578125	10.019135397338866	0.22685060729980466	-0.25438392639160157	3.5400390625	-4.49371337890625	-1.865386962890625	
23	0.092	0.0	0.0	0.0	0.0	4.5360000000000005	4.593	4.587	4.533	9.87009634399414	0.12569558715820311	0.03411737365722656	2.54058837890625	-3.80706787109375	-0.881195068359375	9.789292037963866	0.49380409240722656	0.15263035583496093	1.049041748046875	-5.18035888671875	-3.082275390625	10.013748443603514	0.22026655273437498	-0.2657563842773437	3.47900390625	-4.489898681640625	-2.00653076171875	
24	0.096	0.0	0.0	0.0	0.0	4.542	4.593	4.599	4.506	9.879673150634765	0.11432312927246092	0.029927520751953124	2.471923828125	-3.70025634765625	-0.9002685546875	9.787496386718749	0.4961982940673828	0.15382745666503905	0.965118408203125	-5.04302978515625	-3.047943115234375	10.012551342773437	0.21727380065917967	-0.2645592834472656	3.597259521484375	-4.589080810546875	-2.300262451171875	
25	0.1	0.0	0.0	0.0	0.0	4.548	4.596	4.596	4.5	9.866505041503906	0.12868833923339842	0.037110125732421874	2.5787353515625	-3.681182861328125	-0.766754150390625	9.781510882568359	0.4944026428222656	0.16280571289062498	0.667572021484375	-5.001068115234375	-3.07464599609375	10.006565838623047	0.22026655273437498	-0.2609679809570312	3.742218017578125	-4.61578369140625	-2.105712890625	
26	0.10400000000000001	0.0	0.0	0.0	0.0	4.539	4.593	4.596	4.527	9.86351228942871	0.12449848632812499	0.040701428222656245	2.567291259765625	-3.635406494140625	-0.762939453125	9.777919580078125	0.49380409240722656	0.14963760375976562	0.980377197265625	-5.054473876953125	-3.01361083984375	10.01015714111328	0.2214636535644531	-0.24899697265624998	3.353118896484375	-4.413604736328125	-2.040863037109375	
27	0.108	0.0	0.0	0.0	0.0	4.542	4.596	4.596	4.53	9.86411083984375	0.12090718383789062	0.047285482788085934	2.61688232421875	-3.509521484375	-0.926971435546875	9.784503634643555	0.4908113403320312	0.1657984649658203	0.8697509765625	-4.993438720703125	-3.238677978515625	10.019733947753906	0.21607669982910155	-0.239420166015625	3.482818603515625	-4.543304443359375	-2.277374267578125	
28	0.112	0.0	0.0	0.0	0.0	4.542	4.599	4.596	4.527	9.87009634399414	0.12150573425292968	0.047285482788085934	2.414703369140625	-3.753662109375	-0.957489013671875	9.788693487548828	0.4848258361816406	0.16699556579589842	0.9307861328125	-5.039215087890625	-3.0364990234375	10.013149893188476	0.21428104858398436	-0.229843359375	3.688812255859375	-4.581451416015625	-2.162933349609375	
29	0.116	0.0	0.0	0.0	0.0	4.524	4.596	4.596	4.545	9.87009634399414	0.11731588134765625	0.051475335693359374	2.414703369140625	-3.696441650390625	-1.094818115234375	9.776722479248047	0.4674678741455078	0.17956512451171874	0.797271728515625	-5.035400390625	-2.864837646484375	10.01733974609375	0.20649989318847656	-0.22505495605468748	3.658294677734375	-4.688262939453125	-2.08282470703125	
30	0.12	0.0	0.0	0.0	0.0	4.545	4.593	4.599	4.515	9.866505041503906	0.11073182678222655	0.062249243164062495	2.7008056640625	-3.8299560546875	-0.86212158203125	9.784503634643555	0.4746504791259765	0.16998831787109375	0.86212158203125	-5.046844482421875	-3.009796142578125	10.022726699829102	0.20649989318847656	-0.229843359375	3.448486328125	-4.482269287109375	-1.888275146484375	
31	0.124	0.0	0.0	0.0	0.0	4.539	4.596	4.599	4.5	9.866505041503906	0.10115502014160156	0.05746083984375	2.666473388671875	-3.31878662109375	-0.995635986328125	9.782707983398437	0.4644751220703125	0.18076222534179687	0.86212158203125	-5.1116943359375	-3.185272216796875	10.012551342773437	0.19871873779296872	-0.21727380065917967	3.72314453125	-4.642486572265625	-2.2430419921875	
32	0.128	0.0	0.0	0.0	0.0	4.545	4.596	4.596	4.506	9.874884747314452	0.09277531433105468	0.0718260498046875	2.643585205078125	-3.47900390625	-0.873565673828125	9.78629928588867	0.4584896179199218	0.18136077575683593	0.835418701171875	-4.669189453125	-3.0059814453125	10.008960040283203	0.1897404815673828	-0.2088940948486328	3.475189208984375	-4.6539306640625	-2.010345458984375	
33	0.132	0.0	0.0	0.0	0.0	4.548	4.59	4.596	4.524	9.871293444824218	0.09157821350097656	0.07122749938964844	2.62451171875	-3.63922119140625	-0.8392333984375	9.78031378173828	0.45968671875	0.1753752716064453	1.117706298828125	-5.0201416015625	-3.05938720703125	10.011354241943359	0.1771709228515625	-0.20350714111328125	3.681182861328125	-4.5318603515625	-2.178192138671875	
34	0.136	0.0	0.0	0.0	0.0	4.539	4.596	4.596	4.533	9.871293444824218	0.08200140686035155	0.06823474731445311	2.635955810546875	-3.65447998046875	-0.75531005859375	9.773729727172851	0.44113165588378905	0.18914193115234373	0.843048095703125	-4.726409912109375	-2.78472900390625	10.001178884887695	0.17417817077636719	-0.19871873779296872	3.635406494140625	-4.4097900390625	-2.140045166015625	
35	0.14	0.0	0.0	0.0	0.0	4.533	4.596	4.599	4.5360000000000005	9.867702142333984	0.07242460021972656	0.07003039855957031	2.582550048828125	-3.509521484375	-1.007080078125	9.777321029663085	0.44053310546874996	0.17417817077636719	1.071929931640625	-5.222320556640625	-3.131866455078125	10.003573086547851	0.17238251953125	-0.19692308654785154	3.528594970703125	-4.75311279296875	-2.185821533203125	
36	0.14400000000000002	0.0	0.0	0.0	0.0	4.524	4.593	4.59	4.542	9.87009634399414	0.0718260498046875	0.07601590270996093	2.61688232421875	-3.7689208984375	-0.84686279296875	9.778518130493163	0.4375403533935547	0.17417817077636719	1.129150390625	-5.07354736328125	-3.021240234375	10.011354241943359	0.17298106994628906	-0.2041056915283203	3.681182861328125	-4.520416259765625	-1.922607421875	
37	0.148	0.0	0.0	0.0	0.0	4.542	4.596	4.599	4.509	9.867702142333984	0.08080430603027343	0.07481880187988281	2.62451171875	-3.387451171875	-0.77056884765625	9.783306533813477	0.44592005920410155	0.1771709228515625	0.804901123046875	-4.791259765625	-2.99835205078125	10.013149893188476	0.16280571289062498	-0.2232593048095703	3.482818603515625	-4.55474853515625	-2.2125244140625	
38	0.152	0.0	0.0	0.0	0.0	4.545	4.596	4.596	4.497	9.871891995239258	0.08140285644531249	0.061650692749023434	2.864837646484375	-3.765106201171875	-1.125335693359375	9.789890588378906	0.4429273071289062	0.17058686828613281	1.07574462890625	-5.077362060546875	-3.093719482421875	10.016142645263672	0.17118541870117188	-0.2214636535644531	3.566741943359375	-4.52423095703125	-2.086639404296875	
39	0.156	0.0	0.0	0.0	0.0	4.545	4.596	4.596	4.524	9.873687646484374	0.08140285644531249	0.06823474731445311	2.41851806640625	-3.528594970703125	-0.93841552734375	9.785700735473633	0.4495113616943359	0.16220716247558592	0.96893310546875	-5.02777099609375	-2.986907958984375	10.011354241943359	0.17896657409667968	-0.22086510314941404	3.810882568359375	-4.58526611328125	-2.246856689453125	
40	0.16	0.0	0.0	0.0	0.0	4.542	4.599	4.596	4.53	9.874884747314452	0.08200140686035155	0.0718260498046875	2.51007080078125	-3.692626953125	-0.751495361328125	9.788094937133788	0.4483142608642578	0.1592144104003906	1.09100341796875	-4.852294921875	-3.131866455078125	10.019733947753906	0.17597382202148437	-0.21188684692382811	3.650665283203125	-4.486083984375	-2.1820068359375	
41	0.164	0.0	0.0	0.0	0.0	4.539	4.596	4.596	4.533	9.877877499389648	0.086191259765625	0.054468087768554684	2.468109130859375	-3.77655029296875	-0.980377197265625	9.78629928588867	0.4483142608642578	0.16460136413574217	0.87738037109375	-5.126953125	-2.986907958984375	10.029310754394531	0.17597382202148437	-0.22505495605468748	3.53240966796875	-4.64630126953125	-2.246856689453125	
42	0.168	0.0	0.0	0.0	0.0	4.527	4.596	4.599	4.542	9.868899243164062	0.08918401184082031	0.04848258361816406	2.31170654296875	-3.742218017578125	-0.80108642578125	9.783905084228515	0.44891281127929683	0.16160861206054686	0.823974609375	-4.87518310546875	-3.101348876953125	10.013748443603514	0.17238251953125	-0.2376245147705078	3.452301025390625	-4.302978515625	-2.086639404296875	
43	0.17200000000000001	0.0	0.0	0.0	0.0	4.542	4.593	4.599	4.524	9.879074600219726	0.0796072052001953	0.04848258361816406	2.216339111328125	-3.620147705078125	-0.86212158203125	9.778518130493163	0.4483142608642578	0.1610100616455078	0.81634521484375	-4.9285888671875	-2.918243408203125	10.01015714111328	0.16759411621093748	-0.24001871643066405	3.597259521484375	-4.44793701171875	-2.03704833984375	
44	0.176	0.0	0.0	0.0	0.0	4.539	4.596	4.599	4.503	9.873089096069336	0.07541735229492187	0.051475335693359374	2.666473388671875	-3.856658935546875	-1.071929931640625	9.78629928588867	0.4542997650146484	0.1693897674560547	0.9002685546875	-5.023956298828125	-2.99835205078125	10.015544094848632	0.17597382202148437	-0.23882161560058593	3.376007080078125	-4.428863525390625	-2.26593017578125	
45	0.18	0.0	0.0	0.0	0.0	4.548	4.596	4.596	4.503	9.873687646484374	0.08080430603027343	0.05027823486328125	2.62451171875	-3.658294677734375	-0.81634521484375	9.785700735473633	0.4572925170898437	0.17357962036132812	0.980377197265625	-4.82940673828125	-3.101348876953125	10.012551342773437	0.1693897674560547	-0.2292448089599609	3.566741943359375	-4.66156005859375	-2.18963623046875	
46	0.184	0.0	0.0	0.0	0.0	4.548	4.593	4.596	4.527	9.860519537353515	0.08319850769042968	0.05985504150390625	2.54058837890625	-3.719329833984375	-0.8544921875	9.783905084228515	0.45010991210937495	0.16879121704101563	1.117706298828125	-5.02777099609375	-2.994537353515625	10.017938296508788	0.16759411621093748	-0.22685060729980466	3.688812255859375	-4.680633544921875	-2.056121826171875	
47	0.188	0.0	0.0	0.0	0.0	4.539	4.599	4.596	4.53	9.871293444824218	0.0718260498046875	0.0526724365234375	2.620697021484375	-3.650665283203125	-1.02996826171875	9.788693487548828	0.4435258575439453	0.1610100616455078	1.033782958984375	-4.82177734375	-3.002166748046875	10.00955859069824	0.17477672119140625	-0.2184709014892578	3.51715087890625	-4.596710205078125	-2.2125244140625	
48	0.192	0.0	0.0	0.0	0.0	4.5360000000000005	4.596	4.596	4.5360000000000005	9.867702142333984	0.08080430603027343	0.06344634399414062	2.7008056640625	-3.92913818359375	-0.9918212890625	9.789890588378906	0.44532150878906246	0.16220716247558592	0.95367431640625	-4.96673583984375	-3.16619873046875	10.018536846923828	0.17058686828613281	-0.2184709014892578	3.574371337890625	-4.657745361328125	-2.109527587890625	
49	0.196	0.0	0.0	0.0	0.0	4.527	4.596	4.593	4.542	9.865307940673828	0.07781155395507812	0.05746083984375	2.780914306640625	-3.681182861328125	-1.010894775390625	9.78031378173828	0.45669396667480466	0.16340426330566404	0.66375732421875	-4.833221435546875	-3.124237060546875	10.011952792358398	0.16879121704101563	-0.22685060729980466	3.528594970703125	-4.550933837890625	-2.15911865234375	
50	0.2	0.0	0.0	0.0	0.0	4.542	4.593	4.596	4.518	9.868899243164062	0.08678981018066406	0.052073886108398436	2.55584716796875	-3.726959228515625	-0.980377197265625	9.782707983398437	0.4632780212402344	0.16340426330566404	0.946044921875	-4.901885986328125	-3.10516357421875	10.017938296508788	0.18555062866210936	-0.22445640563964842	3.498077392578125	-4.50897216796875	-2.09808349609375	
51	0.20400000000000001	0.0	0.0	0.0	0.0	4.542	4.596	4.596	4.497	9.87668039855957	0.08798691101074219	0.0526724365234375	2.70843505859375	-3.932952880859375	-0.89263916015625	9.784503634643555	0.4638765716552734	0.1640028137207031	0.652313232421875	-4.67681884765625	-3.021240234375	10.017938296508788	0.18914193115234373	-0.22505495605468748	3.57818603515625	-4.4403076171875	-2.22015380859375	
52	0.20800000000000002	0.0	0.0	0.0	0.0	4.539	4.596	4.596	4.518	9.883264453125	0.09457096557617187	0.04908113403320312	2.742767333984375	-4.055023193359375	-1.049041748046875	9.773131176757811	0.46686932373046874	0.15502455749511718	1.171112060546875	-5.218505859375	-2.89154052734375	10.013149893188476	0.18555062866210936	-0.2292448089599609	3.742218017578125	-4.6539306640625	-2.079010009765625	
53	0.212	0.0	0.0	0.0	0.0	4.542	4.599	4.596	4.527	9.874884747314452	0.10474632263183593	0.05027823486328125	2.490997314453125	-3.749847412109375	-0.87738037109375	9.777321029663085	0.46627077331542965	0.15562310791015624	1.04522705078125	-4.90570068359375	-3.0517578125	10.020931048583984	0.19871873779296872	-0.2232593048095703	3.6163330078125	-4.482269287109375	-2.12860107421875	
54	0.216	0.0	0.0	0.0	0.0	4.542	4.596	4.599	4.533	9.866505041503906	0.11192892761230468	0.052073886108398436	2.666473388671875	-3.60107421875	-0.89263916015625	9.779116680908203	0.4704606262207031	0.17298106994628906	1.071929931640625	-4.8370361328125	-2.99072265625	10.029310754394531	0.19632453613281248	-0.2214636535644531	3.59344482421875	-4.634857177734375	-2.063751220703125	
55	0.22	0.0	0.0	0.0	0.0	4.527	4.596	4.599	4.542	9.866505041503906	0.11133037719726561	0.04249707946777344	2.64739990234375	-3.696441650390625	-0.91552734375	9.780912332153319	0.47764323120117186	0.16639701538085935	1.007080078125	-5.0048828125	-3.116607666015625	10.018536846923828	0.201112939453125	-0.23822306518554687	3.509521484375	-4.67681884765625	-2.346038818359375	
56	0.224	0.0	0.0	0.0	0.0	4.542	4.596	4.599	4.521	9.868899243164062	0.1197100830078125	0.03591302490234375	2.5787353515625	-3.643035888671875	-1.0528564453125	9.783905084228515	0.4782417816162109	0.16759411621093748	0.69427490234375	-4.680633544921875	-2.899169921875	10.012551342773437	0.20350714111328125	-0.2561795776367187	3.673553466796875	-4.7149658203125	-2.1514892578125	
57	0.228	0.0	0.0	0.0	0.0	4.5360000000000005	4.596	4.599	4.503	9.87668039855957	0.12449848632812499	0.040102877807617184	2.532958984375	-3.448486328125	-0.885009765625	9.776722479248047	0.48063598327636714	0.14963760375976562	0.95367431640625	-4.67681884765625	-3.009796142578125	10.019733947753906	0.2136824981689453	-0.2454056701660156	3.37982177734375	-4.497528076171875	-2.117156982421875	
58	0.232	0.0	0.0	0.0	0.0	4.548	4.596	4.596	4.503	9.868300692749022	0.12449848632812499	0.04608838195800781	2.69317626953125	-3.505706787109375	-0.835418701171875	9.779116680908203	0.4860229370117187	0.14903905334472656	0.885009765625	-4.673004150390625	-2.918243408203125	10.005368737792969	0.21906945190429686	-0.25318682556152344	3.4942626953125	-4.451751708984375	-2.166748046875	
59	0.23600000000000002	0.0	0.0	0.0	0.0	4.545	4.593	4.596	4.53	9.86351228942871	0.12569558715820311	0.05027823486328125	2.468109130859375	-3.631591796875	-0.827789306640625	9.785700735473633	0.489015689086914	0.15023615417480468	1.361846923828125	-5.138397216796875	-3.108978271484375	10.008960040283203	0.22565350646972654	-0.2615665313720703	3.50189208984375	-4.673004150390625	-2.1209716796875	
60	0.24	0.0	0.0	0.0	0.0	4.539	4.599	4.596	4.53	9.873687646484374	0.11791443176269531	0.05087678527832031	2.43377685546875	-3.795623779296875	-0.98419189453125	9.795277542114258	0.49320554199218747	0.14724340209960937	0.736236572265625	-5.084991455078125	-2.910614013671875	10.007762939453125	0.2154781494140625	-0.2454056701660156	3.597259521484375	-4.734039306640625	-2.349853515625	
61	0.244	0.0	0.0	0.0	0.0	4.533	4.596	4.596	4.533	9.873687646484374	0.12629413757324218	0.051475335693359374	2.490997314453125	-3.9215087890625	-1.056671142578125	9.78689783630371	0.4908113403320312	0.1562216583251953	0.63323974609375	-4.638671875	-2.979278564453125	10.008960040283203	0.20530279235839843	-0.24600422058105467	3.3416748046875	-4.291534423828125	-2.17437744140625	
62	0.248	0.0	0.0	0.0	0.0	4.527	4.596	4.593	4.545	9.882067352294921	0.13168109130859373	0.05027823486328125	2.655029296875	-3.856658935546875	-0.759124755859375	9.781510882568359	0.49739539489746093	0.16041151123046873	1.033782958984375	-4.978179931640625	-3.13568115234375	10.02332525024414	0.22086510314941404	-0.2232593048095703	3.37982177734375	-4.627227783203125	-2.094268798828125	
63	0.252	0.0	0.0	0.0	0.0	4.545	4.593	4.599	4.515	9.877877499389648	0.12629413757324218	0.05686228942871093	2.597808837890625	-3.696441650390625	-0.90789794921875	9.784503634643555	0.48183308410644526	0.1610100616455078	0.782012939453125	-4.95147705078125	-3.101348876953125	10.003573086547851	0.21248539733886718	-0.21188684692382811	3.631591796875	-4.47845458984375	-2.227783203125	
64	0.256	0.0	0.0	0.0	0.0	4.545	4.596	4.599	4.497	9.868300692749022	0.11372457885742186	0.0430956298828125	2.32696533203125	-3.72314453125	-0.89263916015625	9.782109432983399	0.4752490295410156	0.1562216583251953	0.843048095703125	-4.852294921875	-3.002166748046875	10.021529598999022	0.21009119567871093	-0.229843359375	3.536224365234375	-4.69207763671875	-2.288818359375	
65	0.26	0.0	0.0	0.0	0.0	4.545	4.596	4.593	4.515	9.867702142333984	0.1083376251220703	0.05087678527832031	2.716064453125	-3.757476806640625	-0.926971435546875	9.782707983398437	0.4734533782958984	0.17118541870117188	1.02996826171875	-4.962921142578125	-3.11279296875	10.024522351074218	0.2088940948486328	-0.21906945190429686	3.368377685546875	-4.75311279296875	-2.315521240234375	
66	0.264	0.0	0.0	0.0	0.0	4.542	4.599	4.596	4.53	9.873089096069336	0.11013327636718749	0.05027823486328125	2.613067626953125	-3.753662109375	-1.003265380859375	9.78629928588867	0.4722562774658203	0.1771709228515625	1.09100341796875	-5.214691162109375	-3.200531005859375	10.011354241943359	0.19812018737792966	-0.229843359375	3.681182861328125	-4.52423095703125	-1.9378662109375	
67	0.268	0.0	0.0	0.0	0.0	4.5360000000000005	4.599	4.599	4.533	9.874286196899414	0.10893617553710937	0.0652419952392578	2.567291259765625	-3.65447998046875	-0.881195068359375	9.787496386718749	0.4722562774658203	0.16998831787109375	0.8697509765625	-4.734039306640625	-2.933502197265625	10.019733947753906	0.19812018737792966	-0.229843359375	3.864288330078125	-4.79888916015625	-2.3345947265625	
68	0.272	0.0	0.0	0.0	0.0	4.533	4.596	4.599	4.539	9.868899243164062	0.10295067138671875	0.05686228942871093	2.567291259765625	-3.56292724609375	-1.953125	9.787496386718749	0.4674678741455078	0.16998831787109375	1.02996826171875	-5.14984130859375	-3.032684326171875	10.014945544433592	0.19692308654785154	-0.22206220397949217	3.444671630859375	-4.604339599609375	-2.017974853515625	
69	0.276	0.0	0.0	0.0	0.0	4.539	4.596	4.587	4.527	9.86291373901367	0.09636661682128905	0.058657940673828124	2.49481201171875	-3.726959228515625	-0.885009765625	9.785700735473633	0.469263525390625	0.1562216583251953	1.056671142578125	-4.974365234375	-3.1890869140625	10.013748443603514	0.1945288848876953	-0.21787235107421873	3.421783447265625	-4.421234130859375	-2.063751220703125	
70	0.28	0.0	0.0	0.0	0.0	4.539	4.596	4.599	4.506	9.8694977935791	0.0987608184814453	0.051475335693359374	2.46429443359375	-3.77655029296875	-0.701904296875	9.787496386718749	0.4626794708251953	0.14903905334472656	0.919342041015625	-4.89044189453125	-3.108978271484375	10.00955859069824	0.1897404815673828	-0.229843359375	3.574371337890625	-4.673004150390625	-2.0751953125	
71	0.28400000000000003	0.0	0.0	0.0	0.0	4.548	4.593	4.596	4.503	9.8694977935791	0.10235212097167969	0.05686228942871093	2.69317626953125	-3.79180908203125	-0.858306884765625	9.789292037963866	0.4632780212402344	0.16041151123046873	0.83160400390625	-5.222320556640625	-3.10516357421875	10.013748443603514	0.19153613281249998	-0.2280477081298828	3.734588623046875	-4.833221435546875	-2.155303955078125	
72	0.28800000000000003	0.0	0.0	0.0	0.0	4.545	4.5840000000000005	4.596	4.527	9.874884747314452	0.09696516723632811	0.0526724365234375	2.475738525390625	-3.787994384765625	-0.8392333984375	9.791087689208984	0.4584896179199218	0.17058686828613281	0.79345703125	-4.787445068359375	-3.032684326171875	10.008361489868163	0.19812018737792966	-0.23882161560058593	3.509521484375	-4.550933837890625	-2.05230712890625	
73	0.292	0.0	0.0	0.0	0.0	4.539	4.599	4.596	4.5360000000000005	9.868899243164062	0.0987608184814453	0.047285482788085934	2.590179443359375	-3.818511962890625	-1.04522705078125	9.789890588378906	0.4584896179199218	0.16639701538085935	0.90789794921875	-5.035400390625	-2.964019775390625	10.01015714111328	0.1945288848876953	-0.23642741394042968	3.650665283203125	-4.66156005859375	-2.28118896484375	
74	0.296	0.0	0.0	0.0	0.0	4.542	4.599	4.599	4.53	9.868899243164062	0.09576806640624999	0.06763619689941405	2.574920654296875	-3.742218017578125	-0.888824462890625	9.792284790039062	0.4560954162597656	0.17357962036132812	0.957489013671875	-4.871368408203125	-3.101348876953125	10.006565838623047	0.19153613281249998	-0.2346317626953125	3.6163330078125	-4.6234130859375	-2.02178955078125	
75	0.3	0.0	0.0	0.0	0.0	4.524	4.596	4.596	4.545	9.860519537353515	0.0939724151611328	0.07062894897460938	2.727508544921875	-3.753662109375	-1.010894775390625	9.785102185058593	0.45489831542968745	0.17178396911621094	0.797271728515625	-4.82177734375	-2.964019775390625	10.008361489868163	0.18076222534179687	-0.23044190979003906	3.566741943359375	-4.547119140625	-2.063751220703125	
76	0.304	0.0	0.0	0.0	0.0	4.545	4.596	4.596	4.521	9.873089096069336	0.08439560852050781	0.06763619689941405	2.4871826171875	-3.6468505859375	-0.96893310546875	9.779116680908203	0.4572925170898437	0.17477672119140625	0.70953369140625	-4.81414794921875	-3.032684326171875	10.013748443603514	0.17178396911621094	-0.22744915771484372	3.726959228515625	-4.75311279296875	-2.132415771484375	
77	0.308	0.0	0.0	0.0	0.0	4.539	4.596	4.599	4.494	9.873687646484374	0.08439560852050781	0.062249243164062495	2.521514892578125	-3.7689208984375	-0.9002685546875	9.785700735473633	0.4471171600341797	0.17597382202148437	0.90789794921875	-5.123138427734375	-3.131866455078125	10.014945544433592	0.17417817077636719	-0.21787235107421873	3.513336181640625	-4.608154296875	-2.0751953125	
78	0.312	0.0	0.0	0.0	0.0	4.545	4.596	4.596	4.5120000000000005	9.868899243164062	0.08200140686035155	0.06703764648437499	2.72369384765625	-3.795623779296875	-0.896453857421875	9.78629928588867	0.43933600463867184	0.17776947326660156	0.9002685546875	-4.94384765625	-2.960205078125	10.01075569152832	0.1657984649658203	-0.21009119567871093	3.662109375	-4.428863525390625	-2.00653076171875	
79	0.316	0.0	0.0	0.0	0.0	4.545	4.587	4.593	4.527	9.871891995239258	0.0652419952392578	0.06344634399414062	2.506256103515625	-3.582000732421875	-1.049041748046875	9.776722479248047	0.43514615173339843	0.18136077575683593	0.972747802734375	-4.978179931640625	-3.11279296875	10.016142645263672	0.15682020874023436	-0.201112939453125	3.53240966796875	-4.619598388671875	-2.02178955078125	
80	0.32	0.0	0.0	0.0	0.0	4.539	4.596	4.599	4.5360000000000005	9.865307940673828	0.06703764648437499	0.07242460021972656	2.552032470703125	-3.80706787109375	-1.12152099609375	9.788693487548828	0.43634325256347656	0.18136077575683593	0.732421875	-5.14984130859375	-2.826690673828125	10.013149893188476	0.1592144104003906	-0.18614917907714842	3.566741943359375	-4.69207763671875	-2.0904541015625	
81	0.324	0.0	0.0	0.0	0.0	4.5360000000000005	4.593	4.596	4.539	9.867702142333984	0.06584054565429687	0.06703764648437499	2.3956298828125	-3.665924072265625	-0.9613037109375	9.779715231323241	0.4339490509033203	0.19512743530273435	1.068115234375	-4.764556884765625	-3.0517578125	10.018536846923828	0.16639701538085935	-0.19692308654785154	3.50189208984375	-4.764556884765625	-1.895904541015625	
82	0.328	0.0	0.0	0.0	0.0	4.539	4.596	4.59	4.53	9.867702142333984	0.06823474731445311	0.06703764648437499	2.544403076171875	-3.85284423828125	-0.84686279296875	9.781510882568359	0.4327519500732422	0.18255787658691405	0.96893310546875	-4.695892333984375	-3.063201904296875	10.007164389038085	0.16998831787109375	-0.201112939453125	3.42559814453125	-4.55474853515625	-2.166748046875	
83	0.332	0.0	0.0	0.0	0.0	4.539	4.593	4.599	4.509	9.871891995239258	0.05985504150390625	0.07541735229492187	2.361297607421875	-3.7689208984375	-0.7781982421875	9.789890588378906	0.4417302062988281	0.16998831787109375	0.9918212890625	-5.268096923828125	-2.95257568359375	10.001777435302733	0.1562216583251953	-0.20829554443359374	3.662109375	-4.44793701171875	-2.170562744140625	
84	0.336	0.0	0.0	0.0	0.0	4.545	4.596	4.596	4.5	9.871891995239258	0.07003039855957031	0.062249243164062495	2.536773681640625	-3.76129150390625	-1.03759765625	9.782109432983399	0.4375403533935547	0.181959326171875	1.0223388671875	-4.985809326171875	-3.017425537109375	10.016142645263672	0.16280571289062498	-0.21068974609375	3.60107421875	-4.21905517578125	-2.288818359375	
85	0.34	0.0	0.0	0.0	0.0	4.548	4.593	4.596	4.524	9.862315188598632	0.08080430603027343	0.054468087768554684	2.460479736328125	-3.68499755859375	-0.946044921875	9.785102185058593	0.4417302062988281	0.1657984649658203	1.09100341796875	-4.98199462890625	-3.11279296875	10.013149893188476	0.17298106994628906	-0.21128829650878905	3.688812255859375	-4.604339599609375	-2.132415771484375	
86	0.34400000000000003	0.0	0.0	0.0	0.0	4.539	4.599	4.596	4.53	9.864709390258788	0.08858546142578125	0.047884033203124995	2.5482177734375	-3.63922119140625	-0.888824462890625	9.778518130493163	0.44891281127929683	0.14963760375976562	0.79345703125	-4.985809326171875	-2.99835205078125	10.014945544433592	0.17776947326660156	-0.21787235107421873	3.753662109375	-4.67681884765625	-2.06756591796875	
87	0.34800000000000003	0.0	0.0	0.0	0.0	4.539	4.599	4.596	4.53	9.871891995239258	0.09576806640624999	0.05626373901367187	2.6092529296875	-3.79180908203125	-0.957489013671875	9.775525378417969	0.45070846252441404	0.15203180541992187	1.194000244140625	-5.1116943359375	-3.101348876953125	10.01674119567871	0.18854338073730467	-0.23642741394042968	3.810882568359375	-4.764556884765625	-2.101898193359375	
88	0.352	0.0	0.0	0.0	0.0	4.527	4.596	4.596	4.545	9.86351228942871	0.10773907470703124	0.05566518859863281	2.574920654296875	-3.582000732421875	-0.99945068359375	9.783306533813477	0.4572925170898437	0.14963760375976562	0.762939453125	-4.90570068359375	-3.173828125	10.017938296508788	0.19632453613281248	-0.23642741394042968	3.50189208984375	-4.520416259765625	-2.109527587890625	
89	0.356	0.0	0.0	0.0	0.0	4.545	4.596	4.599	4.521	9.873089096069336	0.10235212097167969	0.05027823486328125	2.605438232421875	-3.864288330078125	-0.942230224609375	9.778518130493163	0.4722562774658203	0.15263035583496093	0.988006591796875	-5.054473876953125	-2.849578857421875	10.007762939453125	0.20171148986816406	-0.25797522888183594	3.658294677734375	-4.550933837890625	-2.147674560546875	
90	0.36	0.0	0.0	0.0	0.0	4.542	4.596	4.599	4.503	9.883264453125	0.1131260284423828	0.04908113403320312	2.593994140625	-3.77655029296875	-0.804901123046875	9.781510882568359	0.47704468078613277	0.1610100616455078	0.598907470703125	-4.70733642578125	-2.99835205078125	10.014945544433592	0.20709844360351562	-0.2609679809570312	3.72314453125	-4.459381103515625	-2.040863037109375	
91	0.364	0.0	0.0	0.0	0.0	4.545	4.596	4.596	4.503	9.873687646484374	0.105344873046875	0.05686228942871093	2.5787353515625	-3.60107421875	-0.93841552734375	9.789292037963866	0.48243163452148435	0.1514332550048828	0.9307861328125	-5.092620849609375	-2.819061279296875	10.026318002319336	0.21009119567871093	-0.25318682556152344	3.73077392578125	-4.6234130859375	-2.048492431640625	
92	0.368	0.0	0.0	0.0	0.0	4.539	4.59	4.596	4.524	9.8694977935791	0.11671733093261719	0.054468087768554684	2.6397705078125	-3.7078857421875	-0.92315673828125	9.785102185058593	0.47884033203125	0.1562216583251953	1.10626220703125	-5.035400390625	-3.0517578125	10.01733974609375	0.22086510314941404	-0.24839842224121092	3.421783447265625	-4.482269287109375	-2.06756591796875	
93	0.372	0.0	0.0	0.0	0.0	4.539	4.596	4.596	4.533	9.86411083984375	0.11731588134765625	0.044292730712890624	2.55584716796875	-3.574371337890625	-1.049041748046875	9.787496386718749	0.48542438659667964	0.15502455749511718	0.980377197265625	-5.0506591796875	-3.055572509765625	10.013149893188476	0.21068974609375	-0.24779987182617186	3.54766845703125	-4.57763671875	-2.155303955078125	
94	0.376	0.0	0.0	0.0	0.0	4.533	4.596	4.596	4.5360000000000005	9.8694977935791	0.11851298217773437	0.0383072265625	2.38037109375	-3.47137451171875	-0.835418701171875	9.788693487548828	0.4782417816162109	0.16819266662597654	0.888824462890625	-5.0201416015625	-3.162384033203125	10.01674119567871	0.21607669982910155	-0.2507926239013672	3.6468505859375	-4.5166015625	-2.170562744140625	
95	0.38	0.0	0.0	0.0	0.0	4.527	4.593	4.59	4.542	9.866505041503906	0.10654197387695312	0.052073886108398436	2.49481201171875	-3.612518310546875	-0.804901123046875	9.777321029663085	0.47764323120117186	0.15861585998535155	0.81634521484375	-4.878997802734375	-2.9449462890625	10.020332498168944	0.2041056915283203	-0.2316390106201172	3.65447998046875	-4.50897216796875	-2.17437744140625	
96	0.384	0.0	0.0	0.0	0.0	4.542	4.596	4.599	4.506	9.866505041503906	0.0987608184814453	0.04967968444824218	2.7923583984375	-3.772735595703125	-1.049041748046875	9.789890588378906	0.47704468078613277	0.15741875915527342	1.0223388671875	-5.031585693359375	-3.04412841796875	10.01075569152832	0.20649989318847656	-0.22505495605468748	3.54766845703125	-4.604339599609375	-2.231597900390625	
97	0.388	0.0	0.0	0.0	0.0	4.542	4.593	4.596	4.497	9.872490545654296	0.10654197387695312	0.0430956298828125	2.5482177734375	-3.80706787109375	-0.896453857421875	9.780912332153319	0.47644613037109373	0.15981296081542967	0.774383544921875	-4.978179931640625	-2.87628173828125	10.002974536132811	0.20949264526367187	-0.23582886352539062	3.787994384765625	-4.76837158203125	-2.197265625	
98	0.392	0.0	0.0	0.0	0.0	4.545	4.596	4.596	4.524	9.872490545654296	0.11073182678222655	0.05686228942871093	2.735137939453125	-3.79180908203125	-0.9613037109375	9.776722479248047	0.4674678741455078	0.1592144104003906	1.033782958984375	-4.98199462890625	-2.841949462890625	10.015544094848632	0.20171148986816406	-0.21906945190429686	3.65447998046875	-4.512786865234375	-2.262115478515625	
99	0.396	0.0	0.0	0.0	0.0	4.542	4.599	4.599	4.53	9.87069489440918	0.11372457885742186	0.04548983154296875	2.544403076171875	-3.688812255859375	-0.9765625	9.779116680908203	0.4746504791259765	0.16220716247558592	1.155853271484375	-5.04302978515625	-3.124237060546875	10.016142645263672	0.20530279235839843	-0.229843359375	3.452301025390625	-4.741668701171875	-2.025604248046875	
100	0.4	0.0	0.0	0.0	0.0	4.542	4.599	4.596	4.533	9.871891995239258	0.11611878051757812	0.05027823486328125	2.51007080078125	-3.71551513671875	-0.858306884765625	9.789890588378906	0.47884033203125	0.15981296081542967	1.0528564453125	-4.7149658203125	-3.101348876953125	10.01733974609375	0.20949264526367187	-0.229843359375	3.60870361328125	-4.5013427734375	-2.2430419921875	
101	0.404	0.0	0.0	0.0	0.0	4.527	4.596	4.596	4.542	9.873687646484374	0.11851298217773437	0.03531447448730469	2.51007080078125	-3.559112548828125	-0.782012939453125	9.78689783630371	0.4734533782958984	0.15861585998535155	1.148223876953125	-4.82940673828125	-3.063201904296875	10.01733974609375	0.2166752502441406	-0.22266075439453123	3.589630126953125	-4.4403076171875	-1.911163330078125	
102	0.40800000000000003	0.0	0.0	0.0	0.0	4.542	4.596	4.596	4.521	9.864709390258788	0.12330138549804687	0.03651157531738281	2.50244140625	-3.5247802734375	-0.946044921875	9.785102185058593	0.47884033203125	0.143652099609375	1.087188720703125	-4.82940673828125	-2.994537353515625	10.01075569152832	0.2088940948486328	-0.2292448089599609	3.681182861328125	-4.711151123046875	-2.166748046875	
103	0.41200000000000003	0.0	0.0	0.0	0.0	4.542	4.596	4.599	4.5	9.872490545654296	0.11851298217773437	0.03531447448730469	2.773284912109375	-3.910064697265625	-0.965118408203125	9.789890588378906	0.4782417816162109	0.15382745666503905	0.820159912109375	-4.94384765625	-3.032684326171875	10.017938296508788	0.21966800231933592	-0.23523031311035156	3.68499755859375	-4.474639892578125	-1.956939697265625	
104	0.41600000000000004	0.0	0.0	0.0	0.0	4.548	4.596	4.596	4.509	9.874884747314452	0.12210428466796874	0.03591302490234375	2.4566650390625	-3.627777099609375	-0.93841552734375	9.791686239624022	0.47884033203125	0.15263035583496093	0.95367431640625	-4.947662353515625	-3.0517578125	10.00955859069824	0.21966800231933592	-0.24899697265624998	3.80706787109375	-4.72259521484375	-2.3651123046875	
105	0.42	0.0	0.0	0.0	0.0	4.548	4.59	4.596	4.527	9.874884747314452	0.13108254089355467	0.04848258361816406	2.613067626953125	-3.875732421875	-0.904083251953125	9.789292037963866	0.47884033203125	0.1388636962890625	1.1444091796875	-4.89044189453125	-3.078460693359375	10.013748443603514	0.20769699401855468	-0.24600422058105467	3.475189208984375	-4.63104248046875	-2.025604248046875	
106	0.424	0.0	0.0	0.0	0.0	4.542	4.599	4.596	4.533	9.87668039855957	0.1274912384033203	0.044292730712890624	2.52532958984375	-3.44085693359375	-0.888824462890625	9.781510882568359	0.488417138671875	0.14305354919433594	0.9002685546875	-4.96673583984375	-3.15093994140625	10.016142645263672	0.21727380065917967	-0.24959552307128904	3.795623779296875	-4.634857177734375	-2.223968505859375	
107	0.428	0.0	0.0	0.0	0.0	4.5360000000000005	4.596	4.596	4.533	9.874884747314452	0.11791443176269531	0.05746083984375	2.57110595703125	-3.4942626953125	-0.9765625	9.788094937133788	0.48662148742675776	0.14185644836425781	1.02996826171875	-5.07354736328125	-3.154754638671875	10.007762939453125	0.2088940948486328	-0.24600422058105467	3.314971923828125	-4.425048828125	-2.017974853515625	
108	0.432	0.0	0.0	0.0	0.0	4.527	4.596	4.593	4.545	9.865307940673828	0.11611878051757812	0.05805939025878906	2.73895263671875	-3.849029541015625	-1.0986328125	9.78629928588867	0.4842272857666015	0.1484405029296875	0.926971435546875	-5.0811767578125	-3.143310546875	10.021529598999022	0.2059013427734375	-0.25737667846679685	3.63922119140625	-4.69970703125	-2.223968505859375	
109	0.436	0.0	0.0	0.0	0.0	4.545	4.596	4.599	4.515	9.860519537353515	0.11372457885742186	0.040701428222656245	2.704620361328125	-3.92913818359375	-0.8392333984375	9.783905084228515	0.479438882446289	0.143652099609375	0.759124755859375	-4.825592041015625	-2.98309326171875	10.01015714111328	0.2088940948486328	-0.25737667846679685	3.795623779296875	-4.6844482421875	-1.834869384765625	
110	0.44	0.0	0.0	0.0	0.0	4.545	4.596	4.593	4.497	9.867103591918944	0.1227028350830078	0.06643909606933593	2.25830078125	-3.7994384765625	-1.087188720703125	9.789292037963866	0.4848258361816406	0.15382745666503905	0.84686279296875	-4.791259765625	-3.07464599609375	10.013149893188476	0.1975216369628906	-0.24061726684570311	3.57818603515625	-4.52423095703125	-2.00653076171875	
111	0.444	0.0	0.0	0.0	0.0	4.545	4.596	4.596	4.518	9.872490545654296	0.10175357055664062	0.059256491088867186	2.536773681640625	-3.692626953125	-0.8544921875	9.787496386718749	0.47285482788085936	0.17776947326660156	0.865936279296875	-4.92095947265625	-2.960205078125	10.011952792358398	0.20171148986816406	-0.2328361114501953	3.63922119140625	-4.749298095703125	-2.132415771484375	
112	0.448	0.0	0.0	0.0	0.0	4.539	4.599	4.599	4.527	9.875483297729492	0.10115502014160156	0.059256491088867186	2.429962158203125	-3.6163330078125	-0.92315673828125	9.788094937133788	0.4656722229003906	0.1753752716064453	1.0986328125	-4.81414794921875	-3.078460693359375	10.00955859069824	0.19033903198242186	-0.22565350646972654	3.360748291015625	-4.73785400390625	-2.285003662109375	
113	0.452	0.0	0.0	0.0	0.0	4.539	4.596	4.599	4.5360000000000005	9.885658654785155	0.09995791931152344	0.07781155395507812	2.655029296875	-3.650665283203125	-0.759124755859375	9.791087689208984	0.4638765716552734	0.18614917907714842	0.957489013671875	-5.039215087890625	-3.12042236328125	10.025719451904296	0.18555062866210936	-0.21009119567871093	3.692626953125	-4.63104248046875	-1.94549560546875	
114	0.456	0.0	0.0	0.0	0.0	4.53	4.596	4.596	4.542	9.87608184814453	0.07721300354003906	0.08678981018066406	2.38800048828125	-3.65447998046875	-0.885009765625	9.78689783630371	0.44592005920410155	0.2041056915283203	0.919342041015625	-4.917144775390625	-2.98309326171875	10.013748443603514	0.15741875915527342	-0.18854338073730467	3.482818603515625	-4.57763671875	-2.017974853515625	
115	0.46	0.0	0.0	0.0	0.0	4.542	4.596	4.596	4.524	9.878476049804688	0.04848258361816406	0.08259995727539061	2.483367919921875	-3.77655029296875	-0.972747802734375	9.78629928588867	0.4112041351318359	0.18914193115234373	0.827789306640625	-5.035400390625	-3.208160400390625	10.01075569152832	0.1304839904785156	-0.20290859069824219	3.620147705078125	-4.608154296875	-2.13623046875	
116	0.464	0.0	0.0	0.0	0.0	4.539	4.596	4.599	4.506	9.868899243164062	0.04369418029785156	0.09935936889648436	2.376556396484375	-3.5247802734375	-0.751495361328125	9.785102185058593	0.41419688720703124	0.20949264526367187	0.820159912109375	-4.8370361328125	-3.021240234375	10.01015714111328	0.13766659545898435	-0.16280571289062498	3.4942626953125	-4.6234130859375	-2.13623046875	
117	0.468	0.0	0.0	0.0	0.0	4.548	4.593	4.596	4.503	9.858125335693359	0.016759411621093748	0.08678981018066406	2.475738525390625	-3.5858154296875	-0.843048095703125	9.763554370117188	0.3854664672851562	0.20530279235839843	0.92315673828125	-5.344390869140625	-3.01361083984375	9.993996279907225	0.11671733093261719	-0.16041151123046873	3.696441650390625	-4.497528076171875	-2.307891845703125	
118	0.47200000000000003	0.0	0.0	0.0	0.0	4.545	4.593	4.596	4.524	9.867702142333984	0.022146365356445312	0.06763619689941405	2.544403076171875	-3.482818603515625	-0.904083251953125	9.780912332153319	0.39324762268066404	0.19093758239746092	1.117706298828125	-4.901885986328125	-3.0670166015625	10.008960040283203	0.10594342346191406	-0.18076222534179687	3.77655029296875	-4.703521728515625	-2.197265625	
119	0.47600000000000003	0.0	0.0	0.0	0.0	4.539	4.599	4.593	4.53	9.867702142333984	0.040102877807617184	0.07900865478515624	2.620697021484375	-3.7078857421875	-1.049041748046875	9.779116680908203	0.41958384094238277	0.201112939453125	1.25885009765625	-4.8980712890625	-3.108978271484375	10.01733974609375	0.14305354919433594	-0.17178396911621094	3.82232666015625	-4.8065185546875	-2.3040771484375	
120	0.48	0.0	0.0	0.0	0.0	4.539	4.599	4.596	4.533	9.85632968444824	0.04189852905273437	0.06763619689941405	2.613067626953125	-3.59344482421875	-0.728607177734375	9.77492682800293	0.39743747558593745	0.1927332336425781	0.8392333984375	-5.039215087890625	-3.05938720703125	10.01015714111328	0.13467384338378904	-0.17896657409667968	3.7689208984375	-4.76837158203125	-2.22015380859375	
121	0.484	0.0	0.0	0.0	0.0	4.527	4.596	4.593	4.542	9.875483297729492	0.07003039855957031	0.05626373901367187	2.75421142578125	-3.696441650390625	-0.91552734375	9.78031378173828	0.4261678955078125	0.16340426330566404	1.056671142578125	-4.9896240234375	-3.10516357421875	10.01015714111328	0.14245499877929688	-0.21308394775390624	3.833770751953125	-4.638671875	-2.185821533203125	
122	0.488	0.0	0.0	0.0	0.0	4.542	4.596	4.599	4.518	9.877877499389648	0.09457096557617187	0.052073886108398436	2.6397705078125	-3.627777099609375	-0.95367431640625	9.78689783630371	0.48063598327636714	0.15981296081542967	1.331329345703125	-4.787445068359375	-2.960205078125	10.020931048583984	0.20769699401855468	-0.22864625854492185	3.72314453125	-4.7149658203125	-2.490997314453125	
123	0.492	0.0	0.0	0.0	0.0	4.545	4.596	4.599	4.497	9.885658654785155	0.09696516723632811	0.04249707946777344	2.7313232421875	-3.803253173828125	-0.904083251953125	9.79348189086914	0.45489831542968745	0.15023615417480468	0.96893310546875	-4.878997802734375	-3.01361083984375	10.024522351074218	0.17238251953125	-0.24959552307128904	3.559112548828125	-4.497528076171875	-2.1209716796875	
124	0.496	0.0	0.0	0.0	0.0	4.545	4.596	4.596	4.518	9.89523546142578	0.1083376251220703	0.023343466186523436	2.38800048828125	-3.86810302734375	-0.946044921875	9.80066449584961	0.4878185882568359	0.12689268798828124	0.8392333984375	-4.741668701171875	-2.994537353515625	10.027515103149414	0.19572598571777342	-0.27952304382324217	3.772735595703125	-4.558563232421875	-2.17437744140625	
125	0.5	0.0	0.0	0.0	0.0	4.548	4.599	4.596	4.527	9.889848507690429	0.13168109130859373	0.01915361328125	2.674102783203125	-3.849029541015625	-1.02996826171875	9.789890588378906	0.5183446594238281	0.11851298217773437	0.865936279296875	-5.046844482421875	-2.90679931640625	10.02392380065918	0.23822306518554687	-0.2980781066894531	3.70025634765625	-4.4097900390625	-2.300262451171875	
126	0.504	0.0	0.0	0.0	0.0	4.539	4.596	4.599	4.533	9.859920986938477	0.12808978881835936	0.031124621582031248	2.544403076171875	-3.41033935546875	-0.89263916015625	9.752780462646484	0.48063598327636714	0.11851298217773437	0.843048095703125	-5.31768798828125	-3.070831298828125	10.003573086547851	0.2088940948486328	-0.28790274963378903	3.5552978515625	-4.535675048828125	-2.288818359375	
127	0.508	0.0	0.0	0.0	0.0	4.533	4.596	4.599	4.539	9.852139831542969	0.13467384338378904	0.016160861206054686	2.483367919921875	-3.795623779296875	-1.01470947265625	9.763554370117188	0.4961982940673828	0.10654197387695312	1.19781494140625	-5.28717041015625	-3.01361083984375	10.000580334472655	0.21966800231933592	-0.3022679595947265	3.57818603515625	-4.669189453125	-2.155303955078125	
128	0.512	0.0	0.0	0.0	0.0	4.539	4.596	4.587	4.53	9.86411083984375	0.16160861206054686	0.013168109130859374	2.552032470703125	-3.4637451171875	-0.93841552734375	9.769539874267577	0.5404910247802734	0.09217676391601562	0.759124755859375	-4.810333251953125	-2.99835205078125	10.007762939453125	0.2651578338623047	-0.296881005859375	3.589630126953125	-4.703521728515625	-2.2125244140625	
129	0.516	0.0	0.0	0.0	0.0	4.539	4.596	4.599	4.503	9.87668039855957	0.1580173095703125	0.013766659545898436	2.5177001953125	-3.71551513671875	-0.988006591796875	9.790489138793944	0.5135562561035156	0.10893617553710937	0.9613037109375	-4.940032958984375	-2.92205810546875	10.017938296508788	0.23104046020507812	-0.28969840087890625	3.459930419921875	-4.604339599609375	-2.048492431640625	
130	0.52	0.0	0.0	0.0	0.0	4.548	4.593	4.596	4.5	9.882067352294921	0.1484405029296875	0.025139117431640625	2.4871826171875	-3.47137451171875	-0.850677490234375	9.797073193359374	0.5117606048583984	0.11252747802734374	1.1444091796875	-5.115509033203125	-3.082275390625	10.028113653564452	0.21727380065917967	-0.2741360900878906	3.513336181640625	-4.8370361328125	-2.0904541015625	
131	0.524	0.0	0.0	0.0	0.0	4.551	4.593	4.596	4.524	9.87668039855957	0.16220716247558592	0.023343466186523436	2.64739990234375	-3.818511962890625	-0.81634521484375	9.789292037963866	0.5398924743652344	0.11611878051757812	1.003265380859375	-5.054473876953125	-3.11279296875	10.022128149414062	0.2609679809570312	-0.2645592834472656	3.3721923828125	-4.60052490234375	-2.178192138671875	
132	0.528	0.0	0.0	0.0	0.0	4.5360000000000005	4.599	4.596	4.533	9.853336932373047	0.13646949462890623	0.03531447448730469	2.61688232421875	-3.72314453125	-0.83160400390625	9.77492682800293	0.5039794494628906	0.1466448516845703	0.614166259765625	-4.833221435546875	-2.84576416015625	10.01075569152832	0.22864625854492185	-0.24600422058105467	3.74603271484375	-4.802703857421875	-2.00653076171875	
133	0.532	0.0	0.0	0.0	0.0	4.542	4.593	4.596	4.5360000000000005	9.858723886108399	0.13347674255371092	0.04249707946777344	2.41851806640625	-2.956390380859375	-0.843048095703125	9.782707983398437	0.49021278991699213	0.1610100616455078	0.797271728515625	-4.940032958984375	-3.101348876953125	10.011952792358398	0.20470424194335937	-0.2232593048095703	3.50189208984375	-4.5623779296875	-2.101898193359375	
134	0.536	0.0	0.0	0.0	0.0	4.521	4.596	4.593	4.542	9.885658654785155	0.12988544006347655	0.031124621582031248	2.750396728515625	-3.62396240234375	-0.823974609375	9.788693487548828	0.5015852478027344	0.1610100616455078	0.91552734375	-4.96673583984375	-2.93731689453125	10.026916552734374	0.23044190979003906	-0.2088940948486328	3.757476806640625	-4.840850830078125	-2.208709716796875	
135	0.54	0.0	0.0	0.0	0.0	4.542	4.596	4.599	4.521	9.887454306030273	0.1131260284423828	0.032920272827148434	2.391815185546875	-3.795623779296875	-1.007080078125	9.78689783630371	0.48063598327636714	0.16759411621093748	1.125335693359375	-5.092620849609375	-3.0364990234375	10.028113653564452	0.20829554443359374	-0.1945288848876953	3.635406494140625	-4.37164306640625	-2.00653076171875	
136	0.544	0.0	0.0	0.0	0.0	4.545	4.596	4.599	4.5	9.873089096069336	0.08439560852050781	0.05087678527832031	2.490997314453125	-3.92913818359375	-0.83160400390625	9.779715231323241	0.46148236999511716	0.17657237243652343	0.98419189453125	-4.8980712890625	-3.025054931640625	10.008960040283203	0.17956512451171874	-0.1849520782470703	3.57818603515625	-4.367828369140625	-2.09808349609375	
137	0.548	0.0	0.0	0.0	0.0	4.542	4.596	4.596	4.509	9.854534033203125	0.09337386474609374	0.05746083984375	2.628326416015625	-3.875732421875	-0.81634521484375	9.773729727172851	0.4608838195800781	0.1753752716064453	0.823974609375	-5.096435546875	-3.0670166015625	10.005368737792969	0.19093758239746092	-0.19033903198242186	3.76129150390625	-4.73785400390625	-2.0294189453125	
138	0.552	0.0	0.0	0.0	0.0	4.545	4.587	4.596	4.527	9.854534033203125	0.09337386474609374	0.06105214233398437	2.651214599609375	-3.84521484375	-1.15966796875	9.769539874267577	0.45669396667480466	0.18435352783203124	0.858306884765625	-4.913330078125	-3.017425537109375	9.996390481567381	0.1771709228515625	-0.19871873779296872	3.7689208984375	-4.604339599609375	-2.124786376953125	
139	0.556	0.0	0.0	0.0	0.0	4.542	4.599	4.596	4.5360000000000005	9.85752678527832	0.09457096557617187	0.08020575561523437	2.498626708984375	-3.940582275390625	-0.919342041015625	9.782109432983399	0.4483142608642578	0.18614917907714842	0.98419189453125	-4.985809326171875	-2.964019775390625	10.001777435302733	0.18375497741699218	-0.20829554443359374	3.749847412109375	-4.398345947265625	-2.147674560546875	
140	0.56	0.0	0.0	0.0	0.0	4.533	4.596	4.596	4.542	9.873687646484374	0.09935936889648436	0.07721300354003906	2.498626708984375	-3.505706787109375	-1.007080078125	9.788693487548828	0.4638765716552734	0.17357962036132812	1.15203857421875	-5.24139404296875	-2.841949462890625	10.020931048583984	0.1945288848876953	-0.21248539733886718	3.528594970703125	-4.35638427734375	-2.0599365234375	
141	0.5640000000000001	0.0	0.0	0.0	0.0	4.542	4.596	4.59	4.527	9.883264453125	0.09277531433105468	0.08140285644531249	2.6092529296875	-3.406524658203125	-1.071929931640625	9.783905084228515	0.4542997650146484	0.1771709228515625	0.965118408203125	-5.130767822265625	-3.021240234375	10.034697708129881	0.1945288848876953	-0.21727380065917967	3.6163330078125	-4.581451416015625	-2.239227294921875	
142	0.5680000000000001	0.0	0.0	0.0	0.0	4.539	4.596	4.599	4.509	9.865906491088866	0.09576806640624999	0.09756371765136718	2.719879150390625	-3.65447998046875	-1.041412353515625	9.775525378417969	0.4471171600341797	0.18854338073730467	0.8392333984375	-4.894256591796875	-2.98309326171875	10.00955859069824	0.1801636749267578	-0.2280477081298828	3.54766845703125	-4.638671875	-2.15911865234375	
143	0.5720000000000001	0.0	0.0	0.0	0.0	4.545	4.593	4.596	4.497	9.873687646484374	0.086191259765625	0.10115502014160156	2.61688232421875	-3.681182861328125	-0.84686279296875	9.788094937133788	0.4471171600341797	0.1771709228515625	0.87738037109375	-4.8980712890625	-2.773284912109375	10.004770187377929	0.1771709228515625	-0.229843359375	3.6468505859375	-4.53948974609375	-2.025604248046875	
144	0.5760000000000001	0.0	0.0	0.0	0.0	4.548	4.593	4.596	4.53	9.874884747314452	0.07422025146484375	0.10594342346191406	2.471923828125	-3.726959228515625	-0.988006591796875	9.787496386718749	0.43634325256347656	0.18555062866210936	1.02996826171875	-4.955291748046875	-2.99835205078125	10.008361489868163	0.16639701538085935	-0.2262520568847656	3.719329833984375	-4.669189453125	-2.017974853515625	
145	0.58	0.0	0.0	0.0	0.0	4.542	4.596	4.596	4.53	9.874884747314452	0.07122749938964844	0.10654197387695312	2.67791748046875	-3.7384033203125	-0.965118408203125	9.79348189086914	0.4261678955078125	0.2041056915283203	0.804901123046875	-4.8370361328125	-2.99835205078125	10.019733947753906	0.1514332550048828	-0.21128829650878905	3.475189208984375	-4.69207763671875	-2.20489501953125	
146	0.584	0.0	0.0	0.0	0.0	4.542	4.596	4.596	4.533	9.87009634399414	0.05386953735351562	0.1083376251220703	2.193450927734375	-3.7994384765625	-0.946044921875	9.785102185058593	0.421978042602539	0.20171148986816406	0.881195068359375	-5.161285400390625	-3.032684326171875	10.01733974609375	0.14784195251464843	-0.1975216369628906	3.42559814453125	-4.596710205078125	-2.02178955078125	
147	0.588	0.0	0.0	0.0	0.0	4.521	4.596	4.596	4.545	9.86411083984375	0.03890577697753906	0.10654197387695312	2.674102783203125	-3.833770751953125	-0.980377197265625	9.785102185058593	0.41060558471679687	0.20530279235839843	0.896453857421875	-4.94384765625	-2.98309326171875	10.007762939453125	0.1388636962890625	-0.17836802368164062	3.2806396484375	-4.3792724609375	-2.20489501953125	
148	0.592	0.0	0.0	0.0	0.0	4.545	4.593	4.599	4.521	9.847949978637695	0.025139117431640625	0.10175357055664062	2.38037109375	-3.692626953125	-0.873565673828125	9.783905084228515	0.40222587890625	0.2262520568847656	0.70953369140625	-5.214691162109375	-3.162384033203125	10.002974536132811	0.12210428466796874	-0.1562216583251953	3.4332275390625	-4.520416259765625	-2.101898193359375	
149	0.596	0.0	0.0	0.0	0.0	4.5360000000000005	4.593	4.599	4.497	9.864709390258788	0.02454056701660156	0.10594342346191406	2.376556396484375	-3.665924072265625	-0.96893310546875	9.785102185058593	0.3950432739257812	0.23343466186523437	0.637054443359375	-4.87518310546875	-2.96783447265625	10.000580334472655	0.11731588134765625	-0.14425065002441406	3.490447998046875	-4.63104248046875	-2.197265625	
150	0.6	0.0	0.0	0.0	0.0	4.548	4.596	4.596	4.506	9.885658654785155	0.03531447448730469	0.09457096557617187	2.55584716796875	-3.551483154296875	-0.949859619140625	9.788693487548828	0.39923312683105466	0.23403321228027343	0.804901123046875	-5.37872314453125	-3.093719482421875	10.016142645263672	0.1304839904785156	-0.14903905334472656	3.4942626953125	-4.50897216796875	-2.227783203125	
151	0.604	0.0	0.0	0.0	0.0	4.551	4.59	4.596	4.527	9.880870251464843	0.032920272827148434	0.10474632263183593	2.7008056640625	-3.7384033203125	-0.8392333984375	9.792284790039062	0.3902548706054687	0.2292448089599609	1.03759765625	-5.06591796875	-3.078460693359375	10.019135397338866	0.12330138549804687	-0.14544775085449219	3.50189208984375	-4.535675048828125	-2.239227294921875	
152	0.608	0.0	0.0	0.0	0.0	4.539	4.596	4.596	4.533	9.87608184814453	0.04608838195800781	0.09277531433105468	2.506256103515625	-3.60107421875	-0.835418701171875	9.788094937133788	0.39444472351074217	0.23104046020507812	0.881195068359375	-4.85992431640625	-3.215789794921875	10.00417163696289	0.12868833923339842	-0.15382745666503905	3.505706787109375	-4.421234130859375	-1.93023681640625	
153	0.612	0.0	0.0	0.0	0.0	4.533	4.593	4.596	4.5360000000000005	9.8694977935791	0.055066638183593745	0.08559270935058594	2.613067626953125	-3.589630126953125	-0.87738037109375	9.783306533813477	0.411802685546875	0.20949264526367187	1.0528564453125	-5.031585693359375	-3.101348876953125	10.007762939453125	0.1466448516845703	-0.1771709228515625	3.753662109375	-4.764556884765625	-1.96075439453125	
154	0.616	0.0	0.0	0.0	0.0	4.527	4.596	4.59	4.545	9.87069489440918	0.06045359191894531	0.05985504150390625	2.727508544921875	-3.620147705078125	-0.865936279296875	9.775525378417969	0.4261678955078125	0.18854338073730467	0.9613037109375	-5.0506591796875	-2.925872802734375	10.005967288208007	0.15382745666503905	-0.17597382202148437	3.429412841796875	-4.756927490234375	-2.193450927734375	
155	0.62	0.0	0.0	0.0	0.0	4.545	4.599	4.599	4.509	9.8694977935791	0.07541735229492187	0.04369418029785156	2.742767333984375	-3.66973876953125	-0.988006591796875	9.781510882568359	0.44113165588378905	0.18255787658691405	1.03759765625	-4.802703857421875	-3.1280517578125	10.013748443603514	0.1580173095703125	-0.19333178405761717	3.482818603515625	-4.4708251953125	-2.08282470703125	
156	0.624	0.0	0.0	0.0	0.0	4.548	4.593	4.596	4.497	9.867103591918944	0.07601590270996093	0.034715924072265626	2.3956298828125	-3.742218017578125	-1.1749267578125	9.788693487548828	0.4578910675048828	0.15682020874023436	1.209259033203125	-5.06591796875	-3.047943115234375	10.018536846923828	0.19033903198242186	-0.24301146850585936	3.688812255859375	-4.734039306640625	-2.00653076171875	
157	0.628	0.0	0.0	0.0	0.0	4.545	4.593	4.596	4.518	9.87009634399414	0.11791443176269531	0.015562310791015624	2.719879150390625	-4.0130615234375	-0.911712646484375	9.775525378417969	0.47884033203125	0.13108254089355467	0.957489013671875	-4.886627197265625	-2.758026123046875	10.014945544433592	0.21128829650878905	-0.2723404388427734	3.688812255859375	-4.444122314453125	-1.956939697265625	
158	0.632	0.0	0.0	0.0	0.0	4.542	4.596	4.596	4.53	9.87668039855957	0.12808978881835936	0.010175357055664061	2.4566650390625	-3.95965576171875	-1.125335693359375	9.775525378417969	0.4955997436523437	0.10175357055664062	1.079559326171875	-5.13458251953125	-3.093719482421875	10.01015714111328	0.2088940948486328	-0.28730419921875	3.48663330078125	-4.695892333984375	-2.12860107421875	
159	0.636	0.0	0.0	0.0	0.0	4.542	4.599	4.596	4.542	9.874884747314452	0.15442600708007811	-0.001197100830078125	2.75421142578125	-3.620147705078125	-0.995635986328125	9.777919580078125	0.5117606048583984	0.08978256225585937	0.881195068359375	-5.130767822265625	-3.0364990234375	10.01015714111328	0.2346317626953125	-0.32082302246093747	3.7384033203125	-4.4403076171875	-2.086639404296875	
160	0.64	0.0	0.0	0.0	0.0	4.53	4.593	4.596	4.545	9.885658654785155	0.16759411621093748	-0.003591302490234375	2.590179443359375	-3.7994384765625	-0.850677490234375	9.789890588378906	0.5345055206298828	0.07601590270996093	0.9765625	-4.825592041015625	-3.04412841796875	10.01674119567871	0.2555810272216797	-0.3327940307617187	3.559112548828125	-4.642486572265625	-2.01416015625	
161	0.644	0.0	0.0	0.0	0.0	4.545	4.596	4.599	4.521	9.884461553955077	0.17477672119140625	-0.010773907470703125	2.605438232421875	-3.734588623046875	-1.03759765625	9.79408044128418	0.527322915649414	0.076614453125	1.110076904296875	-5.092620849609375	-3.009796142578125	10.026916552734374	0.26276363220214843	-0.34536358947753903	3.66973876953125	-4.322052001953125	-2.132415771484375	
162	0.648	0.0	0.0	0.0	0.0	4.5360000000000005	4.596	4.596	4.503	9.87608184814453	0.1753752716064453	-0.007781155395507812	2.4871826171875	-3.940582275390625	-0.797271728515625	9.78689783630371	0.5380968231201172	0.08080430603027343	1.041412353515625	-5.02777099609375	-3.2501220703125	10.022128149414062	0.26276363220214843	-0.32620997619628905	3.6163330078125	-4.5928955078125	-2.071380615234375	
163	0.652	0.0	0.0	0.0	0.0	4.551	4.593	4.596	4.506	9.868899243164062	0.16879121704101563	-0.030526071166992186	2.696990966796875	-3.65447998046875	-1.12152099609375	9.779116680908203	0.5410895751953124	0.07781155395507812	0.942230224609375	-4.917144775390625	-3.070831298828125	10.011354241943359	0.26695348510742184	-0.3286041778564453	3.39508056640625	-4.337310791015625	-2.262115478515625	
164	0.656	0.0	0.0	0.0	0.0	4.548	4.593	4.596	4.527	9.8694977935791	0.15981296081542967	-0.023942016601562498	2.5787353515625	-3.635406494140625	-0.8087158203125	9.77432827758789	0.5237316131591797	0.09038111267089843	0.98419189453125	-5.184173583984375	-3.08990478515625	10.008960040283203	0.2597708801269531	-0.31064766540527344	3.482818603515625	-4.749298095703125	-2.086639404296875	
165	0.66	0.0	0.0	0.0	0.0	4.545	4.599	4.596	4.533	9.865906491088866	0.15981296081542967	-0.025737667846679687	2.43377685546875	-3.635406494140625	-0.949859619140625	9.77432827758789	0.5243301635742187	0.09157821350097656	1.132965087890625	-5.1116943359375	-3.1280517578125	10.002375985717773	0.24899697265624998	-0.296881005859375	3.467559814453125	-4.53948974609375	-2.170562744140625	
166	0.664	0.0	0.0	0.0	0.0	4.539	4.596	4.599	4.5360000000000005	9.881468801879882	0.16460136413574217	-0.023343466186523436	2.3345947265625	-3.90625	-0.881195068359375	9.787496386718749	0.5237316131591797	0.10414777221679687	0.797271728515625	-4.974365234375	-3.101348876953125	10.02332525024414	0.258573779296875	-0.27952304382324217	3.574371337890625	-4.550933837890625	-2.166748046875	
167	0.668	0.0	0.0	0.0	0.0	4.533	4.596	4.593	4.545	9.887454306030273	0.15981296081542967	-0.007781155395507812	2.43377685546875	-3.68499755859375	-0.919342041015625	9.787496386718749	0.5201403106689453	0.11372457885742186	1.049041748046875	-4.978179931640625	-2.887725830078125	10.020332498168944	0.2609679809570312	-0.2651578338623047	3.688812255859375	-4.642486572265625	-2.14385986328125	
168	0.672	0.0	0.0	0.0	0.0	4.545	4.596	4.599	4.5120000000000005	9.873089096069336	0.15023615417480468	0.00718260498046875	2.635955810546875	-3.757476806640625	-1.018524169921875	9.783905084228515	0.5087678527832031	0.1197100830078125	0.957489013671875	-4.81414794921875	-3.082275390625	10.01015714111328	0.24480711975097655	-0.24779987182617186	3.7078857421875	-4.638671875	-1.97601318359375	
169	0.676	0.0	0.0	0.0	0.0	4.542	4.596	4.599	4.497	9.865906491088866	0.1484405029296875	0.010773907470703125	2.735137939453125	-3.589630126953125	-1.010894775390625	9.777321029663085	0.5117606048583984	0.1388636962890625	0.87738037109375	-4.955291748046875	-3.002166748046875	10.022128149414062	0.23044190979003906	-0.24301146850585936	3.814697265625	-4.695892333984375	-2.079010009765625	
170	0.68	0.0	0.0	0.0	0.0	4.548	4.596	4.596	4.515	9.872490545654296	0.13287819213867186	0.02693476867675781	2.719879150390625	-3.620147705078125	-0.8697509765625	9.788693487548828	0.5051765502929687	0.14305354919433594	0.81634521484375	-4.94384765625	-3.082275390625	10.017938296508788	0.23523031311035156	-0.229843359375	3.63922119140625	-4.749298095703125	-2.140045166015625	
171	0.684	0.0	0.0	0.0	0.0	4.554	4.599	4.599	4.53	9.865307940673828	0.12808978881835936	0.03591302490234375	2.544403076171875	-3.726959228515625	-0.79345703125	9.783905084228515	0.49799394531249996	0.15203180541992187	1.007080078125	-5.0048828125	-3.116607666015625	10.02332525024414	0.22505495605468748	-0.2328361114501953	4.055023193359375	-4.66156005859375	-2.197265625	
172	0.6880000000000001	0.0	0.0	0.0	0.0	4.548	4.596	4.596	4.533	9.87608184814453	0.12330138549804687	0.04369418029785156	2.727508544921875	-3.566741943359375	-1.033782958984375	9.779715231323241	0.5021837982177734	0.15083470458984374	0.827789306640625	-4.7607421875	-2.834320068359375	10.01674119567871	0.22505495605468748	-0.2424129180908203	3.7689208984375	-4.57000732421875	-2.239227294921875	
173	0.6920000000000001	0.0	0.0	0.0	0.0	4.527	4.596	4.599	4.545	9.87069489440918	0.12569558715820311	0.051475335693359374	2.552032470703125	-3.612518310546875	-0.95367431640625	9.787496386718749	0.49320554199218747	0.15083470458984374	0.896453857421875	-4.8370361328125	-3.1585693359375	10.020931048583984	0.22864625854492185	-0.2424129180908203	3.635406494140625	-4.69207763671875	-2.323150634765625	
174	0.6960000000000001	0.0	0.0	0.0	0.0	4.545	4.596	4.599	4.527	9.87608184814453	0.12808978881835936	0.07302315063476562	2.758026123046875	-3.299713134765625	-0.86212158203125	9.782707983398437	0.4955997436523437	0.16639701538085935	1.2969970703125	-5.07354736328125	-3.02886962890625	10.000580334472655	0.21607669982910155	-0.2280477081298828	3.54766845703125	-4.55474853515625	-2.06756591796875	
175	0.7000000000000001	0.0	0.0	0.0	0.0	4.542	4.596	4.596	4.503	9.878476049804688	0.11731588134765625	0.06943184814453125	2.57110595703125	-3.749847412109375	-0.9002685546875	9.788693487548828	0.4836287353515625	0.18136077575683593	0.9613037109375	-4.917144775390625	-3.101348876953125	10.012551342773437	0.20709844360351562	-0.239420166015625	3.73077392578125	-4.695892333984375	-2.0599365234375	
176	0.704	0.0	0.0	0.0	0.0	4.548	4.596	4.596	4.503	9.873687646484374	0.11252747802734374	0.07481880187988281	2.544403076171875	-3.692626953125	-0.896453857421875	9.789292037963866	0.47764323120117186	0.18435352783203124	1.007080078125	-4.90570068359375	-2.948760986328125	10.007762939453125	0.2059013427734375	-0.2316390106201172	3.620147705078125	-4.49371337890625	-2.132415771484375	
177	0.708	0.0	0.0	0.0	0.0	4.548	4.593	4.596	4.527	9.868300692749022	0.10235212097167969	0.08319850769042968	2.6397705078125	-3.570556640625	-1.010894775390625	9.788693487548828	0.47584757995605464	0.18734627990722655	0.70953369140625	-4.962921142578125	-2.979278564453125	10.020931048583984	0.19093758239746092	-0.22206220397949217	3.753662109375	-4.505157470703125	-2.0751953125	
178	0.712	0.0	0.0	0.0	0.0	4.5360000000000005	4.596	4.596	4.53	9.871293444824218	0.07900865478515624	0.10773907470703124	2.61688232421875	-3.612518310546875	-0.87738037109375	9.788693487548828	0.4435258575439453	0.20709844360351562	1.056671142578125	-4.64630126953125	-3.01361083984375	10.022128149414062	0.16519991455078123	-0.2041056915283203	3.345489501953125	-4.4708251953125	-2.05230712890625	
179	0.716	0.0	0.0	0.0	0.0	4.5360000000000005	4.599	4.596	4.533	9.860519537353515	0.06643909606933593	0.11911153259277343	2.5482177734375	-3.77655029296875	-0.762939453125	9.78629928588867	0.4375403533935547	0.2184709014892578	0.7476806640625	-5.054473876953125	-2.979278564453125	10.017938296508788	0.16699556579589842	-0.20051438903808594	3.509521484375	-4.558563232421875	-2.201080322265625	
180	0.72	0.0	0.0	0.0	0.0	4.527	4.596	4.593	4.542	9.86291373901367	0.04189852905273437	0.12509703674316405	2.315521240234375	-3.406524658203125	-0.83160400390625	9.787496386718749	0.4177881896972656	0.229843359375	0.885009765625	-5.06591796875	-2.99072265625	10.016142645263672	0.1592144104003906	-0.17657237243652343	3.4942626953125	-4.833221435546875	-2.0599365234375	
181	0.724	0.0	0.0	0.0	0.0	4.542	4.596	4.596	4.5120000000000005	9.858125335693359	0.04189852905273437	0.13287819213867186	2.43377685546875	-3.902435302734375	-0.888824462890625	9.790489138793944	0.4004302276611328	0.23882161560058593	1.0528564453125	-4.92095947265625	-2.99835205078125	10.020931048583984	0.13347674255371092	-0.15083470458984374	3.41796875	-4.425048828125	-2.124786376953125	
182	0.728	0.0	0.0	0.0	0.0	4.545	4.593	4.599	4.5	9.861716638183593	0.030526071166992186	0.1197100830078125	2.44903564453125	-3.70025634765625	-0.95367431640625	9.791087689208984	0.3842693664550781	0.2442085693359375	0.8544921875	-4.9285888671875	-3.3111572265625	10.006565838623047	0.12090718383789062	-0.1406593475341797	3.681182861328125	-4.4097900390625	-2.14385986328125	
183	0.732	0.0	0.0	0.0	0.0	4.548	4.596	4.596	4.515	9.868899243164062	0.023343466186523436	0.12210428466796874	2.471923828125	-3.7384033203125	-0.99945068359375	9.789292037963866	0.373495458984375	0.23642741394042968	0.8697509765625	-5.031585693359375	-3.086090087890625	10.01015714111328	0.1131260284423828	-0.12210428466796874	3.490447998046875	-4.55474853515625	-2.056121826171875	
184	0.736	0.0	0.0	0.0	0.0	4.548	4.599	4.596	4.53	9.87069489440918	0.015562310791015624	0.11133037719726561	2.4871826171875	-3.7689208984375	-0.995635986328125	9.782109432983399	0.36930560607910157	0.23343466186523437	0.759124755859375	-4.924774169921875	-2.9449462890625	10.017938296508788	0.09935936889648436	-0.11432312927246092	3.62396240234375	-4.5928955078125	-2.048492431640625	
185	0.74	0.0	0.0	0.0	0.0	4.539	4.599	4.599	4.533	9.8694977935791	0.012569558715820313	0.11252747802734374	2.582550048828125	-3.673553466796875	-0.823974609375	9.782707983398437	0.3699041564941406	0.23642741394042968	0.896453857421875	-4.932403564453125	-3.18145751953125	10.007762939453125	0.10654197387695312	-0.11731588134765625	3.66973876953125	-4.489898681640625	-2.223968505859375	
186	0.744	0.0	0.0	0.0	0.0	4.53	4.596	4.596	4.539	9.862315188598632	0.0143652099609375	0.12330138549804687	2.76947021484375	-3.681182861328125	-0.896453857421875	9.789292037963866	0.37828386230468747	0.22505495605468748	1.026153564453125	-4.894256591796875	-2.979278564453125	10.000580334472655	0.11372457885742186	-0.13826514587402344	3.650665283203125	-4.581451416015625	-2.361297607421875	
187	0.748	0.0	0.0	0.0	0.0	4.539	4.596	4.59	4.527	9.865307940673828	0.017357962036132813	0.11611878051757812	2.6092529296875	-3.688812255859375	-0.980377197265625	9.789890588378906	0.37708676147460934	0.2346317626953125	0.926971435546875	-4.8065185546875	-2.899169921875	10.007762939453125	0.10654197387695312	-0.15502455749511718	3.749847412109375	-4.6844482421875	-2.227783203125	
188	0.752	0.0	0.0	0.0	0.0	4.539	4.599	4.599	4.503	9.873687646484374	0.020949264526367185	0.10115502014160156	2.246856689453125	-3.719329833984375	-1.007080078125	9.787496386718749	0.39145197143554683	0.21428104858398436	1.163482666015625	-5.001068115234375	-3.01361083984375	10.007762939453125	0.11252747802734374	-0.16220716247558592	4.032135009765625	-4.9285888671875	-2.197265625	
189	0.756	0.0	0.0	0.0	0.0	4.545	4.593	4.596	4.503	9.871891995239258	0.03232172241210937	0.08918401184082031	2.574920654296875	-3.66973876953125	-0.896453857421875	9.789890588378906	0.412401235961914	0.19033903198242186	0.79345703125	-4.638671875	-2.98309326171875	10.025719451904296	0.12629413757324218	-0.19093758239746092	3.88336181640625	-4.512786865234375	-1.99127197265625	
190	0.76	0.0	0.0	0.0	0.0	4.551	4.593	4.596	4.53	9.864709390258788	0.040102877807617184	0.07721300354003906	2.62451171875	-3.7841796875	-0.99945068359375	9.789292037963866	0.412401235961914	0.17238251953125	0.946044921875	-4.978179931640625	-2.90679931640625	10.01015714111328	0.1406593475341797	-0.21308394775390624	3.89862060546875	-4.741668701171875	-2.338409423828125	
191	0.764	0.0	0.0	0.0	0.0	4.542	4.593	4.599	4.533	9.8694977935791	0.061650692749023434	0.05805939025878906	2.66265869140625	-3.627777099609375	-0.972747802734375	9.781510882568359	0.4267664459228515	0.16460136413574217	1.10626220703125	-4.833221435546875	-3.082275390625	10.011354241943359	0.14544775085449219	-0.24600422058105467	3.612518310546875	-4.425048828125	-2.155303955078125	
192	0.768	0.0	0.0	0.0	0.0	4.539	4.599	4.593	4.533	9.871293444824218	0.08259995727539061	0.04908113403320312	2.483367919921875	-3.818511962890625	-1.033782958984375	9.783306533813477	0.4572925170898437	0.12629413757324218	0.728607177734375	-4.9591064453125	-3.055572509765625	10.013149893188476	0.17178396911621094	-0.2657563842773437	3.74603271484375	-4.550933837890625	-2.307891845703125	
193	0.772	0.0	0.0	0.0	0.0	4.527	4.596	4.596	4.545	9.87009634399414	0.09337386474609374	0.029927520751953124	2.613067626953125	-3.726959228515625	-1.003265380859375	9.788094937133788	0.46627077331542965	0.1197100830078125	1.0833740234375	-5.07354736328125	-3.292083740234375	10.012551342773437	0.18255787658691405	-0.2819172454833984	3.658294677734375	-4.49371337890625	-1.983642578125	
194	0.776	0.0	0.0	0.0	0.0	4.545	4.596	4.599	4.515	9.87668039855957	0.11013327636718749	0.008978256225585938	2.750396728515625	-3.6163330078125	-0.835418701171875	9.788693487548828	0.479438882446289	0.11013327636718749	0.8087158203125	-5.02777099609375	-3.131866455078125	10.011952792358398	0.20649989318847656	-0.29448680419921874	3.597259521484375	-4.46319580078125	-2.38037109375	
195	0.78	0.0	0.0	0.0	0.0	4.539	4.596	4.599	4.503	9.88266590270996	0.11791443176269531	0.0047884033203125	2.613067626953125	-3.658294677734375	-0.96893310546875	9.782707983398437	0.4878185882568359	0.09576806640624999	1.1749267578125	-5.077362060546875	-2.99835205078125	10.020332498168944	0.21966800231933592	-0.3124433166503906	3.41796875	-4.67681884765625	-2.0904541015625	
196	0.784	0.0	0.0	0.0	0.0	4.548	4.593	4.596	4.509	9.867702142333984	0.1274912384033203	0.006584054565429687	2.58636474609375	-3.59344482421875	-1.140594482421875	9.77492682800293	0.4914098907470703	0.1005564697265625	0.9613037109375	-4.82177734375	-2.9144287109375	10.012551342773437	0.2214636535644531	-0.31483751831054685	3.482818603515625	-4.425048828125	-2.20489501953125	
197	0.788	0.0	0.0	0.0	0.0	4.545	4.587	4.596	4.527	9.871891995239258	0.1292868896484375	0.003591302490234375	2.567291259765625	-3.910064697265625	-0.8544921875	9.776722479248047	0.4961982940673828	0.1005564697265625	0.804901123046875	-4.67681884765625	-2.834320068359375	10.01075569152832	0.2232593048095703	-0.3130418670654297	3.376007080078125	-4.53948974609375	-2.0599365234375	
198	0.792	0.0	0.0	0.0	0.0	4.545	4.593	4.596	4.5360000000000005	9.868899243164062	0.13826514587402344	-0.008379705810546874	2.51007080078125	-3.734588623046875	-0.9918212890625	9.788693487548828	0.5111620544433594	0.0939724151611328	1.041412353515625	-4.962921142578125	-3.009796142578125	10.01015714111328	0.21966800231933592	-0.29867665710449215	3.63922119140625	-4.627227783203125	-2.307891845703125	
199	0.796	0.0	0.0	0.0	0.0	4.53	4.596	4.596	4.545	9.868899243164062	0.13946224670410157	-0.016759411621093748	2.567291259765625	-3.59344482421875	-0.96893310546875	9.77432827758789	0.5087678527832031	0.0987608184814453	0.98419189453125	-5.0811767578125	-2.887725830078125	10.008960040283203	0.22026655273437498	-0.2920926025390625	3.57818603515625	-4.703521728515625	-2.269744873046875	
200	0.8	0.0	0.0	0.0	0.0	4.545	4.596	4.59	4.533	9.871891995239258	0.14245499877929688	-0.015562310791015624	2.742767333984375	-3.4942626953125	-0.8697509765625	9.78031378173828	0.5105635040283203	0.11432312927246092	0.7171630859375	-4.85992431640625	-3.116607666015625	10.013149893188476	0.2376245147705078	-0.2819172454833984	3.467559814453125	-4.5013427734375	-2.208709716796875	
201	0.804	0.0	0.0	0.0	0.0	4.539	4.599	4.599	4.509	9.86411083984375	0.14484920043945312	-0.02154781494140625	2.506256103515625	-3.765106201171875	-0.95367431640625	9.776722479248047	0.5105635040283203	0.12330138549804687	0.96893310546875	-4.909515380859375	-2.99835205078125	10.01075569152832	0.23882161560058593	-0.2609679809570312	3.63922119140625	-4.6234130859375	-2.185821533203125	
202	0.808	0.0	0.0	0.0	0.0	4.548	4.593	4.596	4.497	9.866505041503906	0.15083470458984374	-0.004189852905273437	2.532958984375	-3.803253173828125	-0.972747802734375	9.782707983398437	0.5183446594238281	0.11731588134765625	1.01470947265625	-4.970550537109375	-3.0517578125	10.019733947753906	0.24660277099609373	-0.26396073303222656	3.597259521484375	-4.486083984375	-2.262115478515625	
203	0.812	0.0	0.0	0.0	0.0	4.545	4.59	4.596	4.521	9.87727894897461	0.1610100616455078	0.006584054565429687	2.44903564453125	-3.5400390625	-0.858306884765625	9.781510882568359	0.5315127685546874	0.13108254089355467	0.030517578125	-4.993438720703125	-2.910614013671875	10.025719451904296	0.24121581726074218	-0.26874913635253905	3.833770751953125	-4.6844482421875	-2.109527587890625	
204	0.8160000000000001	0.0	0.0	0.0	0.0	4.545	4.599	4.599	4.53	9.874286196899414	0.1592144104003906	0.0053869537353515625	2.72369384765625	-3.7689208984375	-0.759124755859375	9.788693487548828	0.5309142181396485	0.13467384338378904	0.77056884765625	-5.161285400390625	-3.28826904296875	10.020332498168944	0.25318682556152344	-0.2663549346923828	3.65447998046875	-4.43267822265625	-2.1820068359375	
205	0.8200000000000001	0.0	0.0	0.0	0.0	4.539	4.593	4.596	4.53	9.878476049804688	0.1657984649658203	0.014963760375976562	2.55584716796875	-3.62396240234375	-0.858306884765625	9.784503634643555	0.5333084197998047	0.13766659545898435	0.896453857421875	-4.852294921875	-2.95257568359375	10.015544094848632	0.24600422058105467	-0.2651578338623047	3.5858154296875	-4.375457763671875	-2.040863037109375	
206	0.8240000000000001	0.0	0.0	0.0	0.0	4.53	4.596	4.596	4.545	9.871293444824218	0.15382745666503905	0.028730419921875	2.7313232421875	-3.856658935546875	-0.904083251953125	9.773131176757811	0.5321113189697265	0.14125789794921875	0.751495361328125	-4.787445068359375	-2.994537353515625	10.008361489868163	0.2537853759765625	-0.24959552307128904	3.63922119140625	-4.428863525390625	-2.201080322265625	
207	0.8280000000000001	0.0	0.0	0.0	0.0	4.545	4.596	4.599	4.521	9.868899243164062	0.15023615417480468	0.03531447448730469	2.544403076171875	-3.82232666015625	-0.949859619140625	9.777321029663085	0.5345055206298828	0.15023615417480468	1.007080078125	-4.871368408203125	-2.98309326171875	10.007762939453125	0.25318682556152344	-0.2501940734863281	3.879547119140625	-4.73785400390625	-1.880645751953125	
208	0.8320000000000001	0.0	0.0	0.0	0.0	4.539	4.596	4.599	4.503	9.861716638183593	0.15741875915527342	0.044891281127929686	2.338409423828125	-3.597259521484375	-0.850677490234375	9.782109432983399	0.5339069702148437	0.15023615417480468	0.9002685546875	-4.848480224609375	-2.899169921875	10.013748443603514	0.2472013214111328	-0.25438392639160157	3.391265869140625	-4.512786865234375	-2.35748291015625	
209	0.836	0.0	0.0	0.0	0.0	4.548	4.596	4.596	4.506	9.868899243164062	0.15502455749511718	0.0526724365234375	2.651214599609375	-3.753662109375	-0.78582763671875	9.781510882568359	0.5249287139892578	0.15263035583496093	0.823974609375	-4.85992431640625	-3.0517578125	10.006565838623047	0.2537853759765625	-0.24600422058105467	3.513336181640625	-4.520416259765625	-2.14385986328125	
210	0.84	0.0	0.0	0.0	0.0	4.548	4.59	4.596	4.53	9.87009634399414	0.14724340209960937	0.0652419952392578	2.50244140625	-3.7078857421875	-0.988006591796875	9.782707983398437	0.5201403106689453	0.16280571289062498	0.797271728515625	-4.878997802734375	-3.047943115234375	10.007762939453125	0.24121581726074218	-0.2561795776367187	3.482818603515625	-4.547119140625	-2.017974853515625	
211	0.844	0.0	0.0	0.0	0.0	4.539	4.599	4.596	4.533	9.860519537353515	0.14006079711914063	0.07242460021972656	2.613067626953125	-3.7078857421875	-0.93841552734375	9.780912332153319	0.508169302368164	0.1801636749267578	1.224517822265625	-5.18035888671875	-3.078460693359375	10.012551342773437	0.22685060729980466	-0.22505495605468748	3.292083740234375	-4.39453125	-2.040863037109375	
212	0.848	0.0	0.0	0.0	0.0	4.539	4.596	4.599	4.539	9.868899243164062	0.13287819213867186	0.08738836059570312	2.49481201171875	-3.76129150390625	-1.071929931640625	9.783905084228515	0.49380409240722656	0.1879448303222656	0.858306884765625	-4.6844482421875	-2.9144287109375	10.006565838623047	0.2166752502441406	-0.2154781494140625	3.53240966796875	-4.730224609375	-2.277374267578125	
213	0.852	0.0	0.0	0.0	0.0	4.527	4.596	4.593	4.542	9.866505041503906	0.1131260284423828	0.09277531433105468	2.460479736328125	-3.96728515625	-1.056671142578125	9.773729727172851	0.4734533782958984	0.21428104858398436	1.12152099609375	-4.909515380859375	-3.12042236328125	10.011354241943359	0.19931728820800781	-0.19153613281249998	3.60870361328125	-4.558563232421875	-2.09808349609375	
214	0.856	0.0	0.0	0.0	0.0	4.542	4.599	4.599	4.5120000000000005	9.867702142333984	0.09995791931152344	0.10235212097167969	2.55584716796875	-3.70025634765625	-1.03759765625	9.778518130493163	0.46507367248535153	0.21068974609375	0.84686279296875	-4.9591064453125	-2.933502197265625	10.014945544433592	0.19512743530273435	-0.18076222534179687	3.6468505859375	-4.543304443359375	-2.197265625	
215	0.86	0.0	0.0	0.0	0.0	4.548	4.593	4.596	4.5	9.877877499389648	0.08918401184082031	0.10594342346191406	2.471923828125	-3.82232666015625	-0.78582763671875	9.783306533813477	0.4471171600341797	0.22744915771484372	0.766754150390625	-5.0201416015625	-3.0059814453125	10.014945544433592	0.16998831787109375	-0.17238251953125	3.60107421875	-4.5013427734375	-2.239227294921875	
216	0.864	0.0	0.0	0.0	0.0	4.545	4.593	4.596	4.524	9.87608184814453	0.06943184814453125	0.11073182678222655	2.391815185546875	-3.803253173828125	-1.003265380859375	9.78629928588867	0.43514615173339843	0.2346317626953125	0.797271728515625	-5.046844482421875	-3.307342529296875	10.015544094848632	0.16280571289062498	-0.16879121704101563	3.60107421875	-4.779815673828125	-2.399444580078125	
217	0.868	0.0	0.0	0.0	0.0	4.5360000000000005	4.599	4.599	4.53	9.864709390258788	0.05566518859863281	0.12389993591308593	2.52532958984375	-3.5552978515625	-0.995635986328125	9.776722479248047	0.4159925384521484	0.23642741394042968	1.0986328125	-4.848480224609375	-2.99072265625	10.014945544433592	0.1466448516845703	-0.14544775085449219	3.42559814453125	-4.45556640625	-2.349853515625	
218	0.872	0.0	0.0	0.0	0.0	4.542	4.599	4.599	4.533	9.858125335693359	0.0430956298828125	0.1274912384033203	2.7008056640625	-3.79180908203125	-0.919342041015625	9.783306533813477	0.41419688720703124	0.23523031311035156	1.13677978515625	-4.978179931640625	-3.116607666015625	10.020931048583984	0.13467384338378904	-0.14185644836425781	3.56292724609375	-4.52423095703125	-2.05230712890625	
219	0.876	0.0	0.0	0.0	0.0	4.527	4.596	4.596	4.542	9.872490545654296	0.03232172241210937	0.11791443176269531	2.552032470703125	-3.73077392578125	-0.77056884765625	9.789890588378906	0.39983167724609375	0.23882161560058593	0.896453857421875	-4.8065185546875	-3.28826904296875	10.022726699829102	0.12449848632812499	-0.14724340209960937	3.498077392578125	-4.44793701171875	-2.13623046875	
220	0.88	0.0	0.0	0.0	0.0	4.542	4.596	4.596	4.521	9.86291373901367	0.028131869506835935	0.12030863342285156	2.6092529296875	-3.54766845703125	-0.90789794921875	9.787496386718749	0.3908534210205078	0.23343466186523437	1.064300537109375	-5.0811767578125	-3.139495849609375	10.007762939453125	0.11911153259277343	-0.13587094421386717	3.7384033203125	-4.47845458984375	-1.941680908203125	
221	0.884	0.0	0.0	0.0	0.0	4.539	4.596	4.599	4.503	9.871293444824218	0.02454056701660156	0.10235212097167969	2.536773681640625	-3.498077392578125	-0.972747802734375	9.77432827758789	0.3872621185302734	0.22206220397949217	1.132965087890625	-5.06591796875	-3.063201904296875	10.019733947753906	0.12090718383789062	-0.15322890625	3.650665283203125	-4.627227783203125	-2.01416015625	
222	0.888	0.0	0.0	0.0	0.0	4.548	4.593	4.596	4.506	9.868899243164062	0.018555062866210937	0.10654197387695312	2.918243408203125	-3.936767578125	-1.03759765625	9.771934075927733	0.3902548706054687	0.2088940948486328	1.010894775390625	-4.878997802734375	-2.941131591796875	10.01733974609375	0.12689268798828124	-0.17896657409667968	3.711700439453125	-4.57763671875	-2.3193359375	
223	0.892	0.0	0.0	0.0	0.0	4.545	4.59	4.596	4.524	9.873687646484374	0.028730419921875	0.09277531433105468	2.8076171875	-3.7689208984375	-1.09100341796875	9.788693487548828	0.3938461730957031	0.19871873779296872	1.068115234375	-5.168914794921875	-3.078460693359375	10.012551342773437	0.12330138549804687	-0.18734627990722655	3.53240966796875	-4.61578369140625	-2.117156982421875	
224	0.896	0.0	0.0	0.0	0.0	4.542	4.596	4.596	4.533	9.87009634399414	0.037110125732421874	0.08858546142578125	2.559661865234375	-3.7689208984375	-0.80108642578125	9.778518130493163	0.40402153015136716	0.17776947326660156	1.0528564453125	-4.985809326171875	-2.98309326171875	10.013149893188476	0.12808978881835936	-0.20709844360351562	3.54766845703125	-4.5013427734375	-2.010345458984375	
225	0.9	0.0	0.0	0.0	0.0	4.539	4.596	4.596	4.533	9.872490545654296	0.0430956298828125	0.0796072052001953	2.559661865234375	-3.83758544921875	-0.70953369140625	9.789890588378906	0.41359833679199215	0.16879121704101563	1.049041748046875	-4.78363037109375	-3.2196044921875	10.011952792358398	0.1406593475341797	-0.23523031311035156	3.711700439453125	-4.802703857421875	-2.2735595703125	
226	0.904	0.0	0.0	0.0	0.0	4.527	4.596	4.59	4.545	9.867702142333984	0.044891281127929686	0.059256491088867186	2.490997314453125	-3.749847412109375	-0.90789794921875	9.781510882568359	0.4225765930175781	0.1484405029296875	1.186370849609375	-5.126953125	-3.0364990234375	10.012551342773437	0.14724340209960937	-0.24061726684570311	3.704071044921875	-4.58526611328125	-2.010345458984375	
227	0.908	0.0	0.0	0.0	0.0	4.545	4.596	4.599	4.515	9.868899243164062	0.04668693237304687	0.04369418029785156	2.75421142578125	-3.681182861328125	-0.91552734375	9.791087689208984	0.42317514343261714	0.12449848632812499	0.823974609375	-4.8370361328125	-3.0670166015625	10.025719451904296	0.15682020874023436	-0.26276363220214843	3.444671630859375	-4.375457763671875	-2.117156982421875	
228	0.912	0.0	0.0	0.0	0.0	4.545	4.596	4.599	4.5	9.87069489440918	0.06703764648437499	0.03890577697753906	2.704620361328125	-3.7689208984375	-1.140594482421875	9.784503634643555	0.43634325256347656	0.13168109130859373	1.04522705078125	-4.84466552734375	-3.131866455078125	10.01674119567871	0.16280571289062498	-0.2699462371826172	3.7078857421875	-4.57000732421875	-2.40325927734375	
229	0.916	0.0	0.0	0.0	0.0	4.542	4.59	4.593	4.515	9.87608184814453	0.07362170104980469	0.02693476867675781	2.498626708984375	-3.80706787109375	-0.888824462890625	9.788693487548828	0.4423287567138672	0.12210428466796874	1.064300537109375	-5.21087646484375	-3.276824951171875	10.011354241943359	0.17178396911621094	-0.2711433380126953	3.2958984375	-4.34112548828125	-1.949310302734375	
230	0.92	0.0	0.0	0.0	0.0	4.545	4.596	4.599	4.53	9.884461553955077	0.07900865478515624	0.016160861206054686	2.38037109375	-3.711700439453125	-1.129150390625	9.787496386718749	0.45549686584472654	0.11552023010253906	0.896453857421875	-5.153656005859375	-2.979278564453125	10.01674119567871	0.17298106994628906	-0.2825157958984375	3.4637451171875	-4.550933837890625	-2.05230712890625	
231	0.924	0.0	0.0	0.0	0.0	4.542	4.596	4.596	4.533	9.882067352294921	0.09337386474609374	0.011372457885742187	2.620697021484375	-3.787994384765625	-0.9307861328125	9.788693487548828	0.46028526916503903	0.11611878051757812	0.820159912109375	-4.87518310546875	-3.08990478515625	10.01674119567871	0.1771709228515625	-0.28730419921875	3.50189208984375	-4.49371337890625	-2.155303955078125	
232	0.928	0.0	0.0	0.0	0.0	4.53	4.596	4.596	4.542	9.877877499389648	0.09816226806640624	-0.0005985504150390625	2.4261474609375	-3.726959228515625	-0.843048095703125	9.792284790039062	0.4644751220703125	0.10654197387695312	0.823974609375	-4.94384765625	-3.108978271484375	10.01674119567871	0.1753752716064453	-0.2699462371826172	3.726959228515625	-4.596710205078125	-2.048492431640625	
233	0.932	0.0	0.0	0.0	0.0	4.542	4.596	4.599	4.527	9.87608184814453	0.10594342346191406	-0.010175357055664061	2.704620361328125	-3.62396240234375	-0.8392333984375	9.789890588378906	0.469263525390625	0.09696516723632811	0.885009765625	-4.787445068359375	-3.086090087890625	10.01674119567871	0.19632453613281248	-0.277727392578125	3.54766845703125	-4.665374755859375	-2.22015380859375	
234	0.936	0.0	0.0	0.0	0.0	4.539	4.596	4.599	4.503	9.885658654785155	0.10235212097167969	-0.016160861206054686	2.471923828125	-3.47137451171875	-0.926971435546875	9.788094937133788	0.46507367248535153	0.08858546142578125	0.78582763671875	-4.852294921875	-3.086090087890625	10.021529598999022	0.19512743530273435	-0.27952304382324217	3.60107421875	-4.46319580078125	-2.1820068359375	
235	0.9400000000000001	0.0	0.0	0.0	0.0	4.548	4.593	4.596	4.506	9.880870251464843	0.10175357055664062	-0.007781155395507812	2.288818359375	-3.44085693359375	-1.02996826171875	9.79946739501953	0.469862075805664	0.08738836059570312	0.98419189453125	-5.2947998046875	-2.99835205078125	10.040084661865233	0.19812018737792966	-0.3022679595947265	3.53240966796875	-4.550933837890625	-2.132415771484375	
236	0.9440000000000001	0.0	0.0	0.0	0.0	4.545	4.593	4.596	4.527	9.87727894897461	0.14125789794921875	-0.017956512451171875	2.685546875	-3.849029541015625	-0.84686279296875	9.778518130493163	0.536899722290039	0.12629413757324218	0.81634521484375	-5.008697509765625	-2.90679931640625	10.011952792358398	0.26755203552246093	-0.2759317413330078	3.543853759765625	-4.573822021484375	-1.9989013671875	
237	0.9480000000000001	0.0	0.0	0.0	0.0	4.539	4.596	4.599	4.53	9.874286196899414	0.04189852905273437	0.002992752075195312	2.349853515625	-3.330230712890625	-0.873565673828125	9.80665	0.3962403747558593	0.10354922180175781	0.858306884765625	-5.161285400390625	-2.994537353515625	10.056844073486328	0.10175357055664062	-0.31962592163085934	3.658294677734375	-4.85992431640625	-2.25830078125	
238	0.9520000000000001	0.0	0.0	0.0	0.0	4.542	4.599	4.596	4.533	9.888651406860351	0.18375497741699218	-0.022146365356445312	2.361297607421875	-3.6468505859375	-0.827789306640625	9.791087689208984	0.5931634613037109	0.13467384338378904	1.19781494140625	-5.30242919921875	-3.078460693359375	10.007164389038085	0.3094505645751953	-0.22864625854492185	3.635406494140625	-4.53948974609375	-2.197265625	
239	0.9560000000000001	0.0	0.0	0.0	0.0	4.521	4.596	4.596	4.542	9.866505041503906	0.2136824981689453	-0.008379705810546874	3.021240234375	-3.841400146484375	-0.90789794921875	9.775525378417969	0.47884033203125	0.11611878051757812	0.911712646484375	-4.7454833984375	-3.002166748046875	10.038887561035155	0.1849520782470703	-0.2962824554443359	3.63922119140625	-4.61578369140625	-1.861572265625	
240	0.96	0.0	0.0	0.0	0.0	4.542	4.599	4.599	4.515	9.900622415161132	0.17058686828613281	-0.020949264526367185	2.50244140625	-3.849029541015625	-1.02996826171875	9.764751470947266	0.5452794281005859	0.13587094421386717	1.186370849609375	-4.932403564453125	-3.116607666015625	9.993397729492187	0.24001871643066405	-0.23104046020507812	3.875732421875	-4.566192626953125	-2.208709716796875	
241	0.964	0.0	0.0	0.0	0.0	4.542	4.596	4.599	4.5	9.872490545654296	0.2262520568847656	0.00239420166015625	3.01361083984375	-4.0283203125	-0.885009765625	9.79348189086914	0.4914098907470703	0.10953472595214843	0.850677490234375	-4.962921142578125	-2.93731689453125	10.073603485107421	0.21248539733886718	-0.32501287536621093	3.536224365234375	-4.489898681640625	-2.02178955078125	
242	0.968	0.0	0.0	0.0	0.0	4.545	4.593	4.596	4.515	9.906009368896484	0.20350714111328125	-0.017956512451171875	3.11279296875	-4.093170166015625	-0.7781982421875	9.731831198120117	0.6835445739746093	0.15442600708007811	1.2359619140625	-4.871368408203125	-3.040313720703125	9.97125136413574	0.3507505432128906	-0.21787235107421873	3.482818603515625	-4.302978515625	-1.94549560546875	
243	0.972	0.0	0.0	0.0	0.0	4.545	4.5840000000000005	4.599	4.527	9.873687646484374	0.21308394775390624	0.01975216369628906	2.887725830078125	-3.8909912109375	-0.762939453125	9.803657247924804	0.4255693450927734	0.10953472595214843	0.988006591796875	-5.016326904296875	-3.0517578125	9.932345587158203	0.19033903198242186	-0.20709844360351562	3.818511962890625	-4.53948974609375	-2.1514892578125	
244	0.976	0.0	0.0	0.0	0.0	4.542	4.596	4.596	4.5360000000000005	9.886257205200195	0.20649989318847656	0.06883329772949218	2.95257568359375	-4.00543212890625	-1.155853271484375	9.75517466430664	0.6757634185791015	0.17417817077636719	1.03759765625	-4.852294921875	-3.265380859375	9.992799179077148	0.32441432495117184	-0.1945288848876953	3.826141357421875	-4.66156005859375	-2.349853515625	
245	0.98	0.0	0.0	0.0	0.0	4.53	4.596	4.599	4.545	9.880870251464843	0.25139117431640623	0.031124621582031248	3.055572509765625	-4.302978515625	-1.0833740234375	9.753977563476562	0.5626373901367188	0.14185644836425781	0.86212158203125	-4.871368408203125	-3.154754638671875	9.931148486328125	0.25139117431640623	-0.1849520782470703	3.60870361328125	-4.45556640625	-1.873016357421875	
246	0.984	0.0	0.0	0.0	0.0	4.545	4.596	4.587	4.53	9.887454306030273	0.2232593048095703	0.09157821350097656	2.986907958984375	-4.05120849609375	-0.87738037109375	9.718663088989258	0.7015010864257812	0.18315642700195311	1.190185546875	-4.886627197265625	-3.27301025390625	9.974842666625976	0.2059013427734375	-0.21248539733886718	3.5400390625	-4.49371337890625	-2.1820068359375	
247	0.988	0.0	0.0	0.0	0.0	4.539	4.599	4.599	4.503	9.89523546142578	0.09816226806640624	0.05386953735351562	2.422332763671875	-3.76129150390625	-0.885009765625	9.753977563476562	0.5291185668945312	0.18854338073730467	0.86212158203125	-5.1422119140625	-2.895355224609375	9.943119494628906	0.19632453613281248	-0.14245499877929688	3.643035888671875	-4.60052490234375	-2.02178955078125	
248	0.992	0.0	0.0	0.0	0.0	4.551	4.593	4.596	4.5	9.883264453125	0.21068974609375	0.10414777221679687	3.60107421875	-4.596710205078125	-0.93841552734375	9.783905084228515	0.4944026428222656	0.20171148986816406	1.071929931640625	-4.87518310546875	-3.30352783203125	9.997587582397461	0.18375497741699218	-0.18136077575683593	3.68499755859375	-4.360198974609375	-2.2735595703125	
249	0.996	0.0	0.0	0.0	0.0	4.542	4.59	4.599	4.527	9.900023864746093	0.09935936889648436	0.0718260498046875	2.544403076171875	-3.54766845703125	-0.9002685546875	9.740210903930663	0.5351040710449219	0.20949264526367187	0.743865966796875	-5.001068115234375	-2.74658203125	10.01015714111328	0.35194764404296874	-0.19093758239746092	3.574371337890625	-4.5318603515625	-2.02178955078125	
250	1.0	0.0	0.0	0.0	0.0	4.539	4.593	4.596	4.533	9.880271701049804	0.17776947326660156	0.12330138549804687	3.71551513671875	-4.5318603515625	-1.094818115234375	9.776722479248047	0.46208092041015625	0.2454056701660156	0.789642333984375	-4.99725341796875	-3.299713134765625	9.974244116210937	0.12509703674316405	-0.13467384338378904	3.536224365234375	-4.512786865234375	-2.349853515625	
251	1.004	0.0	0.0	0.0	0.0	4.542	4.599	4.596	4.533	9.91558617553711	0.04608838195800781	0.06464344482421874	2.590179443359375	-4.154205322265625	-0.904083251953125	9.81862100830078	0.4333505004882812	0.2699462371826172	0.789642333984375	-4.84466552734375	-2.62451171875	10.027515103149414	0.29388825378417965	-0.14604630126953125	3.604888916015625	-4.63104248046875	-2.00653076171875	
252	1.008	0.0	0.0	0.0	0.0	4.527	4.596	4.593	4.545	9.873089096069336	-0.059256491088867186	0.04608838195800781	2.323150634765625	-3.627777099609375	-1.06048583984375	9.78031378173828	0.48183308410644526	0.23104046020507812	0.888824462890625	-4.871368408203125	-3.284454345703125	9.964667309570311	0.13587094421386717	-0.13646949462890623	3.56292724609375	-4.695892333984375	-2.197265625	
253	1.012	0.0	0.0	0.0	0.0	4.545	4.596	4.599	4.518	9.897629663085937	0.047884033203124995	0.10175357055664062	2.552032470703125	-3.99017333984375	-0.89263916015625	9.791087689208984	0.4608838195800781	0.2855085479736328	0.530242919921875	-4.848480224609375	-2.872467041015625	10.005368737792969	0.32082302246093747	-0.11851298217773437	3.658294677734375	-4.5623779296875	-1.796722412109375	
254	1.016	0.0	0.0	0.0	0.0	4.545	4.596	4.599	4.503	9.872490545654296	-0.12868833923339842	0.044891281127929686	2.300262451171875	-3.6163330078125	-0.98419189453125	9.874884747314452	0.18315642700195311	0.1274912384033203	1.064300537109375	-4.96673583984375	-3.10516357421875	10.141838232421874	-0.08200140686035155	-0.34835634155273437	3.734588623046875	-4.535675048828125	-2.323150634765625	
255	1.02	0.0	0.0	0.0	0.0	4.545	4.596	4.596	4.509	9.913191973876952	0.02454056701660156	0.10175357055664062	2.09808349609375	-3.200531005859375	-0.7476806640625	9.810241302490233	0.4381389038085937	0.2705447875976562	0.499725341796875	-5.16510009765625	-3.11279296875	10.029310754394531	0.2819172454833984	-0.13407529296874998	3.631591796875	-4.608154296875	-1.97601318359375	
256	1.024	0.0	0.0	0.0	0.0	4.551	4.587	4.596	4.527	9.868899243164062	-0.13587094421386717	0.027533319091796873	1.972198486328125	-3.253936767578125	-1.079559326171875	9.872490545654296	0.19572598571777342	0.10594342346191406	0.9613037109375	-4.825592041015625	-2.960205078125	10.124480270385742	-0.03950432739257812	-0.36691140441894526	3.635406494140625	-4.35638427734375	-2.353668212890625	
257	1.028	0.0	0.0	0.0	0.0	4.545	4.599	4.599	4.539	9.749189160156249	0.1370680450439453	0.24839842224121092	1.979827880859375	-3.3416748046875	-0.823974609375	9.730035546875	0.49859249572753905	0.26874913635253905	0.90789794921875	-5.24139404296875	-2.826690673828125	10.032902056884765	0.4010287780761719	-0.15861585998535155	3.35693359375	-4.47845458984375	-2.0294189453125	
258	1.032	0.0	0.0	0.0	0.0	4.533	4.596	4.596	4.539	9.883264453125	-0.21607669982910155	0.0047884033203125	1.964569091796875	-3.353118896484375	-1.102447509765625	9.911994873046874	0.11611878051757812	0.058657940673828124	0.995635986328125	-4.924774169921875	-2.994537353515625	10.154407791137695	-0.14125789794921875	-0.4070142822265625	3.86810302734375	-4.314422607421875	-2.349853515625	
259	1.036	0.0	0.0	0.0	0.0	4.539	4.596	4.59	4.53	9.746794958496093	0.13168109130859373	0.24660277099609373	1.941680908203125	-3.42559814453125	-0.86212158203125	9.72285294189453	0.48722003784179685	0.2609679809570312	0.98419189453125	-4.962921142578125	-2.674102783203125	10.044873065185547	0.39803602600097654	-0.20530279235839843	3.467559814453125	-4.688262939453125	-2.185821533203125	
260	1.04	0.0	0.0	0.0	0.0	4.542	4.599	4.599	4.506	9.8694977935791	-0.029927520751953124	0.10474632263183593	0.98419189453125	-2.777099609375	-0.690460205078125	9.83897172241211	0.14724340209960937	0.086191259765625	0.75531005859375	-4.871368408203125	-2.742767333984375	10.084975942993163	-0.016759411621093748	-0.3315969299316406	3.658294677734375	-4.634857177734375	-1.865386962890625	
261	1.044	0.0	0.0	0.0	0.0	4.548	4.593	4.596	4.5	9.749787710571288	0.11133037719726561	0.2041056915283203	2.101898193359375	-3.261566162109375	-0.804901123046875	9.700108026123047	0.4722562774658203	0.24001871643066405	1.071929931640625	-4.94384765625	-2.6397705078125	10.058041174316406	0.40940848388671874	-0.2154781494140625	3.62396240234375	-4.764556884765625	-2.0599365234375	
262	1.048	0.0	0.0	0.0	0.0	4.545	4.593	4.596	4.524	9.872490545654296	-0.0652419952392578	0.08259995727539061	1.1444091796875	-2.849578857421875	-0.904083251953125	9.861118087768554	0.040102877807617184	0.040102877807617184	1.190185546875	-5.161285400390625	-3.11279296875	10.09993970336914	-0.10474632263183593	-0.3507505432128906	3.33404541015625	-4.695892333984375	-1.8768310546875	
263	1.052	0.0	0.0	0.0	0.0	4.542	4.596	4.599	4.533	9.737218151855469	0.1227028350830078	0.18614917907714842	1.811981201171875	-3.021240234375	-1.079559326171875	9.68454571533203	0.5033808990478515	0.22086510314941404	1.678466796875	-4.955291748046875	-3.520965576171875	10.024522351074218	0.46507367248535153	-0.2454056701660156	3.971099853515625	-4.528045654296875	-2.552032470703125	
264	1.056	0.0	0.0	0.0	0.0	4.542	4.596	4.596	4.533	9.878476049804688	-0.0053869537353515625	0.05027823486328125	1.216888427734375	-3.131866455078125	-0.7476806640625	9.847949978637695	0.07302315063476562	0.00718260498046875	1.140594482421875	-4.917144775390625	-3.02886962890625	10.089165795898436	-0.0383072265625	-0.3794809631347656	3.505706787109375	-4.8980712890625	-1.888275146484375	
265	1.06	0.0	0.0	0.0	0.0	4.533	4.596	4.593	4.542	9.886855755615233	0.19153613281249998	-0.04548983154296875	2.62451171875	-3.509521484375	-0.980377197265625	9.718064538574218	0.7769184387207031	0.15981296081542967	1.42669677734375	-4.833221435546875	-3.4942626953125	9.911994873046874	0.32082302246093747	-0.1693897674560547	3.60107421875	-4.688262939453125	-2.35748291015625	
266	1.064	0.0	0.0	0.0	0.0	4.542	4.596	4.599	4.521	9.87727894897461	-0.058657940673828124	0.07003039855957031	1.270294189453125	-3.07464599609375	-0.614166259765625	9.873089096069336	-0.0143652099609375	-0.0005985504150390625	0.9765625	-5.573272705078125	-2.880096435546875	10.09993970336914	-0.10893617553710937	-0.3651157531738281	3.50189208984375	-4.78363037109375	-1.93023681640625	
267	1.068	0.0	0.0	0.0	0.0	4.545	4.596	4.599	4.503	9.859322436523437	0.24361001892089842	-0.029328970336914062	2.90679931640625	-3.742218017578125	-1.132965087890625	9.701305126953125	0.8313865264892578	0.1693897674560547	1.82342529296875	-4.90570068359375	-3.437042236328125	9.889249957275391	0.35613749694824215	-0.15023615417480468	3.570556640625	-4.505157470703125	-2.658843994140625	
268	1.072	0.0	0.0	0.0	0.0	4.551	4.593	4.596	4.506	9.879074600219726	-0.020350714111328123	0.04848258361816406	3.849029541015625	-4.52423095703125	-1.117706298828125	9.739013803100585	0.6206967803955078	0.19931728820800781	0.8697509765625	-5.01251220703125	-2.81524658203125	9.896432562255859	0.1693897674560547	-0.10474632263183593	3.520965576171875	-4.64630126953125	-2.02178955078125	
269	1.076	0.0	0.0	0.0	0.0	4.545	4.587	4.599	0.003	9.8449572265625	0.26276363220214843	-0.013766659545898436	2.92205810546875	-4.146575927734375	-1.201629638671875	9.701903677368163	0.8397662322998046	0.17657237243652343	1.6632080078125	-5.100250244140625	-3.582000732421875	9.900023864746093	0.3447650390625	-0.14305354919433594	3.753662109375	-4.695892333984375	-2.29644775390625	
270	1.08	0.0	0.0	0.0	0.0	0.003	0.003	0.003	0.003	9.9215716796875	0.3854664672851562	-0.10354922180175781	3.7384033203125	-4.657745361328125	-0.79345703125	9.73602105102539	0.6099228729248046	0.1849520782470703	1.071929931640625	-5.218505859375	-2.948760986328125	9.903615167236328	0.12629413757324218	-0.10474632263183593	3.688812255859375	-4.730224609375	-1.983642578125	
271	1.084	0.0	0.0	0.0	0.0	0.009000000000000001	0.003	0.003	0.003	9.824007962036132	0.3220201232910156	-0.016759411621093748	3.383636474609375	-4.032135009765625	-1.117706298828125	9.777919580078125	0.6715735656738281	0.21188684692382811	0.946044921875	-4.8980712890625	-3.643035888671875	9.943119494628906	0.1083376251220703	-0.20649989318847656	3.765106201171875	-4.505157470703125	-2.66265869140625	
272	1.088	0.0	0.0	0.0	0.0	0.003	0.003	0.003	0.003	9.929951385498047	0.4417302062988281	-0.13168109130859373	3.7384033203125	-4.57000732421875	-0.732421875	9.74200655517578	0.6524199523925781	0.20231004028320312	1.129150390625	-5.14984130859375	-2.971649169921875	9.888651406860351	0.18734627990722655	-0.10893617553710937	3.551483154296875	-4.566192626953125	-1.880645751953125	
273	1.092	0.0	0.0	0.0	0.0	0.003	0.003	0.003	0.003	9.89583401184082	0.18555062866210936	0.030526071166992186	4.69970703125	-5.039215087890625	-1.2969970703125	9.764751470947266	0.6763619689941406	0.23343466186523437	0.873565673828125	-4.96673583984375	-3.570556640625	9.935338339233398	0.1388636962890625	-0.22445640563964842	3.70025634765625	-4.444122314453125	-2.655029296875	
274	1.096	0.0	0.0	0.0	0.0	0.006	0.006	0.003	0.003	9.932345587158203	0.4483142608642578	-0.15741875915527342	4.0435791015625	-4.82940673828125	-0.934600830078125	9.770736975097655	0.5518634826660156	0.17417817077636719	0.362396240234375	-5.138397216796875	-2.54058837890625	9.892242709350585	0.16220716247558592	-0.14544775085449219	3.681182861328125	-4.7760009765625	-1.712799072265625	
275	1.1	0.0	0.0	0.0	0.0	0.003	0.003	0.003	0.003	9.90241806640625	0.20350714111328125	0.017956512451171875	4.608154296875	-4.970550537109375	-0.92315673828125	9.752780462646484	0.7398083129882812	0.23702596435546874	0.823974609375	-4.73785400390625	-3.810882568359375	9.951499200439452	0.16819266662597654	-0.23044190979003906	3.505706787109375	-4.520416259765625	-2.658843994140625	
276	1.104	0.0	0.0	0.0	0.0	0.003	0.003	0.003	0.006	9.941922393798828	0.4944026428222656	-0.15562310791015624	3.955841064453125	-4.680633544921875	-0.896453857421875	9.753379013061522	0.6153098266601562	0.17298106994628906	-0.057220458984375	-4.98199462890625	-2.269744873046875	10.019733947753906	0.4531026641845703	-0.14245499877929688	3.6163330078125	-4.69207763671875	-1.659393310546875	
277	1.108	0.0	0.0	0.0	0.0	0.006	0.003	0.003	0.003	9.899425314331054	0.19093758239746092	0.016160861206054686	4.589080810546875	-4.993438720703125	-1.087188720703125	9.925162982177733	0.0430956298828125	-0.044891281127929686	0.926971435546875	-5.107879638671875	-3.1280517578125	9.943119494628906	0.1352723937988281	-0.23044190979003906	3.604888916015625	-4.512786865234375	-2.6092529296875	
278	1.112	0.0	0.0	0.0	0.0	0.006	0.003	0.006	0.006	9.812036953735351	0.076614453125	0.25139117431640623	2.330780029296875	-3.734588623046875	-0.820159912109375	9.738415252685547	0.6165069274902344	0.16879121704101563	0.308990478515625	-4.90570068359375	-2.471923828125	10.026916552734374	0.4375403533935547	-0.1292868896484375	3.76129150390625	-4.6539306640625	-1.73187255859375	
279	1.116	0.0	0.0	0.0	0.0	0.006	0.003	0.006	0.003	9.888052856445311	0.2507926239013672	0.03232172241210937	4.894256591796875	-5.218505859375	-1.262664794921875	9.919776028442381	0.09816226806640624	-0.028131869506835935	0.820159912109375	-4.924774169921875	-2.880096435546875	10.21545993347168	-0.15263035583496093	-0.4908113403320312	3.665924072265625	-4.47845458984375	-2.285003662109375	
280	1.12	0.0	0.0	0.0	0.0	0.006	0.006	0.003	0.006	9.776722479248047	0.05087678527832031	0.3172317199707031	2.15911865234375	-3.60870361328125	-0.698089599609375	9.66000514831543	0.556053335571289	0.2723404388427734	1.010894775390625	-4.993438720703125	-2.72369384765625	10.01733974609375	0.44412440795898434	-0.10953472595214843	3.635406494140625	-4.638671875	-1.575469970703125	
281	1.124	0.0	0.0	0.0	0.0	0.006	0.006	0.003	0.003	9.878476049804688	0.22026655273437498	0.037708676147460936	-0.888824462890625	-1.369476318359375	-1.064300537109375	9.920374578857421	0.0909796630859375	0.010175357055664061	1.003265380859375	-4.93621826171875	-3.047943115234375	10.210072979736328	-0.19812018737792966	-0.4644751220703125	3.570556640625	-4.360198974609375	-2.31170654296875	
282	1.1280000000000001	0.0	0.0	0.0	0.0	0.006	0.006	0.006	0.003	9.756371765136718	0.044292730712890624	0.33758243408203126	2.0751953125	-3.505706787109375	-0.850677490234375	9.687538467407226	0.6093243225097655	0.29089550170898437	0.858306884765625	-4.726409912109375	-2.67791748046875	9.98561657409668	0.6206967803955078	-0.12868833923339842	3.414154052734375	-4.535675048828125	-2.033233642578125	
283	1.1320000000000001	0.0	0.0	0.0	0.0	-0.003	0.003	0.003	0.003	9.906009368896484	-0.6123170745849609	-0.04967968444824218	-1.468658447265625	-1.430511474609375	-0.823974609375	9.898826763916015	0.09696516723632811	0.04369418029785156	1.2969970703125	-5.10406494140625	-3.139495849609375	10.198700521850585	-0.2154781494140625	-0.430956298828125	3.74603271484375	-4.451751708984375	-2.185821533203125	
284	1.1360000000000001	0.0	0.0	0.0	0.0	0.006	0.003	0.006	0.003	9.740809454345703	0.012569558715820313	0.3591302490234375	1.8463134765625	-3.448486328125	-0.732421875	9.706692080688477	0.5722141967773438	0.3178302703857422	0.8544921875	-5.0201416015625	-2.780914306640625	9.99220062866211	0.5781997009277343	-0.10594342346191406	3.520965576171875	-4.573822021484375	-2.0294189453125	
285	1.1400000000000001	0.0	0.0	0.0	0.0	0.003	0.003	0.003	0.006	9.909600671386718	-0.584185205078125	-0.04129997863769531	-1.506805419921875	-1.209259033203125	-0.70953369140625	9.938929641723632	-0.016759411621093748	0.012569558715820313	1.129150390625	-5.37109375	-2.864837646484375	10.155604891967773	-0.05566518859863281	-0.354341845703125	3.513336181640625	-4.78363037109375	-1.544952392578125	
286	1.1440000000000001	0.0	0.0	0.0	0.0	0.006	0.003	0.006	0.006	9.814431155395507	0.07422025146484375	0.105344873046875	0.3662109375	-2.05230712890625	-1.19781494140625	9.709086282348633	0.508169302368164	0.32082302246093747	1.567840576171875	-4.76837158203125	-2.780914306640625	9.983820922851562	0.5195417602539062	-0.08559270935058594	3.589630126953125	-4.558563232421875	-1.956939697265625	
287	1.1480000000000001	0.0	0.0	0.0	0.0	0.006	0.006	0.003	0.003	9.890447058105469	-0.6434416961669921	0.004189852905273437	-1.720428466796875	-1.220703125	-0.89263916015625	9.94072529296875	-0.09337386474609374	0.011372457885742187	1.049041748046875	-5.092620849609375	-3.147125244140625	10.169371551513672	-0.1867477294921875	-0.3507505432128906	3.59344482421875	-4.993438720703125	-1.79290771484375	
288	1.1520000000000001	0.0	0.0	0.0	0.0	0.006	0.006	0.003	0.006	9.835978970336914	0.11133037719726561	0.10295067138671875	0.152587890625	-2.002716064453125	-1.16729736328125	9.72285294189453	0.7996633544921875	0.23702596435546874	1.64794921875	-5.069732666015625	-3.4942626953125	10.005368737792969	0.6212953308105469	-0.10714052429199218	3.589630126953125	-4.543304443359375	-1.949310302734375	
289	1.156	0.0	0.0	0.0	0.0	0.006	0.006	0.006	0.006	9.874884747314452	-0.6284779357910156	0.03232172241210937	-2.28118896484375	-0.614166259765625	-0.812530517578125	9.943119494628906	-0.07781155395507812	-0.004189852905273437	1.071929931640625	-5.0506591796875	-2.811431884765625	10.16338604736328	-0.16280571289062498	-0.4016273284912109	3.459930419921875	-5.0811767578125	-1.4801025390625	
290	1.16	0.0	0.0	0.0	0.0	0.003	0.006	0.003	0.006	9.851541281127929	0.1131260284423828	0.08499415893554688	-0.064849853515625	-1.861572265625	-0.9918212890625	9.707290631103515	0.7278373046875	0.25737667846679685	1.499176025390625	-5.3558349609375	-3.22723388671875	9.865906491088866	0.4147954376220703	-0.062249243164062495	3.566741943359375	-4.75311279296875	-2.81524658203125	
291	1.164	0.0	0.0	0.0	0.0	0.006	0.003	0.006	0.006	9.929352835083007	0.43454760131835934	0.08559270935058594	3.154754638671875	-3.89862060546875	-0.80108642578125	9.74799205932617	0.2855085479736328	0.28431144714355466	0.499725341796875	-4.901885986328125	-2.788543701171875	10.188525164794921	-0.2184709014892578	-0.4129997863769531	3.45611572265625	-4.665374755859375	-1.667022705078125	
292	1.168	0.0	0.0	0.0	0.0	0.006	0.006	0.003	0.006	9.882067352294921	0.16340426330566404	0.03651157531738281	0.1983642578125	-2.025604248046875	-1.071929931640625	9.707290631103515	0.7751227874755859	0.2280477081298828	1.346588134765625	-4.840850830078125	-3.45611572265625	9.865906491088866	0.4339490509033203	-0.09457096557617187	3.66973876953125	-4.512786865234375	-2.55584716796875	
293	1.172	0.0	0.0	0.0	0.0	0.006	0.003	0.003	0.003	9.91498762512207	0.5698199951171875	0.06763619689941405	3.002166748046875	-3.63922119140625	-0.75531005859375	9.709086282348633	0.34057518615722654	0.3136404174804687	0.591278076171875	-5.115509033203125	-2.819061279296875	9.828796365356444	0.2214636535644531	-0.044292730712890624	3.76129150390625	-4.38690185546875	-1.8310546875	
294	1.176	0.0	0.0	0.0	0.0	0.006	0.003	0.003	0.006	9.904812268066406	0.12629413757324218	0.01915361328125	6.15692138671875	-5.83648681640625	-1.071929931640625	9.695319622802733	0.6159083770751953	0.2454056701660156	1.22833251953125	-4.848480224609375	-3.60107421875	9.877877499389648	0.38307226562499996	-0.11192892761230468	3.582000732421875	-4.61578369140625	-2.63214111328125	
295	1.18	0.0	0.0	0.0	0.0	0.0	0.003	0.003	0.0	9.943718045043944	0.5584475372314452	0.029328970336914062	3.54766845703125	-4.085540771484375	-0.74005126953125	9.738415252685547	0.2609679809570312	0.2902969512939453	0.461578369140625	-5.069732666015625	-2.780914306640625	9.8449572265625	0.08200140686035155	-0.07122749938964844	3.444671630859375	-4.566192626953125	-1.827239990234375	
296	1.184	0.0	0.0	0.0	0.0	0.006	0.006	0.003	0.006	9.888052856445311	0.6117185241699218	0.13467384338378904	6.519317626953125	-6.015777587890625	-1.186370849609375	9.6779616607666	0.7799111907958984	0.2442085693359375	1.21307373046875	-4.90570068359375	-3.627777099609375	9.961076007080077	0.21428104858398436	-0.18375497741699218	3.612518310546875	-4.222869873046875	-2.864837646484375	
297	1.188	0.0	0.0	0.0	0.0	0.003	0.006	0.003	0.003	9.9461122467041	0.6530185028076172	-0.022146365356445312	3.658294677734375	-4.44793701171875	-0.61798095703125	9.733626849365233	0.5979518646240234	0.12988544006347655	0.57220458984375	-5.092620849609375	-2.246856689453125	9.818022457885741	0.17597382202148437	-0.08140285644531249	3.509521484375	-4.650115966796875	-1.689910888671875	
298	1.192	0.0	0.0	0.0	0.0	0.003	0.003	0.003	0.003	9.900023864746093	0.48722003784179685	0.11731588134765625	7.038116455078125	-6.298065185546875	-1.02996826171875	9.71686743774414	0.4686649749755859	0.23642741394042968	1.007080078125	-4.5928955078125	-3.871917724609375	9.96586441040039	-0.07541735229492187	-0.20231004028320312	3.41796875	-4.558563232421875	-2.765655517578125	
299	1.196	0.0	0.0	0.0	0.0	0.003	0.006	0.003	0.006	9.955689053344726	0.24600422058105467	-0.05805939025878906	5.207061767578125	-5.558013916015625	-1.16729736328125	9.758167416381836	0.6063315704345703	0.14604630126953125	0.812530517578125	-5.313873291015625	-2.5787353515625	9.86351228942871	0.2561795776367187	-0.08918401184082031	3.582000732421875	-4.619598388671875	-2.0599365234375	
300	1.2	0.0	0.0	0.0	0.0	0.003	0.003	0.006	0.006	9.888651406860351	0.6416460449218749	0.09457096557617187	7.02667236328125	-6.381988525390625	-1.125335693359375	9.879673150634765	0.3226186737060547	0.025139117431640625	0.995635986328125	-5.035400390625	-3.170013427734375	9.913191973876952	0.1927332336425781	-0.17896657409667968	3.780364990234375	-4.5166015625	-2.54058837890625	
301	1.204	0.0	0.0	0.0	0.0	0.006	0.003	0.003	0.006	9.944915145874022	-0.06703764648437499	-0.059256491088867186	4.642486572265625	-5.435943603515625	-0.698089599609375	9.75517466430664	0.3399766357421875	0.1388636962890625	0.583648681640625	-5.0048828125	-2.483367919921875	10.011952792358398	0.16519991455078123	-0.10714052429199218	3.48663330078125	-4.634857177734375	-1.9989013671875	
302	1.208	0.0	0.0	0.0	0.0	0.006	0.006	0.003	0.003	9.925162982177733	0.4578910675048828	0.08918401184082031	6.244659423828125	-6.076812744140625	-0.606536865234375	9.967061511230469	0.26815058593749996	0.02154781494140625	1.041412353515625	-5.092620849609375	-3.570556640625	10.005967288208007	0.16160861206054686	-0.19512743530273435	3.559112548828125	-4.34112548828125	-3.116607666015625	
303	1.212	0.0	0.0	0.0	0.0	0.006	0.006	0.003	0.003	9.932345587158203	-0.17956512451171874	-0.058657940673828124	4.772186279296875	-5.359649658203125	-0.95367431640625	9.719261639404296	0.9115922821044922	0.058657940673828124	0.431060791015625	-4.8370361328125	-2.399444580078125	9.982623822021484	0.6242880828857421	-0.08678981018066406	3.528594970703125	-4.474639892578125	-1.682281494140625	
304	1.216	0.0	0.0	0.0	0.0	0.006	0.006	0.006	0.003	9.92217023010254	-0.24600422058105467	-0.20290859069824219	2.98309326171875	-4.055023193359375	-0.698089599609375	9.90241806640625	0.23822306518554687	0.020350714111328123	0.885009765625	-4.955291748046875	-3.223419189453125	10.17655415649414	-0.24001871643066405	-0.5321113189697265	3.814697265625	-4.558563232421875	-2.0599365234375	
305	1.22	0.0	0.0	0.0	0.0	0.003	0.006	0.006	0.003	9.97903251953125	-0.06883329772949218	-0.055066638183593745	4.657745361328125	-5.11932373046875	-0.66375732421875	9.888052856445311	0.34536358947753903	0.18914193115234373	0.507354736328125	-5.123138427734375	-2.758026123046875	10.067019430541992	0.12689268798828124	-0.0987608184814453	3.63922119140625	-4.8370361328125	-1.911163330078125	
306	1.224	0.0	0.0	0.0	0.0	0.003	0.003	0.003	0.003	9.944915145874022	-0.1484405029296875	-0.20769699401855468	3.96728515625	-4.680633544921875	-1.24359130859375	9.935338339233398	0.2771288421630859	-0.027533319091796873	1.178741455078125	-5.062103271484375	-3.2501220703125	10.256759912109374	0.011971008300781249	-0.584185205078125	3.59344482421875	-4.39453125	-2.620697021484375	
307	1.228	0.0	0.0	0.0	0.0	0.003	0.003	0.006	0.003	9.913191973876952	-0.00239420166015625	-0.011971008300781249	0.732421875	-2.61688232421875	-0.972747802734375	9.77432827758789	0.7864952453613281	0.1693897674560547	0.69427490234375	-5.02777099609375	-2.64739990234375	9.94671079711914	0.6093243225097655	-0.1466448516845703	3.59344482421875	-4.611968994140625	-1.77764892578125	
