	time	dac1	dac2	dac3	dac4	adc1.3	adc2.3	adc3.3	adc4.3	imu1accx	imu1accy	imu1accz	imu1gyrox	imu1gyroy	imu1gyroz	imu2accx	imu2accy	imu2accz	imu2gyrox	imu2gyroy	imu2gyroz	imu3accx	imu3accy	imu3accz	imu3gyrox	imu3gyroy	imu3gyroz	log
0	0.0	0.0	0.0	0.0	0.0	4.566	4.596	4.614	4.551	9.888052856445311	0.12150573425292968	0.04608838195800781	2.620697021484375	-3.505706787109375	-0.823974609375	9.813832604980469	0.4961982940673828	0.13287819213867186	1.068115234375	-4.93621826171875	-3.1585693359375	10.047267266845703	0.2184709014892578	-0.2651578338623047	3.582000732421875	-4.497528076171875	-2.079010009765625	Estabilizou em 5s, 641  rpm
1	0.004	0.0	0.0	0.0	0.0	4.563	4.614	4.614	4.5600000000000005	9.868899243164062	0.15861585998535155	0.06404489440917968	2.43377685546875	-3.795623779296875	-0.820159912109375	9.766547122192382	0.5404910247802734	0.17896657409667968	1.056671142578125	-5.08880615234375	-2.750396728515625	10.026916552734374	0.25318682556152344	-0.25438392639160157	3.650665283203125	-4.634857177734375	-2.132415771484375	Started
2	0.008	0.0	0.0	0.0	0.0	4.551	4.614	4.614	4.563	9.87069489440918	0.023343466186523436	0.04908113403320312	2.269744873046875	-3.505706787109375	-0.9613037109375	9.821015209960937	0.39264907226562495	0.10414777221679687	1.0528564453125	-5.130767822265625	-3.124237060546875	10.059238275146484	0.10115502014160156	-0.29089550170898437	3.635406494140625	-4.512786865234375	-2.117156982421875	IMU1|LSM6DS3|0x6A|I2C-1|±2g (±19,6m/s²)|±125º/s|400Hz
3	0.012	0.0	0.0	0.0	0.0	4.563	4.617	4.614	4.545	9.880271701049804	0.201112939453125	0.044292730712890624	2.4261474609375	-3.387451171875	-1.0528564453125	9.78031378173828	0.6284779357910156	0.16519991455078123	0.858306884765625	-4.791259765625	-2.86865234375	10.025120901489258	0.354940396118164	-0.2376245147705078	3.665924072265625	-4.688262939453125	-2.193450927734375	IMU2|LSM6DS3|0x6B|I2C-1|±2g (±19,6m/s²)|±125º/s|400Hz
4	0.016	0.0	0.0	0.0	0.0	4.5600000000000005	4.614	4.611	4.53	9.867702142333984	0.15083470458984374	0.04668693237304687	2.933502197265625	-3.665924072265625	-0.95367431640625	9.790489138793944	0.4375403533935547	0.16280571289062498	0.7476806640625	-5.054473876953125	-3.047943115234375	10.03050785522461	0.13946224670410157	-0.2699462371826172	3.482818603515625	-4.428863525390625	-2.033233642578125	IMU3|LSM6DS3|0x6B|I2C-2|±2g (±19,6m/s²)|±125º/s|400Hz
5	0.02	0.0	0.0	0.0	0.0	4.569	4.614	4.614	4.53	9.885658654785155	0.15502455749511718	0.047285482788085934	2.20489501953125	-3.5400390625	-0.8697509765625	9.789292037963866	0.5267243652343749	0.17238251953125	0.9765625	-4.894256591796875	-3.093719482421875	10.001777435302733	0.22505495605468748	-0.21906945190429686	3.448486328125	-4.4097900390625	-2.0904541015625	ADC|ADS1015|0|0|1|0|±6,144 V|2400 SPS
6	0.024	0.0	0.0	0.0	0.0	4.572	4.6080000000000005	4.614	4.551	9.885658654785155	0.16460136413574217	0.047285482788085934	2.811431884765625	-3.70025634765625	-0.705718994140625	9.819219558715819	0.46686932373046874	0.17417817077636719	0.926971435546875	-4.932403564453125	-2.971649169921875	10.017938296508788	0.18315642700195311	-0.2555810272216797	3.4942626953125	-4.474639892578125	-2.22015380859375	Gen1|Disabled
7	0.028	0.0	0.0	0.0	0.0	4.563	4.617	4.614	4.5600000000000005	9.890447058105469	0.2088940948486328	0.05087678527832031	2.635955810546875	-3.673553466796875	-1.0223388671875	9.744999307250977	0.6165069274902344	0.20709844360351562	1.132965087890625	-5.0048828125	-2.933502197265625	9.98501802368164	0.3082534637451172	-0.19812018737792966	3.27301025390625	-4.39453125	-2.2125244140625	Gen2|Enabled|Noise|0.0|10.0|1668
8	0.032	0.0	0.0	0.0	0.0	4.5600000000000005	4.614	4.614	4.557	9.880870251464843	0.10414777221679687	0.06045359191894531	2.857208251953125	-3.91387939453125	-0.8087158203125	9.81862100830078	0.3381809844970703	0.17597382202148437	0.72479248046875	-4.99725341796875	-3.021240234375	10.005967288208007	0.05805939025878906	-0.2442085693359375	3.612518310546875	-4.78363037109375	-2.407073974609375	Gen3|Enabled|Noise|0.0|10.0|128
9	0.036000000000000004	0.0	0.0	0.0	0.0	4.545	4.614	4.6080000000000005	4.566	9.84435867614746	0.19692308654785154	0.10953472595214843	3.177642822265625	-3.86810302734375	-0.74005126953125	9.76235726928711	0.632667788696289	0.2280477081298828	0.946044921875	-4.9591064453125	-3.322601318359375	10.015544094848632	0.3387795349121094	-0.16041151123046873	3.658294677734375	-4.634857177734375	-2.1820068359375	Gen4|Enabled|Noise|0.0|10.0|128
10	0.04	0.0	0.0	0.0	0.0	4.566	4.614	4.614	4.542	9.881468801879882	0.14425065002441406	0.037708676147460936	3.063201904296875	-3.597259521484375	-0.89263916015625	9.764751470947266	0.4327519500732422	0.1149216796875	0.904083251953125	-4.98199462890625	-2.99835205078125	9.989207876586914	0.11791443176269531	-0.2424129180908203	3.520965576171875	-4.657745361328125	-2.22015380859375	Ctrl|Disabled
11	0.044	0.0	0.0	0.0	0.0	4.563	4.611	4.614	4.527	9.828197814941406	0.18914193115234373	0.14305354919433594	2.979278564453125	-4.0283203125	-1.033782958984375	9.759364517211914	0.5853823059082031	0.22385785522460935	1.02996826171875	-4.802703857421875	-3.326416015625	9.926360083007811	0.2346317626953125	-0.15322890625	3.704071044921875	-4.505157470703125	-2.37274169921875	
12	0.048	0.0	0.0	0.0	0.0	4.572	4.614	4.614	4.539	9.890447058105469	0.13407529296874998	0.05087678527832031	2.239227294921875	-3.83758544921875	-0.896453857421875	9.787496386718749	0.40880993347167965	0.10235212097167969	0.682830810546875	-4.955291748046875	-2.635955810546875	10.027515103149414	0.08978256225585937	-0.22685060729980466	3.551483154296875	-4.673004150390625	-1.80816650390625	
13	0.052000000000000005	0.0	0.0	0.0	0.0	4.566	4.605	4.614	4.548	9.842563024902343	0.18614917907714842	0.13287819213867186	3.391265869140625	-4.302978515625	-1.041412353515625	9.762955819702148	0.5823895538330078	0.2316390106201172	0.904083251953125	-5.04302978515625	-3.383636474609375	9.934739788818359	0.2346317626953125	-0.15023615417480468	3.627777099609375	-4.283905029296875	-2.521514892578125	
14	0.056	0.0	0.0	0.0	0.0	4.557	4.614	4.614	4.557	9.906009368896484	0.05805939025878906	-0.004189852905273437	2.43377685546875	-3.9215087890625	-0.659942626953125	9.756970315551758	0.3938461730957031	0.10953472595214843	0.72479248046875	-5.02777099609375	-2.655029296875	9.925761532592773	0.25438392639160157	-0.040102877807617184	3.448486328125	-4.299163818359375	-1.903533935546875	
15	0.06	0.0	0.0	0.0	0.0	4.557	4.611	4.614	4.563	9.832986218261718	0.16280571289062498	0.15023615417480468	3.520965576171875	-4.08172607421875	-0.92315673828125	9.777919580078125	0.4537012145996093	0.17657237243652343	1.293182373046875	-5.298614501953125	-3.528594970703125	9.93354268798828	0.23343466186523437	-0.12210428466796874	3.719329833984375	-4.619598388671875	-2.3956298828125	
16	0.064	0.0	0.0	0.0	0.0	4.563	4.614	4.6080000000000005	4.554	9.894038360595703	0.030526071166992186	-0.017357962036132813	2.5787353515625	-3.772735595703125	-0.888824462890625	9.787496386718749	0.3746925598144531	0.09277531433105468	0.63323974609375	-4.901885986328125	-2.735137939453125	9.93952819213867	0.24061726684570311	-0.05087678527832031	3.5400390625	-4.47845458984375	-1.873016357421875	
17	0.068	0.0	0.0	0.0	0.0	4.5600000000000005	4.617	4.611	4.53	9.880870251464843	-0.07541735229492187	-0.001197100830078125	2.90679931640625	-3.612518310546875	-0.89263916015625	9.76774422302246	0.5009866973876953	0.17058686828613281	1.224517822265625	-4.90570068359375	-3.307342529296875	10.117896215820313	0.03591302490234375	-0.39444472351074217	3.833770751953125	-4.673004150390625	-2.34222412109375	
18	0.07200000000000001	0.0	0.0	0.0	0.0	4.569	4.6080000000000005	4.611	4.524	9.903615167236328	0.006584054565429687	-0.018555062866210937	2.23541259765625	-3.7078857421875	-0.942230224609375	9.78689783630371	0.5045779998779296	0.201112939453125	0.637054443359375	-5.161285400390625	-2.75421142578125	9.937133990478515	0.2519897247314453	-0.04908113403320312	3.551483154296875	-4.581451416015625	-1.903533935546875	
19	0.076	0.0	0.0	0.0	0.0	4.563	4.611	4.617	4.551	9.880870251464843	-0.1406593475341797	0.003591302490234375	2.81524658203125	-3.856658935546875	-0.995635986328125	9.788094937133788	0.4435258575439453	0.13587094421386717	1.21307373046875	-4.642486572265625	-3.398895263671875	10.169371551513672	-0.029927520751953124	-0.40402153015136716	3.47137451171875	-4.57763671875	-2.35748291015625	
20	0.08	0.0	0.0	0.0	0.0	4.563	4.614	4.614	4.557	9.912593423461914	0.003591302490234375	-0.025139117431640625	2.35748291015625	-3.753662109375	-0.701904296875	9.782707983398437	0.5345055206298828	0.19213468322753904	0.640869140625	-5.01251220703125	-2.895355224609375	9.93952819213867	0.2759317413330078	-0.06105214233398437	3.692626953125	-4.703521728515625	-1.941680908203125	
21	0.084	0.0	0.0	0.0	0.0	4.563	4.614	4.614	4.557	9.897031112670899	-0.1304839904785156	0.011971008300781249	2.819061279296875	-3.8909912109375	-0.93841552734375	9.879673150634765	0.2813186950683594	0.04908113403320312	1.190185546875	-4.99725341796875	-3.0059814453125	10.153809240722655	-0.016160861206054686	-0.4207809417724609	3.337860107421875	-4.520416259765625	-2.216339111328125	
22	0.088	0.0	0.0	0.0	0.0	4.548	4.614	4.614	4.566	9.744999307250977	0.20290859069824219	0.31184476623535157	2.468109130859375	-3.47137451171875	-0.67901611328125	9.805452899169921	0.49320554199218747	0.17477672119140625	0.6103515625	-5.252838134765625	-2.7313232421875	10.064026678466796	0.36631285400390623	-0.2555810272216797	3.681182861328125	-4.75311279296875	-2.132415771484375	
23	0.092	0.0	0.0	0.0	0.0	4.566	4.617	4.614	4.548	9.89523546142578	-0.17836802368164062	-0.014963760375976562	2.86102294921875	-3.795623779296875	-1.129150390625	9.906009368896484	0.24839842224121092	0.029927520751953124	1.178741455078125	-4.962921142578125	-3.284454345703125	10.189123715209961	-0.03651157531738281	-0.4572925170898437	3.70025634765625	-4.619598388671875	-2.490997314453125	
24	0.096	0.0	0.0	0.0	0.0	4.566	4.614	4.614	4.527	9.750984811401366	0.2699462371826172	0.3124433166503906	2.69317626953125	-3.482818603515625	-0.823974609375	9.641450085449218	0.7320271575927734	0.31004911499023435	0.8392333984375	-5.100250244140625	-2.69317626953125	10.049661468505859	0.4165910888671875	-0.2609679809570312	3.57818603515625	-4.5013427734375	-1.926422119140625	
25	0.1	0.0	0.0	0.0	0.0	4.569	4.6080000000000005	4.614	4.53	9.897629663085937	-0.19871873779296872	-0.017357962036132813	0.80108642578125	-2.628326416015625	-0.843048095703125	9.910199221801758	0.20649989318847656	0.02633621826171875	1.2359619140625	-4.749298095703125	-3.11279296875	10.08677159423828	-0.11851298217773437	-0.2753331909179687	3.612518310546875	-4.52423095703125	-1.964569091796875	
26	0.10400000000000001	0.0	0.0	0.0	0.0	4.566	4.605	4.614	4.548	9.737218151855469	0.28790274963378903	0.30526071166992186	2.140045166015625	-3.631591796875	-0.720977783203125	9.65342109375	0.7362170104980469	0.3124433166503906	0.751495361328125	-5.13458251953125	-2.796173095703125	10.073603485107421	0.4070142822265625	-0.2603694305419922	3.662109375	-4.459381103515625	-1.79290771484375	
27	0.108	0.0	0.0	0.0	0.0	4.5600000000000005	4.614	4.614	4.557	9.904812268066406	-0.06464344482421874	0.0909796630859375	0.926971435546875	-2.6397705078125	-0.732421875	9.89463691101074	0.13407529296874998	0.059256491088867186	0.774383544921875	-4.852294921875	-3.04412841796875	10.090961447143554	-0.10175357055664062	-0.27892449340820313	3.482818603515625	-4.390716552734375	-2.02178955078125	
28	0.112	0.0	0.0	0.0	0.0	4.557	4.614	4.614	4.563	9.722254391479492	0.3459621398925781	0.3184288208007812	2.780914306640625	-3.658294677734375	-0.84686279296875	9.620500820922851	0.7230489013671875	0.34237083740234375	0.9918212890625	-5.0201416015625	-2.79998779296875	9.965265859985351	0.4064157318115234	-0.14305354919433594	3.513336181640625	-4.550933837890625	-2.178192138671875	
29	0.116	0.0	0.0	0.0	0.0	4.548	4.614	4.611	4.566	9.87727894897461	-0.06883329772949218	0.09337386474609374	0.7476806640625	-2.593994140625	-0.789642333984375	9.913191973876952	0.10474632263183593	0.03591302490234375	0.873565673828125	-5.115509033203125	-3.177642822265625	10.103531005859374	-0.08259995727539061	-0.2902969512939453	3.6773681640625	-4.7149658203125	-2.079010009765625	
30	0.12	0.0	0.0	0.0	0.0	4.566	4.614	4.614	4.542	9.959280355834961	0.17058686828613281	-0.11192892761230468	1.8463134765625	-2.971649169921875	-1.12152099609375	9.720458740234374	0.7212532501220703	0.27892449340820313	1.04522705078125	-4.947662353515625	-3.24249267578125	9.962871658325195	0.4381389038085937	-0.13826514587402344	3.643035888671875	-4.638671875	-2.117156982421875	
31	0.124	0.0	0.0	0.0	0.0	4.569	4.614	4.614	4.521	9.86411083984375	-0.09636661682128905	0.10414777221679687	0.45013427734375	-2.4871826171875	-0.873565673828125	9.909600671386718	0.05686228942871093	0.017956512451171875	0.69427490234375	-4.76837158203125	-2.9296875	10.081384640502929	-0.11731588134765625	-0.28490999755859375	3.681182861328125	-4.734039306640625	-1.995086669921875	
32	0.128	0.0	0.0	0.0	0.0	4.566	4.611	4.614	4.539	9.948506448364258	0.1322796417236328	-0.06404489440917968	1.617431640625	-3.017425537109375	-1.1749267578125	9.710881933593749	0.7493851196289062	0.28790274963378903	1.239776611328125	-5.031585693359375	-3.42559814453125	9.949703549194336	0.47584757995605464	-0.13826514587402344	3.4942626953125	-4.535675048828125	-2.346038818359375	
33	0.132	0.0	0.0	0.0	0.0	4.563	4.617	4.614	4.551	9.88266590270996	-0.09935936889648436	0.10654197387695312	0.152587890625	-2.254486083984375	-0.8087158203125	9.934739788818359	0.3399766357421875	0.12988544006347655	0.797271728515625	-5.340576171875	-2.78472900390625	10.00955859069824	0.05686228942871093	-0.2442085693359375	3.551483154296875	-4.650115966796875	-1.834869384765625	
34	0.136	0.0	0.0	0.0	0.0	4.563	4.611	4.611	4.5600000000000005	9.926360083007811	0.11611878051757812	-0.040102877807617184	1.621246337890625	-3.078460693359375	-1.312255859375	9.685742816162108	0.7787140899658203	0.2920926025390625	1.28173828125	-4.7149658203125	-3.265380859375	9.945513696289062	0.49679684448242184	-0.12988544006347655	3.6773681640625	-4.50897216796875	-2.346038818359375	
35	0.14	0.0	0.0	0.0	0.0	4.551	4.614	4.611	4.566	9.888052856445311	0.21787235107421873	-0.016160861206054686	2.5177001953125	-3.513336181640625	-0.858306884765625	9.771934075927733	0.33758243408203126	0.15502455749511718	0.80108642578125	-4.9896240234375	-2.819061279296875	10.00417163696289	0.03651157531738281	-0.2549824768066406	3.63922119140625	-4.764556884765625	-1.8310546875	
36	0.14400000000000002	0.0	0.0	0.0	0.0	4.566	4.614	4.605	4.557	9.917980377197265	0.10953472595214843	-0.02633621826171875	1.48773193359375	-2.941131591796875	-1.071929931640625	9.700706576538085	0.8098387115478515	0.2807201446533203	0.78582763671875	-4.8370361328125	-3.80706787109375	9.86291373901367	0.21068974609375	-0.12509703674316405	3.72314453125	-4.3792724609375	-2.81524658203125	
37	0.148	0.0	0.0	0.0	0.0	4.563	4.617	4.614	4.53	9.889249957275391	0.27952304382324217	-0.037110125732421874	2.674102783203125	-3.627777099609375	-0.705718994140625	9.779116680908203	0.3495534423828125	0.14784195251464843	0.79345703125	-5.039215087890625	-2.658843994140625	10.013149893188476	0.018555062866210937	-0.2645592834472656	3.7384033203125	-4.76837158203125	-2.101898193359375	
38	0.152	0.0	0.0	0.0	0.0	4.572	4.614	4.614	4.524	9.894038360595703	0.0939724151611328	0.027533319091796873	5.092620849609375	-5.115509033203125	-0.8087158203125	9.685742816162108	0.7050923889160156	0.2561795776367187	1.2054443359375	-4.96673583984375	-3.89862060546875	9.841365924072266	0.1945288848876953	-0.09696516723632811	3.68499755859375	-4.276275634765625	-2.864837646484375	
39	0.156	0.0	0.0	0.0	0.0	4.569	4.611	4.614	4.545	9.917381826782226	0.2962824554443359	-0.05027823486328125	2.83050537109375	-3.940582275390625	-0.614166259765625	9.784503634643555	0.3327940307617187	0.16340426330566404	0.95367431640625	-4.993438720703125	-2.635955810546875	9.9215716796875	0.2597708801269531	-0.07242460021972656	3.6773681640625	-4.8065185546875	-1.918792724609375	
40	0.16	0.0	0.0	0.0	0.0	4.5600000000000005	4.614	4.614	4.557	9.952696301269532	0.24660277099609373	-0.03411737365722656	5.3863525390625	-5.37872314453125	-1.04522705078125	9.667786303710937	0.737414111328125	0.26815058593749996	0.8392333984375	-5.084991455078125	-4.032135009765625	9.868899243164062	0.20709844360351562	-0.11731588134765625	3.72314453125	-4.329681396484375	-2.838134765625	
41	0.164	0.0	0.0	0.0	0.0	4.563	4.614	4.614	4.557	9.926360083007811	0.38845921936035155	-0.05746083984375	2.9144287109375	-3.95965576171875	-0.705718994140625	9.73661960144043	0.6476315490722656	0.1388636962890625	0.293731689453125	-5.329132080078125	-2.300262451171875	9.90181951599121	0.2920926025390625	-0.03651157531738281	3.559112548828125	-4.2877197265625	-1.57928466796875	
42	0.168	0.0	0.0	0.0	0.0	4.551	4.614	4.611	4.569	9.977236868286132	0.25139117431640623	-0.062249243164062495	5.893707275390625	-5.68389892578125	-0.957489013671875	9.656413845825195	0.7428010650634765	0.3190273712158203	0.865936279296875	-4.673004150390625	-3.696441650390625	9.87009634399414	0.19033903198242186	-0.11432312927246092	3.574371337890625	-4.520416259765625	-2.349853515625	
43	0.17200000000000001	0.0	0.0	0.0	0.0	4.569	4.617	4.614	4.539	9.909600671386718	0.3124433166503906	0.10773907470703124	4.810333251953125	-5.04302978515625	-0.7171630859375	9.752181912231444	0.6691793640136718	0.11013327636718749	0.3509521484375	-5.06591796875	-2.08282470703125	9.907206469726562	0.3184288208007812	-0.05027823486328125	3.383636474609375	-4.58526611328125	-1.605987548828125	
44	0.176	0.0	0.0	0.0	0.0	4.563	4.617	4.614	4.53	9.989806427001952	0.24061726684570311	-0.08379705810546874	6.20269775390625	-5.7373046875	-1.01470947265625	9.9078050201416	0.1388636962890625	0.0047884033203125	1.087188720703125	-4.7760009765625	-3.19671630859375	10.198101971435547	-0.16879121704101563	-0.4261678955078125	3.566741943359375	-4.375457763671875	-2.269744873046875	
45	0.18	0.0	0.0	0.0	0.0	4.566	4.614	4.614	4.5360000000000005	9.906009368896484	0.2998737579345703	0.1693897674560547	4.974365234375	-5.08880615234375	-0.48828125	9.744999307250977	0.6434416961669921	0.1227028350830078	0.54931640625	-5.374908447265625	-2.34222412109375	9.898228213500976	0.28490999755859375	0.013766659545898436	3.53240966796875	-4.5928955078125	-1.85394287109375	
46	0.184	0.0	0.0	0.0	0.0	4.572	4.605	4.614	4.554	9.983820922851562	0.26815058593749996	-0.09636661682128905	6.244659423828125	-5.8441162109375	-1.0528564453125	9.91558617553711	0.1580173095703125	0.00239420166015625	1.0528564453125	-4.85992431640625	-3.368377685546875	10.25316860961914	-0.15263035583496093	-0.49021278991699213	3.51715087890625	-4.390716552734375	-2.20489501953125	
47	0.188	0.0	0.0	0.0	0.0	4.557	4.614	4.617	4.554	9.888651406860351	0.3094505645751953	0.19512743530273435	4.8675537109375	-5.06591796875	-0.621795654296875	9.675567459106444	0.6865373260498047	0.3537432952880859	0.644683837890625	-5.130767822265625	-2.60162353515625	10.062829577636718	0.6596025573730468	-0.2998737579345703	3.6773681640625	-4.459381103515625	-1.97601318359375	
48	0.192	0.0	0.0	0.0	0.0	4.557	4.611	4.6080000000000005	4.5600000000000005	9.864709390258788	-0.37409400939941406	0.03232172241210937	1.3885498046875	-3.337860107421875	-1.18255615234375	9.90840357055664	0.1466448516845703	-0.0005985504150390625	1.0986328125	-4.581451416015625	-3.299713134765625	10.238803399658202	-0.16639701538085935	-0.49200844116210934	3.4942626953125	-4.364013671875	-2.28118896484375	
49	0.196	0.0	0.0	0.0	0.0	4.545	4.614	4.605	4.566	9.87069489440918	0.25258827514648435	0.22565350646972654	4.634857177734375	-5.0506591796875	-0.57220458984375	9.704896429443359	0.6661866119384765	0.3399766357421875	0.701904296875	-5.16510009765625	-2.971649169921875	10.065223779296874	0.6715735656738281	-0.3064578125	3.620147705078125	-4.711151123046875	-1.873016357421875	
50	0.2	0.0	0.0	0.0	0.0	4.566	4.617	4.614	4.539	9.877877499389648	-0.4064157318115234	0.022744915771484374	0.743865966796875	-2.9144287109375	-1.094818115234375	9.973645565795898	-0.07422025146484375	-0.06943184814453125	1.190185546875	-4.96673583984375	-2.918243408203125	10.089165795898436	-0.02454056701660156	-0.29448680419921874	3.589630126953125	-4.5928955078125	-2.38037109375	
51	0.20400000000000001	0.0	0.0	0.0	0.0	4.569	4.611	4.614	4.524	9.843161575317382	0.24301146850585936	0.26396073303222656	0.29754638671875	-2.185821533203125	-1.033782958984375	9.707290631103515	0.6488286499023437	0.34656069030761716	0.58746337890625	-5.153656005859375	-2.44903564453125	10.037690460205077	0.7266402038574218	-0.28969840087890625	3.635406494140625	-4.45556640625	-1.918792724609375	
52	0.20800000000000002	0.0	0.0	0.0	0.0	4.569	4.611	4.617	4.545	9.880870251464843	-0.5069722015380859	0.017357962036132813	0.34332275390625	-2.34222412109375	-1.0986328125	9.987412225341796	-0.15502455749511718	-0.07900865478515624	1.16729736328125	-5.046844482421875	-3.208160400390625	10.095151300048828	-0.12150573425292968	-0.3172317199707031	3.726959228515625	-4.852294921875	-2.40325927734375	
53	0.212	0.0	0.0	0.0	0.0	4.566	4.617	4.617	4.551	9.750386260986328	0.08798691101074219	0.11671733093261719	0.324249267578125	-2.47955322265625	-1.27410888671875	9.666589202880859	0.9427169036865234	0.33758243408203126	1.5869140625	-4.95147705078125	-3.475189208984375	10.067617980957031	0.7960720520019531	-0.4159925384521484	3.482818603515625	-4.57000732421875	-2.201080322265625	
54	0.216	0.0	0.0	0.0	0.0	4.554	4.611	4.617	4.557	9.879074600219726	-0.507570751953125	0.025139117431640625	-0.026702880859375	-2.14385986328125	-0.946044921875	9.961076007080077	-0.11013327636718749	-0.07122749938964844	1.117706298828125	-4.8065185546875	-2.86102294921875	10.06881508178711	-0.06584054565429687	-0.31064766540527344	3.780364990234375	-4.486083984375	-2.353668212890625	
55	0.22	0.0	0.0	0.0	0.0	4.551	4.614	4.614	4.566	9.746794958496093	0.037708676147460936	0.12330138549804687	0.278472900390625	-2.063751220703125	-1.1444091796875	9.654618194580078	0.8894459167480468	0.33039982910156246	1.712799072265625	-5.04302978515625	-3.31878662109375	9.938331091308592	0.4842272857666015	-0.10354922180175781	3.45611572265625	-4.726409912109375	-2.094268798828125	
56	0.224	0.0	0.0	0.0	0.0	4.566	4.611	4.617	4.551	9.865307940673828	-0.02633621826171875	0.12030863342285156	0.545501708984375	-2.361297607421875	-0.713348388671875	9.993397729492187	-0.18555062866210936	-0.08918401184082031	0.60272216796875	-5.10406494140625	-2.716064453125	10.110713610839843	-0.13347674255371092	-0.3094505645751953	3.570556640625	-4.619598388671875	-2.32696533203125	
57	0.228	0.0	0.0	0.0	0.0	4.5600000000000005	4.614	4.611	4.53	9.78629928588867	0.086191259765625	0.07362170104980469	0.55694580078125	-2.246856689453125	-1.110076904296875	9.64025298461914	1.006761798095703	0.3274070770263672	1.575469970703125	-5.05828857421875	-3.25775146484375	9.962273107910155	0.5889736083984375	-0.08978256225585937	3.42559814453125	-4.573822021484375	-2.109527587890625	
58	0.232	0.0	0.0	0.0	0.0	4.569	4.611	4.614	4.524	9.86291373901367	0.05686228942871093	0.09816226806640624	0.675201416015625	-2.655029296875	-0.614166259765625	9.781510882568359	0.28730419921875	0.21009119567871093	0.57220458984375	-5.008697509765625	-2.685546875	10.020931048583984	-0.1005564697265625	-0.2154781494140625	3.498077392578125	-4.642486572265625	-1.800537109375	
59	0.23600000000000002	0.0	0.0	0.0	0.0	4.566	4.611	4.617	4.551	9.79946739501953	0.023942016601562498	0.06344634399414062	0.35858154296875	-2.269744873046875	-1.09100341796875	9.654618194580078	0.9091980804443359	0.3387795349121094	1.2054443359375	-4.6844482421875	-3.47137451171875	9.987412225341796	0.4429273071289062	-0.09337386474609374	3.582000732421875	-4.329681396484375	-2.288818359375	
60	0.24	0.0	0.0	0.0	0.0	4.563	4.614	4.617	4.554	9.885658654785155	0.1292868896484375	0.06823474731445311	1.186370849609375	-2.666473388671875	-0.78582763671875	9.798270294189452	0.37289690856933594	0.21428104858398436	0.61798095703125	-5.062103271484375	-2.8839111328125	10.066420880126952	-0.05626373901367187	-0.2424129180908203	3.498077392578125	-4.72259521484375	-1.9989013671875	
61	0.244	0.0	0.0	0.0	0.0	4.5600000000000005	4.614	4.614	4.557	9.85632968444824	0.32022447204589843	0.0652419952392578	4.261016845703125	-4.57763671875	-0.942230224609375	9.658209497070311	1.0097545501708984	0.3280056274414062	1.13677978515625	-4.787445068359375	-4.016876220703125	9.777919580078125	0.2184709014892578	-0.05087678527832031	3.803253173828125	-4.1961669921875	-2.64739990234375	
62	0.248	0.0	0.0	0.0	0.0	4.548	4.614	4.611	4.569	9.877877499389648	0.08140285644531249	0.09157821350097656	1.190185546875	-2.750396728515625	-0.682830810546875	9.803657247924804	0.2825157958984375	0.18914193115234373	0.896453857421875	-5.18035888671875	-2.83050537109375	10.049661468505859	-0.18614917907714842	-0.239420166015625	3.50189208984375	-4.73785400390625	-1.720428466796875	
63	0.252	0.0	0.0	0.0	0.0	4.569	4.614	4.611	4.539	9.881468801879882	0.23822306518554687	0.06105214233398437	4.673004150390625	-4.90570068359375	-1.293182373046875	9.728239895629882	1.0037690460205078	0.28490999755859375	1.33514404296875	-5.077362060546875	-4.329681396484375	9.83897172241211	0.17357962036132812	-0.07362170104980469	3.692626953125	-4.261016845703125	-3.21197509765625	
64	0.256	0.0	0.0	0.0	0.0	4.569	4.614	4.614	4.527	9.885658654785155	0.2501940734863281	0.05985504150390625	4.5013427734375	-5.077362060546875	-0.759124755859375	9.767145672607422	0.5009866973876953	0.11671733093261719	0.057220458984375	-5.2490234375	-1.918792724609375	9.882067352294921	0.44113165588378905	-0.04668693237304687	3.513336181640625	-4.604339599609375	-1.25885009765625	
65	0.26	0.0	0.0	0.0	0.0	4.569	4.614	4.617	4.5360000000000005	9.858125335693359	0.24600422058105467	0.06045359191894531	4.6844482421875	-5.100250244140625	-1.026153564453125	9.683348614501952	0.9953893402099608	0.2861070983886719	1.1749267578125	-4.772186279296875	-4.0130615234375	9.779116680908203	0.17417817077636719	-0.061650692749023434	3.80706787109375	-4.238128662109375	-2.742767333984375	
66	0.264	0.0	0.0	0.0	0.0	4.566	4.605	4.614	4.551	9.988609326171874	0.32441432495117184	-0.11252747802734374	4.276275634765625	-5.0811767578125	-0.667572021484375	9.805452899169921	0.43514615173339843	0.12389993591308593	0.102996826171875	-5.0048828125	-2.25830078125	9.935936889648437	0.2825157958984375	-0.05985504150390625	3.41796875	-4.558563232421875	-1.4190673828125	
67	0.268	0.0	0.0	0.0	0.0	4.5600000000000005	4.614	4.617	4.557	9.886855755615233	0.2741360900878906	0.014963760375976562	4.913330078125	-5.27191162109375	-1.010894775390625	9.918578927612304	0.023942016601562498	0.031124621582031248	0.5645751953125	-4.7760009765625	-3.45611572265625	9.843760125732421	0.30406361083984373	-0.19512743530273435	3.582000732421875	-4.31060791015625	-3.032684326171875	
68	0.272	0.0	0.0	0.0	0.0	4.557	4.614	4.614	4.563	9.952696301269532	0.3393780853271484	-0.11073182678222655	4.5013427734375	-5.22613525390625	-0.644683837890625	9.764751470947266	0.4722562774658203	0.12868833923339842	0.05340576171875	-5.176544189453125	-1.9073486328125	9.829394915771484	0.2980781066894531	-0.04848258361816406	3.604888916015625	-4.63104248046875	-1.384735107421875	
69	0.276	0.0	0.0	0.0	0.0	4.563	4.617	4.602	4.563	9.885658654785155	-0.014963760375976562	-0.034715924072265626	4.909515380859375	-5.222320556640625	-1.331329345703125	9.912593423461914	0.02693476867675781	0.08259995727539061	0.812530517578125	-5.0811767578125	-3.62396240234375	10.249577307128906	-0.28371289672851563	-0.4908113403320312	3.452301025390625	-4.314422607421875	-2.574920654296875	
70	0.28	0.0	0.0	0.0	0.0	4.563	4.617	4.611	4.5360000000000005	9.990404977416992	0.31483751831054685	-0.16819266662597654	4.8370361328125	-4.924774169921875	-0.74005126953125	9.782707983398437	0.41958384094238277	0.21727380065917967	0.701904296875	-5.001068115234375	-2.285003662109375	9.922768780517577	0.3585316986083984	-0.105344873046875	3.30352783203125	-4.482269287109375	-1.54876708984375	
71	0.28400000000000003	0.0	0.0	0.0	0.0	4.569	4.614	4.614	4.524	9.874286196899414	0.0053869537353515625	-0.0526724365234375	4.41741943359375	-4.85992431640625	-1.300811767578125	9.881468801879882	0.16460136413574217	0.07481880187988281	0.70953369140625	-5.039215087890625	-3.45611572265625	10.196904870605469	-0.16519991455078123	-0.5219359619140624	3.421783447265625	-4.3182373046875	-2.338409423828125	
72	0.28800000000000003	0.0	0.0	0.0	0.0	4.566	4.611	4.614	4.545	9.963470208740233	0.2567781280517578	-0.10295067138671875	4.38690185546875	-4.94384765625	-0.469207763671875	9.753977563476562	0.3950432739257812	0.2184709014892578	0.621795654296875	-5.023956298828125	-2.01416015625	10.041880313110351	0.7068880401611328	-0.3699041564941406	3.849029541015625	-4.69970703125	-1.804351806640625	
73	0.292	0.0	0.0	0.0	0.0	4.566	4.617	4.617	4.5600000000000005	9.906607919311522	-0.22266075439453123	-0.07721300354003906	4.35638427734375	-4.955291748046875	-1.22833251953125	9.995791931152343	-0.43035774841308594	-0.12449848632812499	1.129150390625	-5.153656005859375	-3.021240234375	10.266336718749999	-0.41419688720703124	-0.526125814819336	3.72314453125	-4.57000732421875	-2.5634765625	
74	0.296	0.0	0.0	0.0	0.0	4.563	4.611	4.614	4.5600000000000005	9.645041387939452	0.31184476623535157	0.3860650177001953	1.850128173828125	-3.2196044921875	-0.827789306640625	9.781510882568359	0.5374982727050781	0.20290859069824219	0.7476806640625	-5.33294677734375	-2.506256103515625	10.060435375976562	0.7751227874755859	-0.39264907226562495	3.6773681640625	-4.50897216796875	-1.926422119140625	
75	0.3	0.0	0.0	0.0	0.0	4.548	4.611	4.614	4.566	9.920374578857421	-0.29388825378417965	-0.07362170104980469	3.604888916015625	-4.302978515625	-1.2359619140625	9.948506448364258	-0.16340426330566404	-0.12090718383789062	1.361846923828125	-5.11932373046875	-2.7313232421875	10.137648379516602	-0.06584054565429687	-0.4878185882568359	3.62396240234375	-4.63104248046875	-1.697540283203125	
76	0.304	0.0	0.0	0.0	0.0	4.566	0.006	0.003	0.009000000000000001	9.657610946655273	0.011372457885742187	0.3950432739257812	1.25885009765625	-3.1585693359375	-0.469207763671875	9.816226806640625	0.25797522888183594	0.14963760375976562	1.42669677734375	-4.962921142578125	-2.765655517578125	10.066420880126952	0.4590881683349609	-0.34117373657226563	3.673553466796875	-4.978179931640625	-1.636505126953125	
77	0.308	0.0	0.0	0.0	0.0	0.003	0.003	0.003	0.006	9.964667309570311	-0.07362170104980469	-0.1514332550048828	-0.11444091796875	-1.712799072265625	-0.95367431640625	10.016142645263672	-0.3902548706054687	-0.13407529296874998	1.30462646484375	-5.02777099609375	-3.24249267578125	10.255562811279296	-0.4608838195800781	-0.535702621459961	3.299713134765625	-4.638671875	-1.934051513671875	
78	0.312	0.0	0.0	0.0	0.0	0.006	0.003	0.006	0.003	9.637858782958984	0.2980781066894531	0.4070142822265625	3.37982177734375	-4.093170166015625	-1.1138916015625	9.55645592651367	0.7499836700439453	0.3842693664550781	1.247406005859375	-4.955291748046875	-3.208160400390625	10.027515103149414	0.6578069061279297	-0.3226186737060547	3.50189208984375	-4.7454833984375	-2.15911865234375	
79	0.316	0.0	0.0	0.0	0.0	0.003	0.003	0.003	0.003	9.79408044128418	-0.18854338073730467	0.1753752716064453	-1.476287841796875	-1.28173828125	-0.751495361328125	9.937732540893554	-0.05985504150390625	-0.0718260498046875	0.926971435546875	-5.07354736328125	-2.788543701171875	10.160991845703125	0.016759411621093748	-0.49679684448242184	3.643035888671875	-4.49371337890625	-1.67083740234375	
80	0.32	0.0	0.0	0.0	0.0	0.006	0.006	0.003	0.003	9.654618194580078	-0.16639701538085935	0.3854664672851562	0.827789306640625	-2.4261474609375	-0.69427490234375	9.594164602661133	0.7721300354003906	0.34656069030761716	1.18255615234375	-5.023956298828125	-2.7008056640625	9.97843396911621	0.5249287139892578	-0.10235212097167969	3.452301025390625	-4.5318603515625	-1.995086669921875	
81	0.324	0.0	0.0	0.0	0.0	0.006	0.003	0.006	0.003	9.822810861206055	0.17118541870117188	0.15322890625	-0.965118408203125	-1.4801025390625	-0.61798095703125	9.821613760375977	0.12210428466796874	0.18555062866210936	1.6326904296875	-4.772186279296875	-3.1890869140625	10.209474429321288	-0.4285620971679687	-0.5147533569335937	3.337860107421875	-4.467010498046875	-1.91497802734375	
82	0.328	0.0	0.0	0.0	0.0	0.003	0.006	0.006	0.006	9.919776028442381	0.18914193115234373	0.016160861206054686	1.255035400390625	-2.689361572265625	-1.430511474609375	9.591770401000977	0.41419688720703124	0.35194764404296874	1.445770263671875	-4.917144775390625	-3.147125244140625	9.923965881347655	0.3495534423828125	-0.10235212097167969	3.74603271484375	-4.7149658203125	-2.3956298828125	
83	0.332	0.0	0.0	0.0	0.0	0.006	0.003	0.003	0.003	9.801263046264648	0.04129997863769531	0.2154781494140625	-0.4730224609375	-1.873016357421875	-1.071929931640625	9.821015209960937	0.09935936889648436	0.1975216369628906	1.09100341796875	-4.8675537109375	-3.360748291015625	10.001777435302733	0.3226186737060547	-0.2651578338623047	3.68499755859375	-4.791259765625	-1.93023681640625	
84	0.336	0.0	0.0	0.0	0.0	0.003	0.003	0.003	0.006	9.938929641723632	-0.020350714111328123	-0.0017956512451171875	0.08392333984375	-2.025604248046875	-0.90789794921875	9.689932669067382	1.1468225952148436	0.2615665313720703	1.251220703125	-4.734039306640625	-3.57818603515625	9.969455712890625	0.34237083740234375	-0.12150573425292968	3.692626953125	-4.482269287109375	-2.071380615234375	
85	0.34	0.0	0.0	0.0	0.0	0.003	0.003	0.003	0.003	9.796474642944336	0.04908113403320312	0.2316390106201172	-1.590728759765625	-0.99945068359375	-0.81634521484375	9.787496386718749	-0.037110125732421874	0.20350714111328125	0.888824462890625	-5.218505859375	-2.796173095703125	9.956287603759765	0.07422025146484375	-0.26815058593749996	3.849029541015625	-4.817962646484375	-2.292633056640625	
86	0.34400000000000003	0.0	0.0	0.0	0.0	0.006	0.003	0.006	0.003	9.916783276367187	0.20949264526367187	0.010175357055664061	0.75531005859375	-2.323150634765625	-1.171112060546875	9.787496386718749	0.37409400939941406	0.229843359375	1.56402587890625	-4.90570068359375	-3.757476806640625	9.833584768676758	0.23044190979003906	-0.047285482788085934	3.60870361328125	-4.352569580078125	-2.597808837890625	
87	0.34800000000000003	0.0	0.0	0.0	0.0	0.003	0.006	0.003	0.003	10.001777435302733	0.3890577697753906	-0.19093758239746092	4.474639892578125	-4.940032958984375	-0.72479248046875	9.813832604980469	0.3962403747558593	0.15861585998535155	0.614166259765625	-5.054473876953125	-2.9144287109375	10.047267266845703	0.0796072052001953	-0.2855085479736328	3.7994384765625	-4.604339599609375	-2.1820068359375	
88	0.352	0.0	0.0	0.0	0.0	0.0	0.003	0.006	0.006	9.916783276367187	0.13467384338378904	0.030526071166992186	0.78582763671875	-2.6702880859375	-1.007080078125	9.56962403564453	1.3634978454589843	0.31064766540527344	1.190185546875	-4.795074462890625	-1.65557861328125	9.789292037963866	0.17836802368164062	-0.03411737365722656	3.658294677734375	-4.497528076171875	-2.50244140625	
89	0.356	0.0	0.0	0.0	0.0	0.006	0.006	0.003	0.003	9.95389340209961	0.507570751953125	-0.16340426330566404	4.72259521484375	-4.8980712890625	-0.514984130859375	9.904812268066406	-0.5111620544433594	0.23642741394042968	0.873565673828125	-4.917144775390625	-4.29534912109375	9.99220062866211	0.18555062866210936	-0.3393780853271484	3.47900390625	-4.619598388671875	-2.716064453125	
90	0.36	0.0	0.0	0.0	0.0	0.003	0.003	0.003	0.003	9.93952819213867	0.20949264526367187	-0.028730419921875	7.05718994140625	-6.458282470703125	-0.701904296875	9.738415252685547	1.0079588989257813	0.1083376251220703	0.32806396484375	-4.985809326171875	-1.369476318359375	9.919177478027343	0.08439560852050781	-0.07242460021972656	3.6773681640625	-4.184722900390625	-2.506256103515625	
91	0.364	0.0	0.0	0.0	0.0	0.006	0.003	0.003	0.006	10.008960040283203	0.39863457641601563	-0.22086510314941404	5.710601806640625	-5.9661865234375	-1.064300537109375	9.69771382446289	1.1366472381591797	0.2166752502441406	1.094818115234375	-4.89044189453125	-3.51715087890625	9.916783276367187	0.3136404174804687	0.003591302490234375	3.45611572265625	-4.413604736328125	-2.010345458984375	
92	0.368	0.0	0.0	0.0	0.0	0.003	0.003	0.003	0.003	9.957484704589843	0.31004911499023435	-0.030526071166992186	5.72967529296875	-5.47027587890625	-0.576019287109375	9.79408044128418	-0.3286041778564453	0.1292868896484375	0.453948974609375	-4.7607421875	-2.033233642578125	9.80665	0.1304839904785156	-0.04668693237304687	3.509521484375	-4.261016845703125	-2.28118896484375	
93	0.372	0.0	0.0	0.0	0.0	0.0	0.006	0.003	0.003	9.993996279907225	0.35793314819335936	-0.17417817077636719	5.62286376953125	-5.702972412109375	-0.93841552734375	9.714473236083984	1.1719617126464843	0.1945288848876953	1.0223388671875	-4.955291748046875	-3.421783447265625	9.919177478027343	0.2424129180908203	0.012569558715820313	3.353118896484375	-4.306793212890625	-1.888275146484375	
94	0.376	0.0	0.0	0.0	0.0	0.003	0.006	0.006	0.009000000000000001	10.014945544433592	0.36691140441894526	-0.1083376251220703	6.641387939453125	-6.130218505859375	-0.54931640625	9.903615167236328	-0.3429693878173828	0.032920272827148434	1.12152099609375	-4.917144775390625	-3.68499755859375	10.272920773315429	0.00718260498046875	-0.4961982940673828	3.70025634765625	-4.50897216796875	-2.162933349609375	
95	0.38	0.0	0.0	0.0	0.0	0.006	0.006	0.003	0.003	9.8449572265625	-0.19393033447265623	0.19572598571777342	5.275726318359375	-5.82122802734375	-1.041412353515625	9.700108026123047	1.1390414398193358	0.11731588134765625	0.827789306640625	-5.2337646484375	-1.9989013671875	9.913790524291992	0.2472013214111328	-0.013168109130859374	3.36456298828125	-4.45556640625	-2.18963623046875	
96	0.384	0.0	0.0	0.0	0.0	0.003	0.003	0.006	0.003	9.986813674926758	0.1753752716064453	-0.10235212097167969	6.4849853515625	-6.328582763671875	-0.457763671875	9.76235726928711	0.5255272644042969	0.13168109130859373	1.93023681640625	-5.214691162109375	-3.692626953125	10.159196194458007	0.031124621582031248	-0.4273649963378906	3.765106201171875	-4.66156005859375	-2.14385986328125	
97	0.388	0.0	0.0	0.0	0.0	0.003	0.006	0.003	0.006	9.82580361328125	-0.2166752502441406	0.2424129180908203	4.425048828125	-4.8065185546875	-0.8697509765625	9.829993466186522	0.24001871643066405	0.0430956298828125	0.385284423828125	-4.9285888671875	-1.697540283203125	10.08737014465332	0.316034619140625	-0.20949264526367187	3.406524658203125	-4.730224609375	-1.9989013671875	
98	0.392	0.0	0.0	0.0	0.0	0.009000000000000001	0.006	0.003	0.006	9.995791931152343	0.07541735229492187	-0.10893617553710937	6.8359375	-6.40869140625	-0.637054443359375	9.91558617553711	0.6955155822753906	-0.044891281127929686	1.926422119140625	-5.001068115234375	-3.742218017578125	10.217854135131835	0.086191259765625	-0.4638765716552734	3.82232666015625	-4.299163818359375	-2.109527587890625	
99	0.396	0.0	0.0	0.0	0.0	0.0	0.003	0.003	0.003	9.751583361816406	-0.11013327636718749	0.3525461944580078	4.1656494140625	-4.566192626953125	-0.58746337890625	9.770736975097655	-0.0652419952392578	0.12689268798828124	0.8697509765625	-4.970550537109375	-2.61688232421875	9.98561657409668	0.2962824554443359	-0.143652099609375	3.589630126953125	-4.63104248046875	-2.239227294921875	
100	0.4	0.0	0.0	0.0	0.0	0.003	0.006	0.006	0.003	9.81263550415039	-0.25917232971191406	0.07302315063476562	-0.5035400390625	-1.621246337890625	-1.01470947265625	9.90122096557617	0.9696516723632812	-0.12330138549804687	1.9073486328125	-5.1727294921875	-2.857208251953125	10.190919366455077	0.2376245147705078	-0.5237316131591797	3.543853759765625	-4.810333251953125	-1.96075439453125	
101	0.404	0.0	0.0	0.0	0.0	0.003	0.006	0.003	0.006	9.77432827758789	-0.3699041564941406	0.3112462158203125	3.875732421875	-4.45556640625	-0.904083251953125	9.707889181518555	0.1849520782470703	0.3555389465332031	1.041412353515625	-4.9591064453125	-3.093719482421875	10.133458526611328	0.2519897247314453	-0.2059013427734375	3.391265869140625	-4.543304443359375	-1.9683837890625	
102	0.40800000000000003	0.0	0.0	0.0	0.0	0.006	0.003	0.003	0.006	9.781510882568359	-0.10175357055664062	0.1388636962890625	-1.384735107421875	-1.277923583984375	-0.949859619140625	9.871293444824218	0.5997475158691405	-0.10654197387695312	1.68609619140625	-5.340576171875	-2.777099609375	10.128071572875976	0.062249243164062495	-0.3603273498535156	3.68499755859375	-4.726409912109375	-2.193450927734375	
103	0.41200000000000003	0.0	0.0	0.0	0.0	0.006	0.006	0.003	0.006	9.6917283203125	-0.18315642700195311	0.39145197143554683	-1.7547607421875	-0.7476806640625	-1.21307373046875	9.583989245605467	0.6404489440917969	0.316034619140625	1.277923583984375	-5.008697509765625	-3.35693359375	9.983222372436522	0.3764882110595703	-0.21487959899902342	3.513336181640625	-4.73785400390625	-1.88446044921875	
104	0.41600000000000004	0.0	0.0	0.0	0.0	0.003	0.003	0.003	0.006	9.807847100830077	-0.4100070343017578	0.17836802368164062	-2.3193359375	-0.6866455078125	-0.885009765625	9.87069489440918	0.4626794708251953	0.20709844360351562	0.6866455078125	-5.126953125	-2.99072265625	10.249577307128906	0.07242460021972656	-0.5021837982177734	3.620147705078125	-4.573822021484375	-1.983642578125	
105	0.42	0.0	0.0	0.0	0.0	0.003	0.003	0.003	0.003	9.827000714111328	0.20949264526367187	0.15263035583496093	-1.40380859375	-1.06048583984375	-1.45721435546875	9.631873278808593	0.8792705596923828	0.35194764404296874	1.613616943359375	-4.94384765625	-3.757476806640625	10.032902056884765	0.25258827514648435	-0.09756371765136718	3.650665283203125	-4.680633544921875	-2.223968505859375	
106	0.424	0.0	0.0	0.0	0.0	0.003	0.003	0.003	0.003	9.734823950195311	0.009576806640625	0.2885013000488281	-1.71661376953125	-1.026153564453125	-1.049041748046875	9.808445651245117	0.20709844360351562	0.21607669982910155	0.3662109375	-5.084991455078125	-3.04412841796875	10.075997686767577	0.1514332550048828	-0.48063598327636714	3.398895263671875	-4.581451416015625	-2.132415771484375	
107	0.428	0.0	0.0	0.0	0.0	0.006	0.006	0.003	0.006	9.87009634399414	-0.025737667846679687	0.09995791931152344	-2.197265625	-0.461578369140625	-0.980377197265625	9.770736975097655	0.8086416107177734	0.2549824768066406	0.64849853515625	-4.69970703125	-3.2196044921875	9.95987890625	0.373495458984375	-0.1131260284423828	3.35693359375	-4.45556640625	-2.1514892578125	
108	0.432	0.0	0.0	0.0	0.0	-0.003	0.003	0.006	0.003	10.01075569152832	0.5847837554931641	-0.22565350646972654	3.238677978515625	-4.070281982421875	-0.9765625	9.948506448364258	0.08319850769042968	0.20949264526367187	1.129150390625	-5.046844482421875	-3.910064697265625	10.014945544433592	-0.09816226806640624	-0.2855085479736328	3.68499755859375	-4.734039306640625	-2.262115478515625	
109	0.436	0.0	0.0	0.0	0.0	0.003	0.003	0.003	0.009000000000000001	9.923367330932617	0.2519897247314453	-0.0017956512451171875	-0.003814697265625	-1.949310302734375	-1.331329345703125	9.715071786499022	0.737414111328125	0.2615665313720703	0.6561279296875	-4.718780517578125	-2.864837646484375	9.864709390258788	0.43634325256347656	-0.10773907470703124	3.387451171875	-4.459381103515625	-2.040863037109375	
110	0.44	0.0	0.0	0.0	0.0	0.006	0.006	0.003	0.003	9.997587582397461	0.38307226562499996	-0.2549824768066406	3.82232666015625	-4.4097900390625	-0.6561279296875	9.728838446044922	0.27293898925781246	0.09457096557617187	0.54168701171875	-4.8675537109375	-2.925872802734375	9.835978970336914	0.037708676147460936	-0.2807201446533203	3.696441650390625	-4.67681884765625	-2.31170654296875	
111	0.444	0.0	0.0	0.0	0.0	0.003	0.003	0.003	0.003	10.04846436767578	0.21128829650878905	-0.1580173095703125	-0.110626220703125	-1.9073486328125	-0.64849853515625	9.883264453125	0.25139117431640623	0.18614917907714842	0.4119873046875	-4.825592041015625	-2.864837646484375	10.064625228881836	0.2663549346923828	-0.11791443176269531	3.650665283203125	-4.46319580078125	-2.368927001953125	
112	0.448	0.0	0.0	0.0	0.0	0.006	0.003	0.003	0.003	10.032303506469725	0.6961141326904297	-0.3573345977783203	6.649017333984375	-6.282806396484375	-1.232147216796875	9.765350021362304	0.5051765502929687	-0.001197100830078125	0.70953369140625	-5.176544189453125	-3.032684326171875	9.9078050201416	-0.022146365356445312	-0.3268085266113281	3.528594970703125	-4.67681884765625	-2.490997314453125	
113	0.452	0.0	0.0	0.0	0.0	0.006	0.006	0.003	0.003	9.858125335693359	-0.0909796630859375	0.028730419921875	5.9814453125	-6.038665771484375	-0.60272216796875	9.603142858886718	0.4578910675048828	0.10175357055664062	1.079559326171875	-4.55474853515625	-2.8533935546875	9.727641345214844	0.5069722015380859	-0.04129997863769531	3.74603271484375	-4.40216064453125	-2.338409423828125	
114	0.456	0.0	0.0	0.0	0.0	0.003	0.003	0.006	0.003	10.01015714111328	0.1131260284423828	-0.29448680419921874	5.22613525390625	-5.901336669921875	-0.446319580078125	9.757568865966796	0.5315127685546874	0.016160861206054686	0.934600830078125	-5.283355712890625	-2.777099609375	10.008960040283203	-0.13946224670410157	-0.22445640563964842	3.631591796875	-4.90570068359375	-2.2125244140625	
115	0.46	0.0	0.0	0.0	0.0	0.006	0.006	0.003	0.006	9.916783276367187	0.411802685546875	-0.002992752075195312	7.030487060546875	-6.481170654296875	-1.117706298828125	9.776722479248047	0.2567781280517578	0.020949264526367185	1.598358154296875	-4.9896240234375	-3.3111572265625	9.945513696289062	0.316034619140625	-0.08738836059570312	3.681182861328125	-4.241943359375	-2.67791748046875	
116	0.464	0.0	0.0	0.0	0.0	0.006	0.003	0.006	0.006	9.898228213500976	0.8577227447509765	-0.19572598571777342	2.773284912109375	-3.864288330078125	-1.31988525390625	9.630676177978515	0.719457598876953	0.2472013214111328	1.102447509765625	-5.161285400390625	-3.30352783203125	9.803058697509766	0.1945288848876953	0.08259995727539061	3.696441650390625	-4.505157470703125	-1.93023681640625	
117	0.468	0.0	0.0	0.0	0.0	0.003	0.003	0.003	0.003	9.776722479248047	-0.6177040283203125	0.2693476867675781	3.658294677734375	-4.49371337890625	-0.8087158203125	9.618106619262695	0.4471171600341797	0.26755203552246093	1.19781494140625	-4.909515380859375	-3.322601318359375	9.843760125732421	0.38367081604003905	0.06344634399414062	3.70025634765625	-4.364013671875	-2.620697021484375	
118	0.47200000000000003	0.0	0.0	0.0	0.0	0.003	0.003	0.006	0.003	9.89583401184082	-0.4417302062988281	0.22685060729980466	-0.934600830078125	-1.983642578125	-0.49591064453125	9.78629928588867	0.39444472351074217	0.3585316986083984	1.22833251953125	-5.10406494140625	-3.345489501953125	10.077194787597655	0.037110125732421874	0.011372457885742187	3.65447998046875	-4.7760009765625	-1.97601318359375	
119	0.47600000000000003	0.0	0.0	0.0	0.0	0.003	0.006	0.006	0.006	9.832986218261718	0.27952304382324217	0.1370680450439453	2.490997314453125	-3.62396240234375	-0.45013427734375	9.602544308471678	0.7416039642333984	0.1975216369628906	1.491546630859375	-4.93621826171875	-3.24249267578125	10.12567737121582	0.16220716247558592	-0.40462008056640625	3.5552978515625	-4.428863525390625	-2.613067626953125	
120	0.48	0.0	0.0	0.0	0.0	0.003	0.003	0.006	0.003	9.775525378417969	0.10594342346191406	0.26695348510742184	2.63214111328125	-3.74603271484375	-1.583099365234375	9.759963067626952	0.2549824768066406	0.33518823242187495	0.885009765625	-5.123138427734375	-2.75421142578125	9.795277542114258	0.19991583862304688	0.16759411621093748	3.490447998046875	-4.482269287109375	-1.758575439453125	
121	0.484	0.0	0.0	0.0	0.0	0.006	0.003	0.003	0.006	9.903016616821288	-0.6554127044677734	0.037708676147460936	-1.544952392578125	-1.2969970703125	-0.77056884765625	9.944316595458984	0.6290764862060546	0.1975216369628906	0.70953369140625	-4.72259521484375	-2.841949462890625	10.360907684326172	-0.010773907470703125	-0.44532150878906246	3.482818603515625	-4.20379638671875	-2.32696533203125	
122	0.488	0.0	0.0	0.0	0.0	0.006	0.003	0.006	0.006	9.925162982177733	-0.8068459594726562	0.05746083984375	-2.4261474609375	-0.5035400390625	-0.3204345703125	9.764152920532226	0.3178302703857422	0.28490999755859375	0.396728515625	-5.1116943359375	-3.307342529296875	9.898228213500976	0.19512743530273435	0.009576806640625	3.51715087890625	-4.497528076171875	-2.101898193359375	
123	0.492	0.0	0.0	0.0	0.0	0.006	0.006	0.006	0.003	9.903016616821288	0.8254010223388671	-0.1640028137207031	2.849578857421875	-3.7078857421875	-0.423431396484375	9.732429748535155	0.6673837127685547	0.11611878051757812	1.239776611328125	-4.8370361328125	-2.79998779296875	10.011354241943359	0.1771709228515625	-0.3633201019287109	3.688812255859375	-4.299163818359375	-2.09808349609375	
124	0.496	0.0	0.0	0.0	0.0	0.006	0.003	0.003	0.006	10.019135397338866	0.4333505004882812	-0.08200140686035155	4.3182373046875	-4.8675537109375	-0.698089599609375	9.75517466430664	0.29448680419921874	0.3321954803466797	0.659942626953125	-5.34820556640625	-2.361297607421875	10.17056865234375	0.3699041564941406	-0.30885201416015623	3.597259521484375	-4.669189453125	-1.73187255859375	
125	0.5	0.0	0.0	0.0	0.0	0.003	0.003	0.003	0.003	9.958681805419921	0.1131260284423828	-0.2214636535644531	5.22613525390625	-5.214691162109375	-1.575469970703125	9.948506448364258	0.488417138671875	-0.003591302490234375	1.0223388671875	-4.7149658203125	-2.536773681640625	10.271125122070313	0.007781155395507812	-0.4590881683349609	3.6163330078125	-4.238128662109375	-2.521514892578125	
126	0.504	0.0	0.0	0.0	0.0	0.0	0.003	0.003	0.003	9.609128363037108	-0.1274912384033203	0.47285482788085936	0.949859619140625	-2.727508544921875	-0.58746337890625	9.589974749755859	0.5728127471923827	0.33698388366699217	0.23651123046875	-4.940032958984375	-3.27301025390625	10.021529598999022	0.5422866760253906	-0.29568390502929687	3.589630126953125	-4.66156005859375	-2.017974853515625	
127	0.508	0.0	0.0	0.0	0.0	0.003	0.006	0.003	0.003	9.797073193359374	-0.44053310546874996	0.031124621582031248	-0.728607177734375	-1.9683837890625	-0.598907470703125	9.852139831542969	0.5943605621337891	-0.0526724365234375	1.476287841796875	-4.940032958984375	-3.15093994140625	10.10652375793457	0.004189852905273437	-0.4961982940673828	3.360748291015625	-4.43267822265625	-2.13623046875	
128	0.512	0.0	0.0	0.0	0.0	0.006	0.003	0.003	0.006	9.753379013061522	0.2693476867675781	0.26695348510742184	1.911163330078125	-3.021240234375	-0.835418701171875	9.821015209960937	0.4261678955078125	0.42497079467773435	0.553131103515625	-5.115509033203125	-3.299713134765625	10.280701928710936	0.3184288208007812	-0.3920505218505859	3.68499755859375	-4.7607421875	-2.101898193359375	
129	0.516	0.0	0.0	0.0	0.0	0.006	0.003	0.003	0.003	9.90122096557617	0.09816226806640624	-0.17776947326660156	2.3651123046875	-3.662109375	-1.2054443359375	9.919177478027343	0.5392939239501953	-0.1149216796875	1.31988525390625	-4.756927490234375	-3.0059814453125	10.101136804199218	0.022146365356445312	-0.6440402465820312	3.582000732421875	-4.73785400390625	-2.09808349609375	
130	0.52	0.0	0.0	0.0	0.0	0.003	0.003	0.006	0.003	9.69771382446289	0.41958384094238277	0.2262520568847656	3.5552978515625	-3.917694091796875	-1.010894775390625	9.590573300170897	0.5500678314208984	0.3363853332519531	0.40435791015625	-5.046844482421875	-2.819061279296875	9.795876092529296	0.4644751220703125	-0.07122749938964844	3.749847412109375	-4.772186279296875	-2.166748046875	
131	0.524	0.0	0.0	0.0	0.0	0.006	0.003	0.003	0.003	9.846154327392577	0.2699462371826172	0.22445640563964842	2.0751953125	-3.70025634765625	-0.732421875	10.01015714111328	0.49739539489746093	-0.19812018737792966	1.071929931640625	-4.913330078125	-2.773284912109375	10.269329470825195	-0.07781155395507812	-0.5363011718749999	3.543853759765625	-4.604339599609375	-2.033233642578125	
132	0.528	0.0	0.0	0.0	0.0	0.003	0.003	0.003	0.003	9.77432827758789	0.35613749694824215	0.12509703674316405	3.337860107421875	-4.238128662109375	-1.15966796875	9.737816702270507	0.5386953735351562	0.15981296081542967	0.9307861328125	-4.962921142578125	-3.12042236328125	10.076596237182617	0.30047230834960936	-0.30047230834960936	3.215789794921875	-4.665374755859375	-2.285003662109375	
133	0.532	0.0	0.0	0.0	0.0	0.003	0.003	0.006	0.006	9.71028338317871	0.46148236999511716	0.39145197143554683	1.140594482421875	-2.887725830078125	-0.89263916015625	9.6779616607666	0.5345055206298828	0.13946224670410157	0.690460205078125	-4.98199462890625	-3.177642822265625	9.970054263305663	0.08918401184082031	-0.20649989318847656	3.71551513671875	-5.0048828125	-2.094268798828125	
134	0.536	0.0	0.0	0.0	0.0	0.003	0.006	0.003	0.003	9.860519537353515	-0.229843359375	0.08020575561523437	0.942230224609375	-2.78472900390625	-0.614166259765625	9.725247143554688	0.42796354675292964	0.3429693878173828	0.579833984375	-4.970550537109375	-3.025054931640625	9.982025271606444	0.2597708801269531	-0.1406593475341797	3.44085693359375	-4.82177734375	-2.239227294921875	
135	0.54	0.0	0.0	0.0	0.0	0.009000000000000001	0.006	0.006	0.003	9.929951385498047	-0.0143652099609375	0.07900865478515624	-0.42724609375	-1.922607421875	-0.873565673828125	9.892242709350585	0.4291606475830078	0.04668693237304687	0.43487548828125	-5.031585693359375	-3.35693359375	10.062829577636718	0.11731588134765625	-0.2747346405029297	3.4027099609375	-4.55474853515625	-2.08282470703125	
136	0.544	0.0	0.0	0.0	0.0	0.003	0.006	0.003	0.003	9.938929641723632	0.08379705810546874	-0.11851298217773437	2.635955810546875	-3.57818603515625	-0.614166259765625	9.575609539794922	0.4052186309814453	0.2920926025390625	1.102447509765625	-4.85992431640625	-3.3111572265625	9.74799205932617	0.31663316955566406	-0.033518823242187495	3.322601318359375	-4.375457763671875	-2.17437744140625	
137	0.548	0.0	0.0	0.0	0.0	0.006	0.003	0.006	0.003	9.891644158935547	0.21308394775390624	0.04129997863769531	0.3204345703125	-2.50244140625	-0.2593994140625	9.718663088989258	0.4537012145996093	0.2472013214111328	0.32806396484375	-4.970550537109375	-2.7618408203125	9.827599264526366	0.2855085479736328	-0.10295067138671875	3.513336181640625	-4.665374755859375	-1.9073486328125	
138	0.552	0.0	0.0	0.0	0.0	0.006	0.003	0.003	0.003	9.926360083007811	0.16879121704101563	-0.03411737365722656	6.08062744140625	-5.62286376953125	-0.812530517578125	9.719261639404296	0.3399766357421875	0.22744915771484372	0.720977783203125	-4.802703857421875	-3.12042236328125	10.00417163696289	-0.04967968444824218	-0.14425065002441406	3.80706787109375	-4.550933837890625	-2.58636474609375	
139	0.556	0.0	0.0	0.0	0.0	0.0	0.006	0.003	0.003	10.000580334472655	0.2555810272216797	-0.17357962036132812	5.817413330078125	-5.8441162109375	-0.8392333984375	9.815029705810547	0.3711012573242187	0.04608838195800781	0.77056884765625	-5.40924072265625	-2.506256103515625	9.990404977416992	0.27174188842773433	-0.3908534210205078	3.7841796875	-4.665374755859375	-2.09808349609375	
140	0.56	0.0	0.0	0.0	0.0	0.006	0.003	0.006	0.003	9.714473236083984	0.4034229797363281	0.24959552307128904	5.146026611328125	-5.245208740234375	-0.67138671875	9.51814869995117	0.5764040496826172	0.3286041778564453	0.84686279296875	-4.73785400390625	-3.253936767578125	9.767145672607422	0.11911153259277343	-0.15322890625	3.368377685546875	-4.26483154296875	-2.3956298828125	
141	0.5640000000000001	0.0	0.0	0.0	0.0	0.003	0.003	0.006	0.006	10.025120901489258	0.3920505218505859	-0.1849520782470703	5.100250244140625	-5.451202392578125	-0.926971435546875	9.865307940673828	0.3435679382324219	0.011372457885742187	0.820159912109375	-5.4473876953125	-2.292633056640625	9.976638317871092	0.4010287780761719	0.037708676147460936	3.475189208984375	-4.695892333984375	-1.819610595703125	
142	0.5680000000000001	0.0	0.0	0.0	0.0	0.006	0.003	4.593	4.548	9.887454306030273	0.4285620971679687	-0.051475335693359374	4.302978515625	-5.0048828125	-1.0223388671875	9.662997900390625	0.5380968231201172	0.21428104858398436	0.446319580078125	-4.57763671875	-3.27301025390625	9.980229620361328	-0.06045359191894531	-0.21607669982910155	3.597259521484375	-4.058837890625	-2.887725830078125	
143	0.5720000000000001	0.0	0.0	0.0	0.0	4.5600000000000005	4.617	4.611	4.53	9.983820922851562	0.2232593048095703	-0.14006079711914063	4.970550537109375	-5.706787109375	-1.007080078125	9.734823950195311	0.39983167724609375	0.0526724365234375	0.63323974609375	-5.046844482421875	-2.51007080078125	9.861118087768554	0.47704468078613277	0.001197100830078125	3.498077392578125	-4.489898681640625	-2.040863037109375	
144	0.5760000000000001	0.0	0.0	0.0	0.0	4.566	4.6080000000000005	4.611	4.527	9.861716638183593	-0.03531447448730469	0.04369418029785156	4.2266845703125	-4.673004150390625	-0.762939453125	9.819818109130859	0.5363011718749999	0.052073886108398436	1.667022705078125	-4.993438720703125	-3.078460693359375	10.210072979736328	-0.04668693237304687	-0.489015689086914	3.582000732421875	-4.550933837890625	-1.83868408203125	
145	0.58	0.0	0.0	0.0	0.0	4.566	4.6080000000000005	4.614	4.548	10.083180291748047	0.11851298217773437	-0.2561795776367187	5.31768798828125	-6.09588623046875	-0.804901123046875	9.917980377197265	0.26216508178710934	-0.06763619689941405	1.163482666015625	-5.55419921875	-2.66265869140625	10.070012182617187	0.35194764404296874	-0.08080430603027343	3.72314453125	-4.55474853515625	-1.96075439453125	
146	0.584	0.0	0.0	0.0	0.0	4.563	4.617	4.617	4.5600000000000005	9.896432562255859	-0.034715924072265626	-0.04129997863769531	4.5928955078125	-4.894256591796875	-0.888824462890625	9.816825357055663	0.5267243652343749	0.040701428222656245	1.476287841796875	-4.81414794921875	-3.093719482421875	10.31661495361328	-0.061650692749023434	-0.6446387969970703	3.631591796875	-4.291534423828125	-2.109527587890625	
147	0.588	0.0	0.0	0.0	0.0	4.563	4.614	4.611	4.557	9.598354455566406	0.17836802368164062	0.4944026428222656	2.29644775390625	-3.353118896484375	-0.823974609375	9.708487731933593	0.5297171173095703	0.32620997619628905	0.67901611328125	-5.02777099609375	-2.74658203125	9.8694977935791	0.489015689086914	0.030526071166992186	3.505706787109375	-4.81414794921875	-1.972198486328125	
148	0.592	0.0	0.0	0.0	0.0	4.551	4.611	4.611	4.569	9.9215716796875	-0.0383072265625	-0.06404489440917968	4.245758056640625	-4.917144775390625	-0.732421875	9.920973129272461	0.40222587890625	0.02633621826171875	1.495361328125	-4.741668701171875	-3.07464599609375	10.390835205078124	-0.10594342346191406	-0.6482300994873047	3.48663330078125	-4.421234130859375	-1.781463623046875	
149	0.596	0.0	0.0	0.0	0.0	4.569	4.617	4.614	4.545	9.67197615661621	0.1849520782470703	0.3842693664550781	2.941131591796875	-3.795623779296875	-0.9918212890625	9.849745629882811	0.4513070129394531	0.19931728820800781	0.690460205078125	-5.084991455078125	-2.666473388671875	10.16997010192871	0.2771288421630859	-0.46208092041015625	3.391265869140625	-4.772186279296875	-2.1820068359375	
150	0.6	0.0	0.0	0.0	0.0	4.5600000000000005	4.614	4.614	4.53	9.867103591918944	0.08559270935058594	0.023343466186523436	4.669189453125	-5.092620849609375	-0.713348388671875	9.892841259765625	0.49320554199218747	-0.09816226806640624	1.285552978515625	-4.962921142578125	-3.0517578125	10.20887587890625	0.04908113403320312	-0.5746083984375	3.650665283203125	-4.459381103515625	-1.911163330078125	
151	0.604	0.0	0.0	0.0	0.0	4.569	4.611	4.614	4.5360000000000005	9.643245736694336	0.18614917907714842	0.3908534210205078	3.025054931640625	-3.864288330078125	-0.888824462890625	9.807847100830077	0.4369418029785156	0.23044190979003906	0.675201416015625	-5.023956298828125	-2.544403076171875	10.070012182617187	0.2723404388427734	-0.33399113159179683	3.77655029296875	-4.69207763671875	-2.399444580078125	
152	0.608	0.0	0.0	0.0	0.0	4.566	4.6080000000000005	4.617	4.554	9.937133990478515	-0.1149216796875	-0.05386953735351562	-1.155853271484375	-1.308441162109375	-1.13677978515625	10.00417163696289	0.38666356811523434	-0.24061726684570311	1.728057861328125	-5.05828857421875	-3.23486328125	10.275913525390624	0.18435352783203124	-0.5374982727050781	3.4942626953125	-4.60052490234375	-1.590728759765625	
153	0.612	0.0	0.0	0.0	0.0	4.563	4.614	4.617	4.554	9.643844287109374	0.12808978881835936	0.38367081604003905	3.11279296875	-4.070281982421875	-0.789642333984375	9.592967501831055	0.6955155822753906	0.2825157958984375	0.980377197265625	-5.11932373046875	-3.223419189453125	9.987412225341796	0.2855085479736328	-0.3220201232910156	3.528594970703125	-4.764556884765625	-2.40325927734375	
154	0.616	0.0	0.0	0.0	0.0	4.557	4.611	4.614	4.563	9.846154327392577	-0.04848258361816406	0.08259995727539061	-1.255035400390625	-1.5869140625	-0.89263916015625	9.926958633422851	0.5087678527832031	-0.09995791931152344	1.434326171875	-5.01251220703125	-3.017425537109375	10.172962854003906	0.2867056488037109	-0.527322915649414	3.536224365234375	-4.90570068359375	-1.73187255859375	
155	0.62	0.0	0.0	0.0	0.0	4.551	4.614	4.6080000000000005	0.003	9.732429748535155	0.001197100830078125	0.2998737579345703	-0.087738037109375	-1.8768310546875	-1.0528564453125	9.747393508911133	0.5476736297607422	0.229843359375	1.03759765625	-5.13458251953125	-3.162384033203125	10.02332525024414	-0.06045359191894531	-0.1370680450439453	3.513336181640625	-4.791259765625	-2.2430419921875	
156	0.624	0.0	0.0	0.0	0.0	0.003	0.003	0.003	0.006	9.811438403320311	-0.1945288848876953	0.10235212097167969	-1.28173828125	-1.0833740234375	-1.186370849609375	9.7928833404541	0.38247371520996093	0.17657237243652343	0.885009765625	-5.11932373046875	-3.246307373046875	10.14542953491211	0.2705447875976562	-0.5446808776855468	3.5247802734375	-4.550933837890625	-1.811981201171875	
157	0.628	0.0	0.0	0.0	0.0	0.003	0.006	0.006	0.006	9.804255798339844	-0.07601590270996093	0.10115502014160156	-1.140594482421875	-1.415252685546875	-1.1749267578125	9.635464581298828	0.5895721588134766	0.34177228698730466	0.812530517578125	-4.92095947265625	-2.960205078125	9.809044201660155	0.105344873046875	-0.047285482788085934	3.627777099609375	-4.520416259765625	-2.269744873046875	
158	0.632	0.0	0.0	0.0	0.0	0.003	0.003	0.003	0.003	9.855731134033203	-0.27293898925781246	0.13467384338378904	-2.03704833984375	-0.751495361328125	-0.8544921875	9.87727894897461	0.3298012786865234	0.23343466186523437	0.83160400390625	-5.031585693359375	-3.261566162109375	10.29805989074707	0.18435352783203124	-0.5339069702148437	3.37982177734375	-4.680633544921875	-2.292633056640625	
159	0.636	0.0	0.0	0.0	0.0	0.006	0.003	0.003	0.003	9.93354268798828	-0.10175357055664062	-0.06344634399414062	-0.32806396484375	-1.4495849609375	-1.24359130859375	9.69112976989746	0.6003460662841796	0.20649989318847656	0.95367431640625	-4.657745361328125	-3.582000732421875	9.907206469726562	0.033518823242187495	-0.10714052429199218	3.5552978515625	-4.41741943359375	-2.254486083984375	
160	0.64	0.0	0.0	0.0	0.0	0.003	0.003	0.006	0.006	9.9078050201416	0.4447229583740234	-0.08978256225585937	3.1890869140625	-3.9520263671875	-0.911712646484375	9.689334118652344	0.43574470214843747	0.30047230834960936	0.667572021484375	-5.18035888671875	-3.24249267578125	9.762955819702148	0.3908534210205078	-0.1149216796875	3.53240966796875	-4.76837158203125	-2.288818359375	
161	0.644	0.0	0.0	0.0	0.0	0.003	0.006	0.003	0.003	9.90122096557617	-0.029328970336914062	0.028131869506835935	-0.377655029296875	-1.5869140625	-1.071929931640625	9.757568865966796	0.4848258361816406	0.17477672119140625	0.621795654296875	-4.604339599609375	-3.177642822265625	9.982623822021484	0.06763619689941405	-0.11552023010253906	3.66973876953125	-4.78363037109375	-2.086639404296875	
162	0.648	0.0	0.0	0.0	0.0	0.003	0.003	0.006	0.006	10.028113653564452	0.30406361083984373	-0.19931728820800781	3.65447998046875	-4.360198974609375	-1.163482666015625	9.837176071166992	0.33518823242187495	0.2615665313720703	0.701904296875	-4.924774169921875	-3.662109375	10.041281762695311	0.1580173095703125	-0.24959552307128904	3.658294677734375	-4.730224609375	-2.536773681640625	
163	0.652	0.0	0.0	0.0	0.0	0.003	0.003	0.006	0.003	9.86291373901367	0.2549824768066406	0.044891281127929686	0.37384033203125	-2.414703369140625	-1.010894775390625	9.606734161376952	0.5404910247802734	0.29089550170898437	0.934600830078125	-4.913330078125	-3.337860107421875	9.815628256225585	0.21428104858398436	-0.06105214233398437	3.86810302734375	-4.43267822265625	-2.35748291015625	
164	0.656	0.0	0.0	0.0	0.0	0.003	0.003	0.003	0.003	9.949703549194336	0.6685808135986328	-0.15203180541992187	4.947662353515625	-5.420684814453125	-1.06048583984375	9.701903677368163	0.42018239135742186	0.15263035583496093	0.827789306640625	-5.161285400390625	-2.70843505859375	9.87727894897461	0.2902969512939453	-0.2059013427734375	3.2501220703125	-4.573822021484375	-2.44140625	
165	0.66	0.0	0.0	0.0	0.0	0.006	0.003	0.006	0.006	10.031704956054687	0.25797522888183594	-0.07541735229492187	6.801605224609375	-6.2713623046875	-0.84686279296875	9.87009634399414	0.4016273284912109	0.17357962036132812	0.69427490234375	-4.772186279296875	-3.292083740234375	10.029310754394531	0.0939724151611328	-0.1466448516845703	3.71551513671875	-4.37164306640625	-2.1209716796875	
166	0.664	0.0	0.0	0.0	0.0	0.006	0.006	0.006	0.003	10.01075569152832	0.4070142822265625	-0.23104046020507812	5.2490234375	-5.21087646484375	-0.9918212890625	9.727042794799804	0.33698388366699217	0.12509703674316405	0.67138671875	-4.96673583984375	-2.78472900390625	10.012551342773437	0.0796072052001953	-0.06823474731445311	3.635406494140625	-4.70733642578125	-2.32696533203125	
167	0.668	0.0	0.0	0.0	0.0	-0.003	0.003	0.003	0.003	9.941922393798828	0.4213794921875	-0.025139117431640625	7.16400146484375	-6.52313232421875	-0.514984130859375	9.708487731933593	0.5704185455322265	0.08678981018066406	0.949859619140625	-5.062103271484375	-2.79998779296875	9.75517466430664	0.3752911102294922	-0.11911153259277343	3.4942626953125	-4.32586669921875	-1.918792724609375	
168	0.672	0.0	0.0	0.0	0.0	0.006	0.003	0.003	0.003	10.051457119750976	0.44891281127929683	-0.22266075439453123	6.16455078125	-5.9661865234375	-0.835418701171875	9.822810861206055	0.23702596435546874	0.12090718383789062	0.9307861328125	-5.023956298828125	-2.750396728515625	10.024522351074218	0.0526724365234375	0.08020575561523437	3.60870361328125	-4.489898681640625	-2.269744873046875	
169	0.676	0.0	0.0	0.0	0.0	0.003	0.003	0.006	0.006	10.06163247680664	0.21128829650878905	-0.11671733093261719	7.312774658203125	-6.717681884765625	-0.873565673828125	9.89523546142578	0.42497079467773435	0.05626373901367187	1.45721435546875	-5.07354736328125	-3.215789794921875	9.995791931152343	0.24181436767578124	-0.1149216796875	3.643035888671875	-4.352569580078125	-2.307891845703125	
170	0.68	0.0	0.0	0.0	0.0	0.003	0.003	0.003	0.003	9.809642752075195	-0.2519897247314453	0.1640028137207031	3.89862060546875	-4.82177734375	-0.988006591796875	9.726444244384766	0.5141548065185546	0.181959326171875	0.9307861328125	-5.05828857421875	-2.86102294921875	9.756371765136718	0.1771709228515625	0.05985504150390625	3.448486328125	-4.0740966796875	-2.166748046875	
171	0.684	0.0	0.0	0.0	0.0	0.003	0.006	0.003	0.003	9.981426721191406	0.22086510314941404	-0.13347674255371092	7.13348388671875	-6.679534912109375	-0.6561279296875	9.889249957275391	0.39264907226562495	-0.0047884033203125	0.83160400390625	-4.985809326171875	-2.7008056640625	10.20229182434082	0.3950432739257812	-0.5201403106689453	3.543853759765625	-4.4097900390625	-2.1514892578125	
172	0.6880000000000001	0.0	0.0	0.0	0.0	0.006	0.006	0.003	0.003	9.90241806640625	-0.3651157531738281	0.07242460021972656	4.337310791015625	-5.115509033203125	-0.90789794921875	9.981426721191406	0.39444472351074217	0.12150573425292968	0.881195068359375	-5.07354736328125	-2.994537353515625	10.158597644042969	-0.15322890625	-0.030526071166992186	3.72314453125	-4.66156005859375	-2.231597900390625	
173	0.6920000000000001	0.0	0.0	0.0	0.0	0.003	0.006	0.003	0.006	9.709086282348633	-0.11791443176269531	0.20470424194335937	-0.244140625	-1.67083740234375	-1.12152099609375	9.80665	0.5207388610839844	0.04668693237304687	1.392364501953125	-4.947662353515625	-3.398895263671875	10.111910711669921	0.35015199279785153	-0.4537012145996093	3.50189208984375	-4.238128662109375	-2.38037109375	
174	0.6960000000000001	0.0	0.0	0.0	0.0	0.003	0.003	0.003	0.006	9.725247143554688	-0.364517202758789	0.3298012786865234	2.72369384765625	-3.833770751953125	-0.720977783203125	9.72943699645996	0.5973533142089843	0.31064766540527344	1.361846923828125	-5.02777099609375	-2.777099609375	9.95329485168457	0.34117373657226563	-0.239420166015625	3.467559814453125	-4.627227783203125	-1.667022705078125	
175	0.7000000000000001	0.0	0.0	0.0	0.0	0.003	0.006	0.003	0.006	9.765948571777344	-0.412401235961914	0.16998831787109375	-1.911163330078125	-0.873565673828125	-0.9613037109375	10.016142645263672	0.3842693664550781	0.05805939025878906	1.3427734375	-5.001068115234375	-3.21197509765625	10.432733734130858	0.12030863342285156	-0.4944026428222656	3.688812255859375	-4.367828369140625	-2.40325927734375	
176	0.704	0.0	0.0	0.0	0.0	0.006	0.003	0.003	0.006	9.721057290649414	-0.3094505645751953	0.4896142395019531	1.70135498046875	-3.1585693359375	-1.06048583984375	9.791087689208984	0.5291185668945312	0.22385785522460935	0.3662109375	-4.878997802734375	-3.05938720703125	10.241197601318358	0.1640028137207031	-0.38666356811523434	3.650665283203125	-4.558563232421875	-2.08282470703125	
177	0.708	0.0	0.0	0.0	0.0	0.006	0.006	0.003	0.003	9.670779055786133	0.24600422058105467	0.24001871643066405	-1.7547607421875	-0.69427490234375	-0.888824462890625	9.737218151855469	0.7451952667236328	0.1005564697265625	1.285552978515625	-4.96673583984375	-3.0517578125	9.803657247924804	0.21727380065917967	-0.47704468078613277	3.36456298828125	-4.547119140625	-2.170562744140625	
178	0.712	0.0	0.0	0.0	0.0	0.003	0.006	0.003	0.003	9.84435867614746	0.3387795349121094	0.011372457885742187	0.911712646484375	-2.536773681640625	-0.888824462890625	9.744400756835937	0.43634325256347656	0.31184476623535157	0.42724609375	-4.840850830078125	-2.410888671875	10.223839639282225	0.20949264526367187	-0.3058592620849609	3.452301025390625	-4.764556884765625	-1.773834228515625	
179	0.716	0.0	0.0	0.0	0.0	0.0	0.003	0.003	0.006	9.96586441040039	-0.11372457885742186	-0.05746083984375	-1.270294189453125	-0.644683837890625	-1.068115234375	10.040683212280273	0.30526071166992186	-0.10115502014160156	0.51116943359375	-5.031585693359375	-2.948760986328125	10.33696566772461	-0.19632453613281248	-0.7062894897460937	3.509521484375	-4.726409912109375	-2.50244140625	
180	0.72	0.0	0.0	0.0	0.0	0.009000000000000001	0.006	0.006	0.003	9.919776028442381	0.3184288208007812	-0.1466448516845703	1.995086669921875	-3.21197509765625	-1.1444091796875	9.507973342895507	0.5488707305908203	0.3477577911376953	0.339508056640625	-5.02777099609375	-2.658843994140625	9.813832604980469	0.517746109008789	-0.26695348510742184	3.54766845703125	-4.6539306640625	-2.11334228515625	
181	0.724	0.0	0.0	0.0	0.0	0.003	0.003	0.006	0.003	9.894038360595703	0.19153613281249998	-0.09217676391601562	4.741668701171875	-5.100250244140625	-0.804901123046875	9.756970315551758	0.6171054779052734	0.02454056701660156	0.946044921875	-4.947662353515625	-2.98309326171875	9.977236868286132	0.11432312927246092	-0.5153519073486328	3.54766845703125	-4.78363037109375	-1.89208984375	
182	0.728	0.0	0.0	0.0	0.0	0.003	0.006	0.006	0.006	10.014346994018554	0.11252747802734374	-0.17058686828613281	3.631591796875	-4.543304443359375	-1.224517822265625	9.898826763916015	0.2537853759765625	0.15981296081542967	1.361846923828125	-5.18798828125	-3.1280517578125	10.264541067504883	0.2328361114501953	-0.20350714111328125	3.635406494140625	-4.94384765625	-2.109527587890625	
183	0.732	0.0	0.0	0.0	0.0	0.006	0.003	0.003	0.006	9.854534033203125	0.354341845703125	-0.004189852905273437	4.53948974609375	-4.82177734375	-1.140594482421875	9.753379013061522	0.6488286499023437	-0.0430956298828125	1.079559326171875	-4.85992431640625	-3.307342529296875	9.97903251953125	0.03172317199707031	-0.5039794494628906	3.482818603515625	-4.7607421875	-2.43377685546875	
184	0.736	0.0	0.0	0.0	0.0	0.003	0.003	0.006	0.006	9.770138424682617	0.1849520782470703	0.14784195251464843	2.41851806640625	-3.41796875	-1.007080078125	9.515754498291015	0.565630142211914	0.364517202758789	1.24359130859375	-4.791259765625	-3.269195556640625	9.701305126953125	0.6482300994873047	-0.0718260498046875	3.6163330078125	-4.73785400390625	-1.819610595703125	
185	0.74	0.0	0.0	0.0	0.0	0.009000000000000001	0.006	0.003	0.006	9.878476049804688	0.06883329772949218	0.09457096557617187	2.094268798828125	-3.68499755859375	-0.8087158203125	10.129867224121092	0.36391865234375	-0.1352723937988281	1.247406005859375	-4.87518310546875	-3.0975341796875	10.107720858764647	-0.15382745666503905	-0.16280571289062498	3.650665283203125	-5.054473876953125	-1.903533935546875	
186	0.744	0.0	0.0	0.0	0.0	0.003	0.003	0.006	0.006	9.931747036743163	0.037708676147460936	-0.00718260498046875	3.41033935546875	-4.058837890625	-1.155853271484375	9.794678991699218	0.36631285400390623	0.17956512451171874	0.762939453125	-4.94384765625	-3.71551513671875	10.011952792358398	0.28969840087890625	-0.17058686828613281	3.47137451171875	-4.4708251953125	-2.391815185546875	
187	0.748	0.0	0.0	0.0	0.0	0.0	0.003	0.003	0.003	9.830592016601562	0.4465186096191406	0.04369418029785156	2.384185791015625	-3.63922119140625	-0.774383544921875	9.603741409301758	0.5680243438720702	0.07601590270996093	0.522613525390625	-4.695892333984375	-2.64739990234375	9.59536170349121	0.2867056488037109	-0.17357962036132812	3.68499755859375	-4.486083984375	-2.044677734375	
188	0.752	0.0	0.0	0.0	0.0	0.006	0.003	0.003	0.003	9.852738381958007	-0.032920272827148434	0.15981296081542967	4.119873046875	-4.726409912109375	-0.453948974609375	9.776722479248047	0.4321533996582031	0.354940396118164	0.457763671875	-4.7760009765625	-2.9449462890625	9.798270294189452	0.19871873779296872	0.08678981018066406	4.0435791015625	-4.73785400390625	-2.28118896484375	
189	0.756	0.0	0.0	0.0	0.0	0.003	0.003	0.003	0.003	10.02990930480957	0.24001871643066405	-0.1466448516845703	3.7994384765625	-4.4097900390625	-0.96893310546875	9.944316595458984	0.11192892761230468	0.027533319091796873	0.934600830078125	-5.21087646484375	-3.185272216796875	10.187328063964843	-0.16759411621093748	-0.30346506042480464	3.726959228515625	-4.608154296875	-2.246856689453125	
190	0.76	0.0	0.0	0.0	0.0	0.006	0.003	0.006	0.003	9.83777462158203	0.3274070770263672	0.08379705810546874	5.5999755859375	-5.451202392578125	-0.972747802734375	9.673771807861328	0.603338818359375	0.09935936889648436	1.1749267578125	-4.634857177734375	-3.0975341796875	9.7545761138916	0.3094505645751953	-0.2753331909179687	3.50189208984375	-4.17327880859375	-2.727508544921875	
191	0.764	0.0	0.0	0.0	0.0	0.003	0.006	0.003	0.003	9.868899243164062	0.12030863342285156	0.08678981018066406	4.383087158203125	-5.157470703125	-0.881195068359375	9.69771382446289	0.42796354675292964	0.15083470458984374	1.06048583984375	-5.340576171875	-2.468109130859375	9.803058697509766	0.21906945190429686	-0.05746083984375	3.620147705078125	-4.7607421875	-1.308441162109375	
192	0.768	0.0	0.0	0.0	0.0	0.003	0.003	0.003	0.009000000000000001	9.93294413757324	0.13587094421386717	0.06883329772949218	6.244659423828125	-5.85174560546875	-0.81634521484375	9.963470208740233	0.15682020874023436	0.14604630126953125	1.0833740234375	-5.035400390625	-3.078460693359375	10.172364303588866	-0.20709844360351562	-0.11432312927246092	3.833770751953125	-4.44793701171875	-2.727508544921875	
193	0.772	0.0	0.0	0.0	0.0	0.006	0.003	0.003	0.003	10.06163247680664	-0.05626373901367187	-0.2346317626953125	4.817962646484375	-5.2490234375	-1.140594482421875	9.87009634399414	0.5117606048583984	0.034715924072265626	0.652313232421875	-5.062103271484375	-3.0059814453125	10.066420880126952	0.33698388366699217	-0.1849520782470703	3.543853759765625	-4.44793701171875	-2.14385986328125	
194	0.776	0.0	0.0	0.0	0.0	0.003	0.003	0.006	2.544	9.788693487548828	0.3232172241210937	0.21128829650878905	3.0670166015625	-3.91387939453125	-0.614166259765625	9.494206683349608	0.6075286712646484	0.411802685546875	0.682830810546875	-4.852294921875	-2.971649169921875	9.642048635864258	0.20709844360351562	-0.011971008300781249	3.612518310546875	-4.40216064453125	-2.50244140625	
195	0.78	0.0	0.0	0.0	0.0	2.544	4.6080000000000005	4.602	4.551	10.047865817260742	-0.1149216796875	-0.08918401184082031	4.96673583984375	-5.63812255859375	-0.652313232421875	9.952696301269532	0.21128829650878905	0.16699556579589842	0.80108642578125	-5.24139404296875	-2.399444580078125	10.15740054321289	0.20350714111328125	0.001197100830078125	3.559112548828125	-4.852294921875	-1.918792724609375	
196	0.784	0.0	0.0	0.0	0.0	4.5600000000000005	4.611	4.611	4.533	10.022726699829102	-0.3268085266113281	-0.15741875915527342	3.60107421875	-4.383087158203125	-1.1444091796875	10.180145458984374	0.469263525390625	-0.3399766357421875	1.65557861328125	-4.970550537109375	-3.1585693359375	10.566809027099609	-0.19572598571777342	-0.7404068634033203	3.742218017578125	-4.55474853515625	-2.468109130859375	
197	0.788	0.0	0.0	0.0	0.0	4.566	4.614	4.611	4.53	9.859322436523437	0.011971008300781249	0.047884033203124995	5.168914794921875	-5.382537841796875	-0.63323974609375	9.61451531677246	0.517746109008789	0.25737667846679685	0.43487548828125	-5.130767822265625	-2.593994140625	9.721057290649414	0.5668272430419922	0.017956512451171875	3.45611572265625	-4.5013427734375	-1.758575439453125	
198	0.792	0.0	0.0	0.0	0.0	4.566	4.6080000000000005	4.614	4.548	9.775525378417969	-0.17597382202148437	0.14544775085449219	2.5787353515625	-3.9825439453125	-0.67138671875	9.884461553955077	0.5267243652343749	-0.02454056701660156	1.720428466796875	-4.94384765625	-2.655029296875	10.237606298828124	-0.058657940673828124	-0.44592005920410155	3.79180908203125	-4.43267822265625	-1.8157958984375	
199	0.796	0.0	0.0	0.0	0.0	4.563	4.614	4.617	4.554	9.763554370117188	-0.1352723937988281	0.20530279235839843	1.766204833984375	-2.986907958984375	-1.056671142578125	9.873687646484374	0.4423287567138672	0.12988544006347655	0.72479248046875	-5.123138427734375	-2.796173095703125	10.381856948852539	0.17178396911621094	-0.4147954376220703	3.673553466796875	-4.94384765625	-2.25830078125	
200	0.8	0.0	0.0	0.0	0.0	4.563	4.614	4.614	4.554	9.862315188598632	0.0526724365234375	-0.022146365356445312	3.925323486328125	-4.169464111328125	-0.91552734375	9.822810861206055	0.6368576416015624	-0.07302315063476562	1.354217529296875	-4.665374755859375	-3.376007080078125	10.15680199279785	0.06823474731445311	-0.6236895324707031	3.658294677734375	-4.055023193359375	-1.99127197265625	
201	0.804	0.0	0.0	0.0	0.0	4.548	4.614	4.611	4.569	9.483432775878907	0.02633621826171875	0.488417138671875	1.10626220703125	-2.803802490234375	-0.736236572265625	9.453505255126952	0.7044938385009765	0.44113165588378905	0.52642822265625	-5.054473876953125	-2.716064453125	9.77492682800293	0.49260699157714843	-0.11552023010253906	3.44085693359375	-4.73785400390625	-2.0904541015625	
202	0.808	0.0	0.0	0.0	0.0	4.569	4.614	4.614	4.542	9.986215124511718	-0.2214636535644531	-0.10474632263183593	3.360748291015625	-4.23431396484375	-0.942230224609375	10.140042581176758	0.3537432952880859	-0.18614917907714842	1.155853271484375	-4.856109619140625	-3.0670166015625	10.524910498046875	-0.2292448089599609	-0.7457938171386719	3.536224365234375	-4.917144775390625	-1.483917236328125	
203	0.812	0.0	0.0	0.0	0.0	4.566	4.617	4.611	4.53	9.706692080688477	0.025139117431640625	0.1867477294921875	1.8463134765625	-3.25775146484375	-1.01470947265625	9.707290631103515	0.6159083770751953	0.13108254089355467	0.675201416015625	-4.970550537109375	-3.017425537109375	10.149020837402343	0.2472013214111328	-0.43634325256347656	3.85284423828125	-4.79888916015625	-2.58636474609375	
204	0.8160000000000001	0.0	0.0	0.0	0.0	4.572	4.611	4.611	4.533	9.710881933593749	0.12330138549804687	0.229843359375	-1.2969970703125	-1.15966796875	-0.835418701171875	9.668384854125977	0.6123170745849609	0.09277531433105468	1.251220703125	-5.0506591796875	-3.170013427734375	9.897629663085937	0.4213794921875	-0.39444472351074217	3.265380859375	-4.6539306640625	-1.5716552734375	
205	0.8200000000000001	0.0	0.0	0.0	0.0	4.569	0.003	0.003	0.003	9.636661682128906	0.05327098693847656	0.33578678283691404	2.06756591796875	-3.35693359375	-1.033782958984375	9.783905084228515	0.5482721801757812	0.17417817077636719	0.90789794921875	-5.222320556640625	-2.5787353515625	10.168773001098632	0.21248539733886718	-0.28490999755859375	3.4332275390625	-4.70733642578125	-2.002716064453125	
206	0.8240000000000001	0.0	0.0	0.0	0.0	0.003	0.006	0.003	0.003	9.937133990478515	-0.1304839904785156	0.03411737365722656	-0.885009765625	-1.171112060546875	-0.980377197265625	10.073603485107421	0.3399766357421875	-0.18076222534179687	1.21307373046875	-4.84466552734375	-3.536224365234375	10.40699606628418	0.08439560852050781	-0.6093243225097655	3.662109375	-5.01251220703125	-1.873016357421875	
207	0.8280000000000001	0.0	0.0	0.0	0.0	0.003	0.006	0.006	0.003	9.509768994140625	0.08978256225585937	0.4291606475830078	0.255584716796875	-2.01416015625	-0.86212158203125	9.564835632324218	0.6961141326904297	0.2519897247314453	0.9765625	-5.023956298828125	-3.39508056640625	9.720458740234374	0.15562310791015624	-0.06045359191894531	3.643035888671875	-4.39453125	-2.613067626953125	
208	0.8320000000000001	0.0	0.0	0.0	0.0	0.006	0.006	0.006	0.006	9.734225399780273	0.1693897674560547	0.2765302917480469	-1.422882080078125	-1.186370849609375	-0.667572021484375	9.841365924072266	0.489015689086914	0.08499415893554688	1.461029052734375	-5.344390869140625	-3.19671630859375	10.101735354614258	0.30406361083984373	-0.4471171600341797	3.353118896484375	-4.749298095703125	-1.522064208984375	
209	0.836	0.0	0.0	0.0	0.0	0.006	0.003	0.006	0.006	9.975441217041014	0.023942016601562498	-0.06883329772949218	1.712799072265625	-3.078460693359375	-1.1138916015625	9.925162982177733	0.40282442932128903	0.11073182678222655	0.823974609375	-5.10406494140625	-3.421783447265625	10.098144052124022	-0.10654197387695312	-0.10474632263183593	3.482818603515625	-4.444122314453125	-2.262115478515625	
210	0.84	0.0	0.0	0.0	0.0	0.003	0.006	0.006	0.006	9.840168823242188	0.2346317626953125	0.08140285644531249	-0.652313232421875	-1.194000244140625	-1.438140869140625	9.76116016845703	0.3758896606445312	0.1897404815673828	0.3662109375	-4.970550537109375	-3.21197509765625	9.906009368896484	0.3076549133300781	-0.21787235107421873	3.63922119140625	-4.5318603515625	-2.422332763671875	
211	0.844	0.0	0.0	0.0	0.0	0.0	0.006	0.006	0.009000000000000001	9.762955819702148	0.2663549346923828	0.11671733093261719	0.93841552734375	-2.4871826171875	-0.732421875	9.557653027343749	0.6212953308105469	0.3603273498535156	0.240325927734375	-5.176544189453125	-3.177642822265625	9.598953005981445	0.23642741394042968	0.16819266662597654	3.597259521484375	-4.4403076171875	-2.0904541015625	
212	0.848	0.0	0.0	0.0	0.0	0.006	0.006	0.006	0.003	10.047267266845703	0.4572925170898437	-0.3082534637451172	5.893707275390625	-6.175994873046875	-0.6561279296875	9.885060104370117	0.33518823242187495	0.17896657409667968	0.545501708984375	-5.04302978515625	-2.9296875	9.988609326171874	0.20530279235839843	-0.16220716247558592	3.41033935546875	-4.688262939453125	-2.1514892578125	
213	0.852	0.0	0.0	0.0	0.0	0.003	0.003	0.003	0.006	9.98501802368164	0.3842693664550781	-0.13826514587402344	3.139495849609375	-3.7078857421875	-1.15966796875	9.862315188598632	0.2855085479736328	0.0939724151611328	0.23651123046875	-4.38690185546875	-3.063201904296875	10.081983190917969	0.04548983154296875	-0.2154781494140625	3.505706787109375	-4.177093505859375	-2.429962158203125	
214	0.856	0.0	0.0	0.0	0.0	0.003	0.006	0.003	0.003	9.931148486328125	0.49260699157714843	-0.11911153259277343	6.145477294921875	-5.92803955078125	-0.934600830078125	9.524134204101562	0.4531026641845703	0.4052186309814453	0.568389892578125	-5.18035888671875	-2.765655517578125	9.618705169677733	0.33039982910156246	-0.05686228942871093	3.631591796875	-4.41741943359375	-2.6092529296875	
215	0.86	0.0	0.0	0.0	0.0	0.003	0.006	0.003	0.003	9.90840357055664	0.2214636535644531	-0.006584054565429687	2.0294189453125	-3.505706787109375	-0.606536865234375	9.661800799560547	0.5003881469726562	0.21487959899902342	0.92315673828125	-4.878997802734375	-3.101348876953125	9.861716638183593	0.2861070983886719	-0.08200140686035155	3.757476806640625	-4.436492919921875	-2.117156982421875	
216	0.864	0.0	0.0	0.0	0.0	0.003	0.006	0.003	0.0	10.16398459777832	0.30047230834960936	-0.373495458984375	6.649017333984375	-6.381988525390625	-1.033782958984375	9.96047745666504	0.3016694091796875	-0.10953472595214843	0.91552734375	-4.913330078125	-2.788543701171875	10.070610733032225	0.003591302490234375	-0.2424129180908203	3.509521484375	-4.802703857421875	-2.521514892578125	
217	0.868	0.0	0.0	0.0	0.0	0.003	0.006	0.006	0.003	10.006565838623047	0.06464344482421874	-0.2316390106201172	6.64520263671875	-6.12640380859375	-1.117706298828125	9.573215338134766	0.63206923828125	0.2376245147705078	0.858306884765625	-4.871368408203125	-3.108978271484375	9.84435867614746	0.3076549133300781	-0.13467384338378904	3.620147705078125	-4.40216064453125	-2.292633056640625	
218	0.872	0.0	0.0	0.0	0.0	0.003	0.003	0.003	0.003	9.935936889648437	0.4782417816162109	-0.105344873046875	7.62176513671875	-7.43865966796875	-0.66375732421875	9.654618194580078	0.37888241271972656	0.12569558715820311	0.6103515625	-5.06591796875	-2.55584716796875	9.817423907470703	0.1771709228515625	-0.05386953735351562	3.6163330078125	-4.726409912109375	-1.88446044921875	
219	0.876	0.0	0.0	0.0	0.0	0.006	0.003	0.003	0.006	10.086173043823242	-0.13646949462890623	-0.19393033447265623	6.561279296875	-6.633758544921875	-0.926971435546875	10.011952792358398	0.5315127685546874	-0.023942016601562498	1.251220703125	-5.268096923828125	-2.86865234375	10.129268673706054	0.17058686828613281	-0.15382745666503905	3.8299560546875	-4.337310791015625	-2.40325927734375	
220	0.88	0.0	0.0	0.0	0.0	0.006	0.006	0.003	0.003	10.031704956054687	0.2549824768066406	-0.25318682556152344	2.61688232421875	-3.6773681640625	-0.225067138671875	9.73602105102539	0.32561142578124996	0.0430956298828125	1.316070556640625	-4.993438720703125	-3.337860107421875	10.10712230834961	-0.05805939025878906	-0.14185644836425781	3.54766845703125	-4.45556640625	-2.22015380859375	
221	0.884	0.0	0.0	0.0	0.0	0.0	0.003	0.006	0.006	9.805452899169921	-0.03232172241210937	0.061650692749023434	4.810333251953125	-5.18035888671875	-0.988006591796875	9.696516723632811	0.7338228088378905	0.17178396911621094	1.7852783203125	-5.130767822265625	-2.96783447265625	10.008361489868163	0.42317514343261714	-0.4159925384521484	3.5400390625	-4.291534423828125	-2.407073974609375	
222	0.888	0.0	0.0	0.0	0.0	0.006	0.006	0.003	0.003	9.627683425903319	-0.2920926025390625	0.5201403106689453	0.881195068359375	-2.666473388671875	-1.07574462890625	9.805452899169921	0.373495458984375	0.08200140686035155	0.949859619140625	-4.8828125	-3.02886962890625	10.109516510009765	-0.06763619689941405	0.003591302490234375	3.597259521484375	-4.4708251953125	-1.934051513671875	
223	0.892	0.0	0.0	0.0	0.0	0.006	0.003	0.003	0.003	9.89523546142578	-0.40761283264160153	0.13168109130859373	3.383636474609375	-3.932952880859375	-0.965118408203125	10.001777435302733	0.4255693450927734	0.08379705810546874	1.556396484375	-4.924774169921875	-3.39508056640625	10.488398922729491	0.10354922180175781	-0.6248866333007812	3.4942626953125	-4.33349609375	-2.5482177734375	
224	0.896	0.0	0.0	0.0	0.0	0.003	0.006	0.006	0.0	9.567229833984374	0.05985504150390625	0.5997475158691405	-0.125885009765625	-1.739501953125	-0.946044921875	9.660603698730467	0.5255272644042969	0.5129577056884765	0.911712646484375	-5.207061767578125	-3.223419189453125	9.94072529296875	0.30885201416015623	-0.14903905334472656	3.604888916015625	-4.734039306640625	-2.2125244140625	
225	0.9	0.0	0.0	0.0	0.0	0.0	0.003	0.003	0.006	9.840767373657226	0.2232593048095703	0.03890577697753906	-1.766204833984375	-1.07574462890625	-0.86212158203125	9.847949978637695	0.526125814819336	0.239420166015625	0.66375732421875	-5.01251220703125	-2.902984619140625	10.19510921936035	0.2657563842773437	-0.5051765502929687	3.76129150390625	-4.486083984375	-2.25067138671875	
226	0.904	0.0	0.0	0.0	0.0	0.006	0.006	0.006	0.006	9.755773214721678	-0.0143652099609375	0.3711012573242187	0.980377197265625	-2.03704833984375	-0.96893310546875	9.9981861328125	0.2232593048095703	0.2645592834472656	0.568389892578125	-4.871368408203125	-2.796173095703125	10.290877285766602	0.15083470458984374	-0.3573345977783203	3.726959228515625	-4.69970703125	-1.7242431640625	
227	0.908	0.0	0.0	0.0	0.0	0.006	0.003	0.003	0.003	10.011354241943359	-0.020350714111328123	-0.19692308654785154	-0.9002685546875	-1.617431640625	-1.033782958984375	9.874884747314452	0.5416881256103515	0.027533319091796873	0.759124755859375	-4.92095947265625	-2.99835205078125	10.159794744873047	0.18136077575683593	-0.4860229370117187	3.566741943359375	-4.669189453125	-2.391815185546875	
228	0.912	0.0	0.0	0.0	0.0	0.006	0.006	0.003	0.006	9.64025298461914	0.2759317413330078	0.4590881683349609	1.7242431640625	-3.27301025390625	-0.4730224609375	9.630077627563477	0.4525041137695312	0.41359833679199215	0.54168701171875	-5.107879638671875	-2.58636474609375	9.829993466186522	0.479438882446289	-0.08379705810546874	3.520965576171875	-4.741668701171875	-1.739501953125	
229	0.916	0.0	0.0	0.0	0.0	0.006	0.003	0.003	0.003	9.97903251953125	0.008978256225585938	-0.09157821350097656	0.652313232421875	-2.8533935546875	-0.6103515625	10.012551342773437	0.507570751953125	-0.105344873046875	1.251220703125	-5.001068115234375	-2.9296875	10.22204398803711	-0.07841010437011718	-0.3184288208007812	3.63922119140625	-4.795074462890625	-2.20489501953125	
230	0.92	0.0	0.0	0.0	0.0	0.003	0.003	0.003	0.003	9.956886154174803	0.09038111267089843	-0.018555062866210937	2.391815185546875	-3.3416748046875	-1.377105712890625	9.763554370117188	0.41359833679199215	0.3716998077392578	0.949859619140625	-4.9285888671875	-3.398895263671875	10.182539660644531	0.29269115295410153	-0.2561795776367187	3.23486328125	-4.7760009765625	-1.873016357421875	
231	0.924	0.0	0.0	0.0	0.0	0.003	0.006	0.003	0.003	9.727042794799804	0.24301146850585936	0.2962824554443359	0.019073486328125	-2.063751220703125	-1.056671142578125	9.731232647705077	0.7020996368408202	0.04908113403320312	1.45721435546875	-4.5318603515625	-3.2196044921875	9.898826763916015	0.13467384338378904	-0.19512743530273435	3.505706787109375	-4.75311279296875	-2.34222412109375	
232	0.928	0.0	0.0	0.0	0.0	0.003	0.003	0.003	0.006	9.882067352294921	0.047884033203124995	0.06045359191894531	0.45013427734375	-2.37274169921875	-1.2664794921875	9.718663088989258	0.45968671875	0.3920505218505859	0.701904296875	-4.95147705078125	-3.078460693359375	9.787496386718749	0.41060558471679687	0.07422025146484375	3.452301025390625	-4.611968994140625	-2.246856689453125	
233	0.932	0.0	0.0	0.0	0.0	0.006	0.003	0.006	0.006	9.882067352294921	-0.04189852905273437	0.20470424194335937	2.933502197265625	-1.155853271484375	-0.92315673828125	9.956287603759765	0.3393780853271484	0.10714052429199218	0.881195068359375	-5.077362060546875	-3.25775146484375	10.330980163574218	-0.15741875915527342	-0.3746925598144531	3.48663330078125	-4.779815673828125	-2.193450927734375	
234	0.936	0.0	0.0	0.0	0.0	0.006	0.003	0.003	0.006	9.938331091308592	0.1879448303222656	0.013168109130859374	0.152587890625	-2.20489501953125	-1.1138916015625	9.618106619262695	0.4991910461425781	0.4207809417724609	0.202178955078125	-4.5928955078125	-3.231048583984375	9.738415252685547	0.35314474487304687	0.0383072265625	3.757476806640625	-4.608154296875	-2.44903564453125	
235	0.9400000000000001	0.0	0.0	0.0	0.0	0.006	0.003	0.003	0.006	9.888052856445311	0.4177881896972656	-0.011971008300781249	3.482818603515625	-4.405975341796875	-0.66375732421875	9.700706576538085	0.5931634613037109	0.19812018737792966	0.545501708984375	-5.245208740234375	-2.674102783203125	9.630077627563477	0.3022679595947265	0.09038111267089843	3.448486328125	-4.486083984375	-2.03704833984375	
236	0.9440000000000001	0.0	0.0	0.0	0.0	0.003	0.003	0.006	0.003	10.012551342773437	0.0143652099609375	-0.0047884033203125	1.796722412109375	-3.01361083984375	-1.346588134765625	9.67137760620117	0.31543606872558594	0.3938461730957031	0.942230224609375	-4.913330078125	-3.326416015625	9.962871658325195	0.11013327636718749	0.06404489440917968	3.8909912109375	-4.79888916015625	-2.55584716796875	
237	0.9480000000000001	0.0	0.0	0.0	0.0	0.006	4.029	4.599	4.524	9.951499200439452	0.3286041778564453	0.0017956512451171875	3.60107421875	-4.322052001953125	-0.850677490234375	9.821015209960937	0.3489548919677734	0.13287819213867186	0.74005126953125	-4.703521728515625	-3.42559814453125	9.913191973876952	0.18614917907714842	-0.020949264526367185	3.604888916015625	-4.60052490234375	-2.26593017578125	
238	0.9520000000000001	0.0	0.0	0.0	0.0	4.566	4.605	4.614	4.551	9.853336932373047	0.4531026641845703	0.08200140686035155	5.767822265625	-5.558013916015625	-0.732421875	9.426570486450196	0.6584054565429687	0.4746504791259765	0.46539306640625	-4.642486572265625	-3.376007080078125	9.619902270507811	0.35793314819335936	0.07242460021972656	3.635406494140625	-4.21905517578125	-2.483367919921875	
239	0.9560000000000001	0.0	0.0	0.0	0.0	4.5600000000000005	4.617	4.617	4.554	9.964667309570311	0.4159925384521484	-0.03651157531738281	3.093719482421875	-4.180908203125	-0.812530517578125	9.821613760375977	0.3028665100097656	0.11372457885742186	0.713348388671875	-5.245208740234375	-2.47955322265625	9.952696301269532	0.24779987182617186	-0.05985504150390625	3.5247802734375	-4.650115966796875	-2.025604248046875	
240	0.96	0.0	0.0	0.0	0.0	4.557	4.611	4.614	4.557	10.038887561035155	0.2136824981689453	-0.1083376251220703	6.79779052734375	-6.122589111328125	-0.99945068359375	9.672574707031249	0.517746109008789	0.32620997619628905	1.07574462890625	-4.909515380859375	-3.45611572265625	10.134655627441406	-0.12210428466796874	-0.22266075439453123	3.665924072265625	-4.2877197265625	-2.613067626953125	
241	0.964	0.0	0.0	0.0	0.0	4.548	4.6080000000000005	4.6080000000000005	4.566	9.896432562255859	0.5895721588134766	-0.03651157531738281	3.185272216796875	-4.1351318359375	-1.110076904296875	9.65940659790039	0.4369418029785156	0.17058686828613281	0.6103515625	-5.130767822265625	-2.750396728515625	9.660603698730467	0.4656722229003906	-0.004189852905273437	3.818511962890625	-4.60052490234375	-2.25067138671875	
242	0.968	0.0	0.0	0.0	0.0	4.566	4.617	4.614	4.542	9.90241806640625	0.2442085693359375	0.07541735229492187	5.855560302734375	-5.5084228515625	-0.568389892578125	9.59476315307617	0.5883750579833984	0.1352723937988281	1.07574462890625	-4.8065185546875	-2.780914306640625	9.835380419921874	0.05386953735351562	-0.08499415893554688	3.82232666015625	-4.543304443359375	-2.162933349609375	
243	0.972	0.0	0.0	0.0	0.0	4.569	4.617	4.611	4.53	10.043675964355469	-0.08379705810546874	-0.04967968444824218	5.352020263671875	-5.443572998046875	-0.690460205078125	9.97244846496582	0.2292448089599609	0.014963760375976562	0.6866455078125	-5.046844482421875	-2.841949462890625	10.259154113769531	0.21428104858398436	-0.18914193115234373	3.57818603515625	-4.4403076171875	-2.048492431640625	
244	0.976	0.0	0.0	0.0	0.0	4.569	4.614	4.614	4.539	9.945513696289062	0.38666356811523434	0.04848258361816406	6.09588623046875	-5.611419677734375	-0.797271728515625	9.776722479248047	0.5123591552734374	0.17657237243652343	1.02996826171875	-4.7607421875	-3.047943115234375	9.833584768676758	0.02154781494140625	-0.09277531433105468	3.631591796875	-4.2724609375	-2.410888671875	
245	0.98	0.0	0.0	0.0	0.0	4.566	4.605	4.617	0.006	9.866505041503906	0.1514332550048828	0.1149216796875	5.19561767578125	-5.43975830078125	-0.6561279296875	9.676166009521484	0.4112041351318359	0.21248539733886718	0.6866455078125	-5.157470703125	-2.513885498046875	9.911994873046874	0.4435258575439453	-0.15263035583496093	3.570556640625	-4.61578369140625	-1.850128173828125	
246	0.984	0.0	0.0	0.0	0.0	0.006	0.006	0.003	0.003	10.025120901489258	0.17776947326660156	-0.07302315063476562	3.246307373046875	-5.3253173828125	-0.81634521484375	9.926360083007811	0.4333505004882812	0.017357962036132813	1.194000244140625	-4.99725341796875	-2.92205810546875	10.319607705688476	-0.003591302490234375	-0.5596446380615234	3.936767578125	-4.7760009765625	-1.89971923828125	
247	0.988	0.0	0.0	0.0	0.0	0.003	0.003	0.003	0.006	9.98501802368164	-0.013168109130859374	-0.06045359191894531	5.28717041015625	-5.27191162109375	-0.9002685546875	9.911994873046874	0.38247371520996093	0.07481880187988281	0.659942626953125	-4.84466552734375	-2.758026123046875	10.115502014160155	0.22266075439453123	-0.24660277099609373	3.528594970703125	-4.5928955078125	-2.18963623046875	
248	0.992	0.0	0.0	0.0	0.0	0.006	0.003	0.006	0.006	9.8311905670166	-0.07062894897460938	-0.1274912384033203	2.2735595703125	-3.50189208984375	-0.835418701171875	9.690531219482422	0.6057330200195312	0.08140285644531249	1.079559326171875	-4.730224609375	-2.67791748046875	10.079588989257813	0.2645592834472656	-0.6458358978271485	3.787994384765625	-4.428863525390625	-1.850128173828125	
249	0.996	0.0	0.0	0.0	0.0	0.003	0.003	0.003	0.006	9.892242709350585	-0.027533319091796873	0.10654197387695312	5.687713623046875	-5.2947998046875	-0.827789306640625	9.841365924072266	0.41060558471679687	0.1274912384033203	0.81634521484375	-5.107879638671875	-2.6702880859375	10.070012182617187	0.2214636535644531	-0.16639701538085935	3.482818603515625	-4.8675537109375	-2.201080322265625	
250	1.0	0.0	0.0	0.0	0.0	0.003	0.003	0.003	0.003	9.945513696289062	-0.36272155151367186	-0.20949264526367187	1.522064208984375	-3.0517578125	-1.163482666015625	10.044274514770507	0.4213794921875	-0.24899697265624998	1.678466796875	-5.06591796875	-3.208160400390625	10.415974322509765	0.07122749938964844	-0.7679401824951172	3.406524658203125	-4.12750244140625	-1.983642578125	
251	1.004	0.0	0.0	0.0	0.0	0.006	0.003	0.003	0.003	9.579200842285156	0.06284779357910156	0.3711012573242187	0.011444091796875	-1.91497802734375	-0.8087158203125	9.763554370117188	0.584185205078125	0.07781155395507812	0.6256103515625	-4.7760009765625	-2.956390380859375	10.075997686767577	0.24660277099609373	-0.3962403747558593	3.681182861328125	-4.795074462890625	-2.208709716796875	
252	1.008	0.0	0.0	0.0	0.0	0.003	0.003	0.003	0.003	9.78689783630371	-0.1867477294921875	-0.010175357055664061	0.835418701171875	-2.655029296875	-0.84686279296875	9.832986218261718	0.5033808990478515	0.0005985504150390625	1.453399658203125	-5.2490234375	-2.910614013671875	10.13166287536621	0.24001871643066405	-0.4908113403320312	3.5552978515625	-4.26483154296875	-1.9073486328125	
253	1.012	0.0	0.0	0.0	0.0	0.003	0.003	0.006	0.006	9.695918173217773	-0.14484920043945312	0.21607669982910155	-0.865936279296875	-1.697540283203125	-1.125335693359375	9.848548529052733	0.5434837768554687	0.09277531433105468	0.732421875	-5.11932373046875	-3.154754638671875	10.283694680786132	0.105344873046875	-0.44412440795898434	3.444671630859375	-4.70733642578125	-2.0599365234375	
254	1.016	0.0	0.0	0.0	0.0	0.003	0.006	0.006	0.003	9.801263046264648	-0.22385785522460935	-0.033518823242187495	0.55694580078125	-2.37274169921875	-1.094818115234375	9.872490545654296	0.5530605834960938	-0.15741875915527342	1.5411376953125	-4.856109619140625	-3.528594970703125	10.273519323730468	0.21128829650878905	-0.8044517578125	3.54766845703125	-4.779815673828125	-2.079010009765625	
255	1.02	0.0	0.0	0.0	0.0	0.003	0.003	0.003	0.003	9.598354455566406	-0.013766659545898436	0.36391865234375	-1.6632080078125	-0.9307861328125	-1.255035400390625	9.648034140014648	0.6769605194091797	0.16280571289062498	0.812530517578125	-4.98199462890625	-3.13568115234375	9.91558617553711	0.21966800231933592	-0.15562310791015624	3.627777099609375	-4.795074462890625	-1.89208984375	
256	1.024	0.0	0.0	0.0	0.0	0.006	0.003	0.003	0.003	9.905410818481444	0.19931728820800781	-0.011971008300781249	-0.762939453125	-1.483917236328125	-0.77056884765625	9.7928833404541	0.3441664886474609	0.23642741394042968	0.16021728515625	-4.833221435546875	-2.7618408203125	10.198101971435547	0.17357962036132812	-0.6302735870361328	3.437042236328125	-4.734039306640625	-2.132415771484375	
257	1.028	0.0	0.0	0.0	0.0	0.0	0.006	0.003	0.006	9.76894132385254	0.04189852905273437	0.20709844360351562	-1.31988525390625	-0.736236572265625	-1.209259033203125	9.828796365356444	0.5219359619140624	0.14245499877929688	0.99945068359375	-4.901885986328125	-3.4637451171875	9.962273107910155	0.1322796417236328	-0.15502455749511718	3.631591796875	-4.550933837890625	-2.349853515625	
258	1.032	0.0	0.0	0.0	0.0	0.003	0.003	0.003	0.003	9.922768780517577	0.4608838195800781	-0.18375497741699218	0.54168701171875	-2.410888671875	-1.1138916015625	9.682750064086914	0.4656722229003906	0.2867056488037109	0.370025634765625	-4.878997802734375	-3.200531005859375	9.91558617553711	0.2747346405029297	-0.4465186096191406	3.398895263671875	-4.245758056640625	-2.170562744140625	
259	1.036	0.0	0.0	0.0	0.0	0.006	0.003	0.006	0.006	9.777919580078125	0.15203180541992187	0.16759411621093748	5.443572998046875	-1.64794921875	-1.1444091796875	9.682750064086914	0.4465186096191406	0.20350714111328125	0.637054443359375	-4.947662353515625	-2.819061279296875	9.7928833404541	0.2902969512939453	-0.07481880187988281	3.643035888671875	-4.70733642578125	-2.05230712890625	
260	1.04	0.0	0.0	0.0	0.0	0.003	0.006	0.003	0.003	10.02332525024414	0.3477577911376953	-0.28730419921875	2.490997314453125	-3.543853759765625	-0.774383544921875	9.91558617553711	0.33578678283691404	0.07422025146484375	0.110626220703125	-4.87518310546875	-2.96783447265625	10.193313568115233	0.013168109130859374	-0.5458779785156249	3.574371337890625	-4.726409912109375	-2.23541259765625	
261	1.044	0.0	0.0	0.0	0.0	0.003	0.006	0.003	0.003	9.961076007080077	0.3064578125	-0.19572598571777342	5.878448486328125	-5.6610107421875	-1.071929931640625	9.695319622802733	0.46208092041015625	0.086191259765625	0.720977783203125	-4.734039306640625	-2.98309326171875	9.773729727172851	0.32620997619628905	-0.04908113403320312	3.6163330078125	-4.2724609375	-2.14385986328125	
262	1.048	0.0	0.0	0.0	0.0	0.003	0.006	0.003	0.003	9.938929641723632	0.5147533569335937	-0.1771709228515625	3.8604736328125	-4.596710205078125	-0.690460205078125	9.619303720092773	0.42377369384765623	0.15382745666503905	1.163482666015625	-5.16510009765625	-2.70843505859375	9.747393508911133	0.028131869506835935	-0.1149216796875	3.76129150390625	-4.60052490234375	-2.262115478515625	
263	1.052	0.0	0.0	0.0	0.0	0.003	0.006	0.003	0.006	9.931148486328125	0.14125789794921875	-0.010773907470703125	6.351470947265625	-6.313323974609375	-0.84686279296875	9.712079034423828	0.36272155151367186	0.22864625854492185	1.007080078125	-4.955291748046875	-3.02886962890625	9.983222372436522	0.2747346405029297	-0.012569558715820313	3.505706787109375	-4.611968994140625	-2.25830078125	
264	1.056	0.0	0.0	0.0	0.0	0.003	0.003	0.003	0.006	9.98561657409668	-0.0909796630859375	-0.028730419921875	4.512786865234375	-5.069732666015625	-1.18255615234375	9.753379013061522	0.3232172241210937	0.12030863342285156	1.224517822265625	-5.176544189453125	-3.30352783203125	9.867103591918944	-0.06763619689941405	-0.054468087768554684	3.4027099609375	-4.245758056640625	-2.490997314453125	
265	1.06	0.0	0.0	0.0	0.0	0.006	0.006	0.003	0.003	9.777919580078125	0.20769699401855468	0.20829554443359374	4.482269287109375	-5.04302978515625	-1.1138916015625	9.53790086364746	0.5386953735351562	0.35015199279785153	1.33514404296875	-4.96673583984375	-3.33404541015625	9.889249957275391	0.4070142822265625	-0.1322796417236328	3.5247802734375	-4.482269287109375	-2.11334228515625	
266	1.064	0.0	0.0	0.0	0.0	0.006	0.003	0.003	0.006	9.950302099609374	-0.10893617553710937	0.06883329772949218	2.84576416015625	-3.997802734375	-0.93841552734375	9.783905084228515	0.3537432952880859	0.29568390502929687	1.129150390625	-5.252838134765625	-2.902984619140625	9.899425314331054	-0.03651157531738281	-0.003591302490234375	3.543853759765625	-4.2877197265625	-2.063751220703125	
267	1.068	0.0	0.0	0.0	0.0	0.003	0.003	0.003	0.003	9.868300692749022	0.10235212097167969	0.201112939453125	4.2724609375	-4.566192626953125	-0.91552734375	9.917980377197265	0.3321954803466797	0.13287819213867186	0.87738037109375	-4.7454833984375	-3.124237060546875	10.031704956054687	0.23702596435546874	-0.09636661682128905	3.79180908203125	-4.4097900390625	-2.532958984375	
268	1.072	0.0	0.0	0.0	0.0	0.003	0.003	0.003	0.003	9.999383233642577	-0.08319850769042968	-0.08080430603027343	2.9144287109375	-4.058837890625	-0.92315673828125	9.749189160156249	0.43514615173339843	0.21068974609375	0.90789794921875	-5.321502685546875	-2.719879150390625	10.058041174316406	0.07481880187988281	-0.10115502014160156	3.543853759765625	-4.69970703125	-1.956939697265625	
269	1.076	0.0	0.0	0.0	0.0	0.003	0.003	0.003	0.006	9.910199221801758	-0.10235212097167969	-0.005985504150390624	3.444671630859375	-4.673004150390625	-0.530242919921875	9.764751470947266	0.4010287780761719	0.3190273712158203	0.92315673828125	-4.856109619140625	-2.895355224609375	9.893439810180663	0.2723404388427734	-0.05626373901367187	3.57818603515625	-4.31060791015625	-2.197265625	
270	1.08	0.0	0.0	0.0	0.0	0.003	0.003	0.003	0.006	10.128071572875976	-0.16699556579589842	-0.18734627990722655	4.0130615234375	-5.062103271484375	-0.659942626953125	9.94671079711914	0.3399766357421875	0.24600422058105467	0.621795654296875	-4.852294921875	-2.55584716796875	10.154407791137695	0.10175357055664062	-0.12030863342285156	3.551483154296875	-4.444122314453125	-1.83868408203125	
271	1.084	0.0	0.0	0.0	0.0	0.003	0.003	0.003	0.003	9.935936889648437	-0.11133037719726561	-0.0017956512451171875	4.58526611328125	-4.802703857421875	-0.946044921875	9.77432827758789	0.4740519287109375	0.29388825378417965	1.209259033203125	-4.756927490234375	-3.265380859375	9.929951385498047	0.1771709228515625	-0.1322796417236328	3.72314453125	-4.329681396484375	-2.429962158203125	
272	1.088	0.0	0.0	0.0	0.0	0.006	0.003	0.003	0.006	9.94671079711914	0.07062894897460938	0.10414777221679687	5.279541015625	-5.893707275390625	-0.766754150390625	9.758765966796874	0.36691140441894526	0.3573345977783203	0.54168701171875	-5.390167236328125	-2.6702880859375	9.926360083007811	0.2519897247314453	0.016160861206054686	3.673553466796875	-4.467010498046875	-1.7547607421875	
273	1.092	0.0	0.0	0.0	0.0	0.006	0.006	0.003	4.548	9.897629663085937	-0.18375497741699218	0.08678981018066406	3.66973876953125	-4.314422607421875	-1.094818115234375	9.980229620361328	0.6015431671142578	-0.04189852905273437	1.38092041015625	-4.962921142578125	-2.902984619140625	10.25376716003418	0.03651157531738281	-0.38666356811523434	3.7841796875	-4.306793212890625	-2.246856689453125	
274	1.096	0.0	0.0	0.0	0.0	4.542	4.6080000000000005	4.6080000000000005	4.566	9.737218151855469	-0.054468087768554684	0.2867056488037109	1.567840576171875	-3.032684326171875	-1.068115234375	9.906607919311522	0.37768531188964843	0.26874913635253905	0.8544921875	-5.229949951171875	-2.910614013671875	10.136451278686522	0.22505495605468748	-0.09636661682128905	3.826141357421875	-4.66156005859375	-1.956939697265625	
275	1.1	0.0	0.0	0.0	0.0	4.566	4.614	4.614	4.545	9.904213717651366	-0.061650692749023434	0.0796072052001953	2.872467041015625	-4.12750244140625	-0.87738037109375	9.835380419921874	0.6021417175292968	0.08439560852050781	1.560211181640625	-4.7454833984375	-2.796173095703125	10.152612139892577	0.07003039855957031	-0.43155484924316406	3.650665283203125	-4.550933837890625	-2.2430419921875	
276	1.104	0.0	0.0	0.0	0.0	4.566	4.611	4.614	4.533	9.619902270507811	0.1274912384033203	0.4267664459228515	2.239227294921875	-3.27301025390625	-1.02996826171875	9.634267480468749	0.6302735870361328	0.3124433166503906	0.67901611328125	-5.268096923828125	-2.81524658203125	9.967061511230469	0.42796354675292964	-0.09576806640624999	3.749847412109375	-4.711151123046875	-2.06756591796875	
277	1.108	0.0	0.0	0.0	0.0	4.572	4.611	4.611	4.5360000000000005	9.94730934753418	-0.22385785522460935	0.034715924072265626	-1.15203857421875	-1.27410888671875	-0.8697509765625	10.005368737792969	0.4447229583740234	-0.07900865478515624	1.1444091796875	-4.985809326171875	-2.986907958984375	10.376469995117187	-0.09217676391601562	-0.5704185455322265	3.814697265625	-4.638671875	-2.23541259765625	
278	1.112	0.0	0.0	0.0	0.0	4.569	4.6080000000000005	4.614	4.554	9.675567459106444	-0.003591302490234375	0.31064766540527344	1.964569091796875	-3.173828125	-0.9307861328125	9.628880526733397	0.6643909606933593	0.258573779296875	0.858306884765625	-5.084991455078125	-2.93731689453125	9.938929641723632	0.4686649749755859	-0.1274912384033203	3.704071044921875	-4.817962646484375	-2.26593017578125	
279	1.116	0.0	0.0	0.0	0.0	4.5600000000000005	4.617	4.617	4.554	9.780912332153319	0.12449848632812499	0.17597382202148437	-0.698089599609375	-1.644134521484375	-0.86212158203125	9.773729727172851	0.5237316131591797	0.10953472595214843	1.262664794921875	-4.93621826171875	-3.39508056640625	10.057442623901366	0.17896657409667968	-0.2472013214111328	3.528594970703125	-4.73785400390625	-1.71661376953125	
280	1.12	0.0	0.0	0.0	0.0	4.554	4.611	4.614	4.566	9.674370358276366	0.0987608184814453	0.3016694091796875	3.0670166015625	-4.070281982421875	-0.888824462890625	9.695319622802733	0.642244595336914	0.23104046020507812	0.69427490234375	-5.0506591796875	-2.933502197265625	10.165780249023436	0.3280056274414062	-0.26815058593749996	3.42559814453125	-4.7760009765625	-2.017974853515625	
281	1.124	0.0	0.0	0.0	0.0	4.551	4.614	4.6080000000000005	0.003	9.827000714111328	-0.055066638183593745	0.0939724151611328	-1.36566162109375	-1.38092041015625	-0.949859619140625	9.892841259765625	0.4070142822265625	-0.06284779357910156	1.323699951171875	-5.10406494140625	-3.53240966796875	10.134655627441406	0.12389993591308593	-0.3220201232910156	3.4942626953125	-4.665374755859375	-1.918792724609375	
282	1.1280000000000001	0.0	0.0	0.0	0.0	0.003	0.003	0.003	0.006	9.821015209960937	0.08798691101074219	0.08858546142578125	0.244140625	-2.01416015625	-1.06048583984375	9.630676177978515	0.6715735656738281	0.2609679809570312	0.690460205078125	-5.04302978515625	-3.269195556640625	9.988609326171874	0.239420166015625	0.1292868896484375	3.726959228515625	-4.543304443359375	-2.7313232421875	
283	1.1320000000000001	0.0	0.0	0.0	0.0	0.006	0.003	0.003	0.006	9.79946739501953	-0.031124621582031248	0.12389993591308593	-1.262664794921875	-1.28936767578125	-0.621795654296875	9.866505041503906	0.4375403533935547	0.006584054565429687	1.129150390625	-5.199432373046875	-3.3721923828125	10.199299072265624	0.1388636962890625	-0.4836287353515625	3.314971923828125	-4.810333251953125	-1.74713134765625	
284	1.1360000000000001	0.0	0.0	0.0	0.0	0.003	0.006	0.006	0.006	9.96047745666504	-0.028730419921875	-0.1657984649658203	0.14495849609375	-2.06756591796875	-1.18255615234375	9.848548529052733	0.48123453369140623	0.03591302490234375	0.8697509765625	-4.913330078125	-3.192901611328125	9.897031112670899	0.1083376251220703	-0.0526724365234375	3.662109375	-4.398345947265625	-2.712249755859375	
285	1.1400000000000001	0.0	0.0	0.0	0.0	0.009000000000000001	0.006	0.006	0.006	9.763554370117188	0.12509703674316405	0.1292868896484375	-1.621246337890625	-1.399993896484375	-1.010894775390625	9.78629928588867	0.604535919189453	-0.04967968444824218	0.843048095703125	-5.10406494140625	-3.032684326171875	10.087968695068358	0.32620997619628905	-0.7553706237792969	3.261566162109375	-4.82940673828125	-1.949310302734375	
286	1.1440000000000001	0.0	0.0	0.0	0.0	0.003	0.006	0.003	0.006	9.836577520751952	0.14245499877929688	0.020949264526367185	0.29754638671875	-2.49481201171875	-0.91552734375	9.773131176757811	0.51714755859375	-0.03651157531738281	0.640869140625	-4.7760009765625	-3.12042236328125	9.818022457885741	0.16519991455078123	-0.22266075439453123	3.475189208984375	-4.55474853515625	-2.033233642578125	
287	1.1480000000000001	0.0	0.0	0.0	0.0	0.006	0.003	0.003	0.003	10.062829577636718	0.2645592834472656	-0.469263525390625	3.215789794921875	-4.17327880859375	-1.09100341796875	9.843760125732421	0.38247371520996093	-0.105344873046875	0.8392333984375	-5.023956298828125	-2.9754638671875	9.93354268798828	0.20769699401855468	-0.24181436767578124	3.7384033203125	-4.98199462890625	-2.44140625	
288	1.1520000000000001	0.0	0.0	0.0	0.0	0.003	0.003	0.006	0.003	9.89583401184082	0.10654197387695312	-0.14185644836425781	0.9765625	-2.63214111328125	-0.957489013671875	9.735422500610351	0.5620388397216797	0.09816226806640624	1.18255615234375	-4.924774169921875	-3.2501220703125	9.80006594543457	0.20709844360351562	-0.2346317626953125	3.448486328125	-4.3792724609375	-2.2735595703125	
289	1.156	0.0	0.0	0.0	0.0	0.003	0.003	0.003	0.003	9.9215716796875	0.546476528930664	-0.29388825378417965	5.04302978515625	-5.3558349609375	-0.89263916015625	9.654618194580078	0.40462008056640625	0.028131869506835935	0.591278076171875	-4.894256591796875	-2.658843994140625	9.7683427734375	0.2376245147705078	-0.24600422058105467	3.23486328125	-4.486083984375	-2.25830078125	
290	1.16	0.0	0.0	0.0	0.0	0.003	0.003	0.003	0.003	9.874286196899414	0.19991583862304688	-0.2693476867675781	6.725311279296875	-6.465911865234375	-0.6561279296875	9.82460651245117	0.44113165588378905	-0.1083376251220703	0.934600830078125	-4.825592041015625	-3.017425537109375	10.011952792358398	0.18614917907714842	-0.35314474487304687	3.665924072265625	-4.383087158203125	-2.0904541015625	
291	1.164	0.0	0.0	0.0	0.0	0.003	0.003	0.003	0.006	10.037690460205077	0.5303156677246094	-0.35194764404296874	6.2408447265625	-6.122589111328125	-0.804901123046875	9.787496386718749	0.2507926239013672	-0.09038111267089843	0.530242919921875	-4.955291748046875	-2.826690673828125	9.878476049804688	0.07062894897460938	-0.35314474487304687	3.51715087890625	-4.573822021484375	-2.147674560546875	
292	1.168	0.0	0.0	0.0	0.0	0.006	0.003	0.003	0.003	10.019733947753906	0.037708676147460936	-0.3699041564941406	6.107330322265625	-6.214141845703125	-0.91552734375	9.720458740234374	0.6266822845458984	-0.13646949462890623	0.782012939453125	-4.962921142578125	-2.750396728515625	9.919776028442381	0.33399113159179683	-0.35673604736328124	3.475189208984375	-4.314422607421875	-1.979827880859375	
293	1.172	0.0	0.0	0.0	0.0	0.0	0.006	0.006	0.0	10.038887561035155	0.34835634155273437	-0.3950432739257812	6.999969482421875	-6.740570068359375	-0.61798095703125	9.726444244384766	0.28790274963378903	0.05686228942871093	1.04522705078125	-5.245208740234375	-2.84576416015625	10.051457119750976	0.05985504150390625	-0.2902969512939453	3.513336181640625	-4.43267822265625	-1.91497802734375	
294	1.176	0.0	0.0	0.0	0.0	0.003	0.003	0.003	0.006	9.99160207824707	0.00239420166015625	-0.25917232971191406	6.381988525390625	-6.317138671875	-0.766754150390625	9.80605144958496	0.4836287353515625	-0.06943184814453125	1.125335693359375	-4.947662353515625	-2.76947021484375	10.096348400878906	0.2705447875976562	-0.38845921936035155	3.4942626953125	-4.322052001953125	-1.983642578125	
295	1.18	0.0	0.0	0.0	0.0	0.006	0.003	0.003	0.009000000000000001	9.720458740234374	-0.2962824554443359	0.3321954803466797	2.490997314453125	-3.6773681640625	-1.02996826171875	9.734823950195311	0.37708676147460934	0.05386953735351562	1.239776611328125	-5.016326904296875	-3.337860107421875	10.101136804199218	-0.006584054565429687	-0.2819172454833984	3.56292724609375	-4.5623779296875	-2.162933349609375	
296	1.184	0.0	0.0	0.0	0.0	0.003	0.003	0.003	0.003	9.795277542114258	-0.07362170104980469	0.1131260284423828	5.2490234375	-5.420684814453125	-0.87738037109375	9.832986218261718	0.7009025360107421	0.025139117431640625	1.60980224609375	-4.863739013671875	-3.0517578125	9.975441217041014	0.3333925811767578	-0.24001871643066405	3.53240966796875	-4.5928955078125	-2.216339111328125	
297	1.188	0.0	0.0	0.0	0.0	0.003	0.006	0.003	0.006	9.756371765136718	-0.31483751831054685	0.37828386230468747	0.911712646484375	-2.7008056640625	-0.762939453125	9.805452899169921	0.39803602600097654	0.15203180541992187	1.068115234375	-4.863739013671875	-3.13568115234375	10.164583148193358	-0.003591302490234375	-0.21248539733886718	3.47900390625	-4.43267822265625	-2.025604248046875	
298	1.192	0.0	0.0	0.0	0.0	0.003	0.003	0.003	0.006	9.83897172241211	-0.09457096557617187	0.15083470458984374	3.30352783203125	-4.21905517578125	-0.843048095703125	9.925162982177733	0.49679684448242184	0.013766659545898436	1.331329345703125	-4.78363037109375	-2.99072265625	10.280701928710936	0.13587094421386717	-0.6464344482421874	3.543853759765625	-4.398345947265625	-2.483367919921875	
299	1.196	0.0	0.0	0.0	0.0	0.003	0.006	0.003	0.006	9.744999307250977	-0.09756371765136718	0.3393780853271484	1.190185546875	-2.429962158203125	-0.911712646484375	9.610325463867188	0.5129577056884765	0.35314474487304687	0.2288818359375	-4.8675537109375	-2.92205810546875	10.003573086547851	0.08140285644531249	-0.16819266662597654	3.45611572265625	-4.75311279296875	-2.025604248046875	
300	1.2	0.0	0.0	0.0	0.0	0.003	0.003	0.003	0.009000000000000001	9.891644158935547	-0.0526724365234375	-0.03591302490234375	-0.499725341796875	-1.86920166015625	-1.087188720703125	9.97903251953125	0.4052186309814453	-0.03411737365722656	0.93841552734375	-4.8828125	-2.666473388671875	10.267533819580077	0.14484920043945312	-0.5614402893066406	3.513336181640625	-4.638671875	-2.361297607421875	
301	1.204	0.0	0.0	0.0	0.0	0.009000000000000001	0.003	0.003	0.003	9.815029705810547	-0.105344873046875	0.34177228698730466	3.10516357421875	-3.80706787109375	-0.67901611328125	9.658808047485351	0.5452794281005859	0.40462008056640625	0.469207763671875	-4.947662353515625	-2.93731689453125	10.129867224121092	0.3094505645751953	-0.16280571289062498	3.612518310546875	-4.634857177734375	-1.911163330078125	
302	1.208	0.0	0.0	0.0	0.0	0.003	0.006	0.006	0.003	9.798270294189452	0.09038111267089843	0.18555062866210936	-0.080108642578125	-1.926422119140625	-0.6866455078125	9.843760125732421	0.5093664031982421	0.06643909606933593	1.6937255859375	-4.848480224609375	-3.292083740234375	10.188525164794921	0.12868833923339842	-0.43035774841308594	3.528594970703125	-4.085540771484375	-2.254486083984375	
303	1.212	0.0	0.0	0.0	0.0	0.003	0.003	0.006	0.0	9.673771807861328	0.1849520782470703	0.46806642456054687	0.545501708984375	-2.384185791015625	-1.39617919921875	9.624690673828125	0.4842272857666015	0.5243301635742187	0.667572021484375	-5.13458251953125	-2.658843994140625	9.988609326171874	0.4327519500732422	-0.07841010437011718	3.414154052734375	-4.57000732421875	-1.8768310546875	
304	1.216	0.0	0.0	0.0	0.0	0.006	0.003	0.006	0.003	9.791686239624022	0.09277531433105468	0.32920272827148434	0.431060791015625	-2.08282470703125	-0.9613037109375	9.967660061645507	0.49859249572753905	0.08080430603027343	1.087188720703125	-4.947662353515625	-3.215789794921875	10.184933862304687	-0.04369418029785156	-0.28730419921875	3.36456298828125	-4.73785400390625	-1.8768310546875	
305	1.22	0.0	0.0	0.0	0.0	0.009000000000000001	0.003	0.003	0.006	9.911994873046874	-0.09157821350097656	0.09756371765136718	-0.682830810546875	-1.54876708984375	-1.354217529296875	9.598953005981445	0.5153519073486328	0.5051765502929687	0.682830810546875	-5.092620849609375	-3.10516357421875	10.00417163696289	0.41060558471679687	-0.028730419921875	3.387451171875	-4.695892333984375	-1.953125	
306	1.224	0.0	0.0	0.0	0.0	0.009000000000000001	0.003	0.006	4.1850000000000005	9.785700735473633	0.06643909606933593	0.3226186737060547	-1.22833251953125	-1.239776611328125	-1.2969970703125	9.877877499389648	0.5979518646240234	0.17357962036132812	1.010894775390625	-4.67681884765625	-2.99835205078125	10.061033926391602	0.08379705810546874	-0.19871873779296872	3.4942626953125	-4.82940673828125	-2.017974853515625	
