	time	dac1	dac2	dac3	dac4	adc1.3	adc2.3	adc3.3	adc4.3	imu1accx	imu1accy	imu1accz	imu1gyrox	imu1gyroy	imu1gyroz	imu2accx	imu2accy	imu2accz	imu2gyrox	imu2gyroy	imu2gyroz	imu3accx	imu3accy	imu3accz	imu3gyrox	imu3gyroy	imu3gyroz	log
0	0.0	0.0	0.0	0.0	0.0	0.006	0.006	0.003	0.003	9.87727894897461	0.20470424194335937	-0.006584054565429687	2.384185791015625	-3.77655029296875	-1.007080078125	9.785102185058593	-0.020949264526367185	0.15083470458984374	0.576019287109375	-5.146026611328125	-2.99835205078125	9.975441217041014	0.6362590911865234	-0.21128829650878905	2.803802490234375	-4.44793701171875	-1.895904541015625	Estabizou em 3s, 518 rpm
1	0.004	0.0	0.0	0.0	0.0	0.0	0.003	0.003	0.003	9.868899243164062	0.20769699401855468	0.006584054565429687	2.429962158203125	-3.726959228515625	-0.843048095703125	9.785102185058593	-0.011971008300781249	0.14125789794921875	0.7171630859375	-4.909515380859375	-3.116607666015625	9.96586441040039	0.6356605407714844	-0.20949264526367187	2.712249755859375	-4.608154296875	-1.850128173828125	Started
2	0.008	0.0	0.0	0.0	0.0	0.009000000000000001	0.006	0.006	0.006	9.859322436523437	0.22445640563964842	-0.0053869537353515625	2.5482177734375	-4.108428955078125	-1.125335693359375	9.792284790039062	-0.005985504150390624	0.14784195251464843	0.576019287109375	-5.130767822265625	-3.055572509765625	9.967061511230469	0.6404489440917969	-0.2041056915283203	2.67791748046875	-4.57000732421875	-1.70135498046875	IMU1|LSM6DS3|0x6A|I2C-1|±2g (±19,6m/s²)|±125º/s|400Hz
3	0.012	0.0	0.0	0.0	0.0	0.003	0.006	0.003	0.006	9.86291373901367	0.2346317626953125	-0.013766659545898436	2.46429443359375	-3.65447998046875	-0.812530517578125	9.783905084228515	0.014963760375976562	0.16280571289062498	0.614166259765625	-4.833221435546875	-3.017425537109375	9.964068759155273	0.6548141540527344	-0.20470424194335937	2.574920654296875	-4.2724609375	-1.827239990234375	IMU2|LSM6DS3|0x6B|I2C-1|±2g (±19,6m/s²)|±125º/s|400Hz
4	0.016	0.0	0.0	0.0	0.0	0.006	0.003	0.003	0.006	9.871891995239258	0.2454056701660156	-0.003591302490234375	2.6397705078125	-3.665924072265625	-0.81634521484375	9.78629928588867	0.027533319091796873	0.15382745666503905	0.522613525390625	-5.016326904296875	-3.04412841796875	9.958083255004881	0.6727706665039062	-0.18076222534179687	2.6702880859375	-4.547119140625	-2.0904541015625	IMU3|LSM6DS3|0x6B|I2C-2|±2g (±19,6m/s²)|±125º/s|400Hz
5	0.02	0.0	0.0	0.0	0.0	0.003	0.003	0.003	0.003	9.87009634399414	0.25318682556152344	0.008379705810546874	2.51007080078125	-3.68499755859375	-0.759124755859375	9.784503634643555	0.030526071166992186	0.17298106994628906	0.579833984375	-5.0048828125	-2.948760986328125	9.958083255004881	0.6841431243896484	-0.17956512451171874	2.532958984375	-4.66156005859375	-1.934051513671875	ADC|ADS1015|0|0|1|0|±6,144 V|2400 SPS
6	0.024	0.0	0.0	0.0	0.0	0.003	0.006	0.003	0.006	9.864709390258788	0.2603694305419922	-0.002992752075195312	2.5634765625	-4.00543212890625	-0.888824462890625	9.78629928588867	0.03890577697753906	0.17178396911621094	0.606536865234375	-5.0506591796875	-2.8839111328125	9.958083255004881	0.6985083343505859	-0.18076222534179687	2.92205810546875	-4.79888916015625	-1.96075439453125	Gen1|Disabled
7	0.028	0.0	0.0	0.0	0.0	0.006	0.006	0.006	0.003	9.868300692749022	0.2645592834472656	0.015562310791015624	2.63214111328125	-3.5858154296875	-0.79345703125	9.785700735473633	0.055066638183593745	0.16160861206054686	0.61798095703125	-4.917144775390625	-2.90679931640625	9.967061511230469	0.7032967376708984	-0.17956512451171874	2.773284912109375	-4.581451416015625	-1.89971923828125	Gen2|Enabled|Noise|0.0|10.0|1668
8	0.032	0.0	0.0	0.0	0.0	0.003	0.003	0.006	0.006	9.8694977935791	0.2885013000488281	0.027533319091796873	2.4871826171875	-3.90625	-0.701904296875	9.788693487548828	0.06464344482421874	0.17178396911621094	0.66375732421875	-5.062103271484375	-2.964019775390625	9.95987890625	0.7140706451416016	-0.17058686828613281	2.87628173828125	-4.596710205078125	-1.827239990234375	Gen3|Enabled|Noise|0.0|10.0|128
9	0.036000000000000004	0.0	0.0	0.0	0.0	0.006	0.006	0.003	0.003	9.87009634399414	0.29269115295410153	0.017357962036132813	2.437591552734375	-3.513336181640625	-0.78582763671875	9.784503634643555	0.06464344482421874	0.1657984649658203	0.51116943359375	-4.90570068359375	-2.902984619140625	9.964667309570311	0.7152677459716796	-0.16998831787109375	2.819061279296875	-4.73785400390625	-2.09808349609375	Gen4|Enabled|Noise|0.0|10.0|128
10	0.04	0.0	0.0	0.0	0.0	0.009000000000000001	0.003	0.003	0.003	9.861716638183593	0.29388825378417965	0.02154781494140625	2.5482177734375	-3.7078857421875	-0.63323974609375	9.78629928588867	0.07841010437011718	0.18076222534179687	0.57220458984375	-4.871368408203125	-2.79998779296875	9.963470208740233	0.7152677459716796	-0.18435352783203124	2.742767333984375	-4.791259765625	-1.796722412109375	Ctrl|Disabled
11	0.044	0.0	0.0	0.0	0.0	0.003	0.003	0.003	0.006	9.865307940673828	0.3022679595947265	0.03591302490234375	2.685546875	-4.055023193359375	-0.774383544921875	9.785102185058593	0.08918401184082031	0.17417817077636719	0.431060791015625	-4.695892333984375	-2.971649169921875	9.956287603759765	0.7230489013671875	-0.17776947326660156	2.643585205078125	-4.8675537109375	-1.8768310546875	
12	0.048	0.0	0.0	0.0	0.0	0.003	0.006	0.006	0.006	9.865307940673828	0.27832594299316404	0.04249707946777344	2.3345947265625	-3.704071044921875	-0.720977783203125	9.779715231323241	0.06344634399414062	0.18555062866210936	0.37384033203125	-5.062103271484375	-3.108978271484375	9.943119494628906	0.7009025360107421	-0.1484405029296875	2.64739990234375	-4.825592041015625	-1.804351806640625	
13	0.052000000000000005	0.0	0.0	0.0	0.0	0.003	0.006	0.006	0.006	9.87727894897461	0.3124433166503906	0.03411737365722656	2.437591552734375	-3.864288330078125	-0.762939453125	9.78629928588867	0.12449848632812499	0.17956512451171874	0.457763671875	-4.8675537109375	-2.9449462890625	9.973645565795898	0.7697358337402344	-0.17657237243652343	2.696990966796875	-4.680633544921875	-1.987457275390625	
14	0.056	0.0	0.0	0.0	0.0	0.006	0.003	0.003	0.003	9.858723886108399	0.23822306518554687	0.06045359191894531	2.254486083984375	-3.60107421875	-0.682830810546875	9.78031378173828	0.062249243164062495	0.19871873779296872	0.66375732421875	-5.046844482421875	-3.02886962890625	9.955090502929687	0.7266402038574218	-0.1657984649658203	2.593994140625	-4.67681884765625	-1.773834228515625	
15	0.06	0.0	0.0	0.0	0.0	0.006	0.006	0.006	0.006	9.87608184814453	0.25258827514648435	0.051475335693359374	2.40325927734375	-3.6163330078125	-0.7781982421875	9.805452899169921	0.0652419952392578	0.19033903198242186	0.720977783203125	-5.04302978515625	-3.082275390625	9.993397729492187	0.7158662963867187	-0.16639701538085935	2.826690673828125	-4.688262939453125	-1.972198486328125	
16	0.064	0.0	0.0	0.0	0.0	0.006	0.003	0.006	0.003	9.86411083984375	0.24181436767578124	0.05686228942871093	2.26593017578125	-4.0435791015625	-0.743865966796875	9.791087689208984	0.10235212097167969	0.21068974609375	0.576019287109375	-4.947662353515625	-3.108978271484375	9.958681805419921	0.7864952453613281	-0.14724340209960937	2.777099609375	-4.650115966796875	-1.758575439453125	
17	0.068	0.0	0.0	0.0	0.0	0.006	0.006	0.006	0.003	9.883264453125	0.2232593048095703	0.044292730712890624	2.223968505859375	-3.662109375	-0.644683837890625	9.804854348754882	-0.001197100830078125	0.18076222534179687	0.72479248046875	-4.94384765625	-3.0670166015625	9.9981861328125	0.5985504150390625	-0.19572598571777342	2.5634765625	-4.49371337890625	-2.002716064453125	
18	0.07200000000000001	0.0	0.0	0.0	0.0	0.003	0.006	0.006	0.006	9.868899243164062	0.22565350646972654	0.08918401184082031	2.651214599609375	-3.833770751953125	-0.888824462890625	9.753977563476562	0.11252747802734374	0.2699462371826172	0.457763671875	-5.077362060546875	-2.8076171875	9.950302099609374	0.7631517791748046	-0.13587094421386717	2.73895263671875	-4.60052490234375	-1.53350830078125	
19	0.076	0.0	0.0	0.0	0.0	0.003	0.003	0.006	0.003	9.886855755615233	0.20769699401855468	0.027533319091796873	2.155303955078125	-3.5858154296875	-0.812530517578125	9.815029705810547	0.0053869537353515625	0.17058686828613281	0.331878662109375	-5.062103271484375	-3.093719482421875	10.01733974609375	0.6147112762451171	-0.22086510314941404	2.57110595703125	-4.5928955078125	-2.14385986328125	
20	0.08	0.0	0.0	0.0	0.0	0.003	0.003	0.006	0.006	9.841964474487304	0.35194764404296874	0.1083376251220703	2.62451171875	-3.814697265625	-0.6866455078125	9.734823950195311	0.10354922180175781	0.2920926025390625	0.66375732421875	-4.82940673828125	-3.15093994140625	9.952696301269532	0.7236474517822266	-0.13646949462890623	2.716064453125	-4.642486572265625	-1.949310302734375	
21	0.084	0.0	0.0	0.0	0.0	0.003	0.003	0.006	0.0	9.888651406860351	0.15263035583496093	0.03890577697753906	2.002716064453125	-3.627777099609375	-0.58746337890625	9.834183319091796	-0.11192892761230468	0.17178396911621094	0.644683837890625	-4.791259765625	-2.99072265625	10.036493359375	0.526125814819336	-0.23523031311035156	2.773284912109375	-4.35638427734375	-1.9378662109375	
22	0.088	0.0	0.0	0.0	0.0	0.003	0.006	0.006	0.006	9.859322436523437	0.3555389465332031	0.09157821350097656	2.620697021484375	-3.814697265625	-0.70953369140625	9.737816702270507	0.1274912384033203	0.29448680419921874	0.553131103515625	-5.035400390625	-2.8533935546875	9.930549935913085	0.7870937957763672	-0.10953472595214843	2.51007080078125	-4.66156005859375	-1.89971923828125	
23	0.092	0.0	0.0	0.0	0.0	0.006	0.003	0.003	0.003	9.900622415161132	0.20530279235839843	0.0430956298828125	2.620697021484375	-3.810882568359375	-0.8697509765625	9.828197814941406	-0.1562216583251953	0.1610100616455078	0.232696533203125	-4.974365234375	-2.902984619140625	10.05564697265625	0.4800374328613281	-0.258573779296875	2.75421142578125	-4.619598388671875	-2.01416015625	
24	0.096	0.0	0.0	0.0	0.0	0.003	0.006	0.006	0.006	9.85752678527832	0.3172317199707031	0.08200140686035155	2.552032470703125	-3.5400390625	-0.63323974609375	9.770736975097655	0.05686228942871093	0.20649989318847656	0.919342041015625	-5.031585693359375	-2.9449462890625	9.923965881347655	0.7505822204589844	-0.09756371765136718	2.620697021484375	-4.49371337890625	-1.67083740234375	
25	0.1	0.0	0.0	0.0	0.0	0.006	0.003	0.006	0.003	9.89523546142578	0.20709844360351562	0.029927520751953124	2.635955810546875	-3.955841064453125	-0.858306884765625	9.852738381958007	-0.1580173095703125	0.12150573425292968	0.55694580078125	-5.16510009765625	-3.021240234375	9.983222372436522	0.5249287139892578	-0.14724340209960937	2.590179443359375	-4.66156005859375	-1.70135498046875	
26	0.10400000000000001	0.0	0.0	0.0	0.0	0.003	0.006	0.006	0.006	9.860519537353515	0.3130418670654297	0.07841010437011718	2.72369384765625	-3.902435302734375	-0.8697509765625	9.764152920532226	0.044891281127929686	0.20350714111328125	0.743865966796875	-5.33294677734375	-3.07464599609375	9.91558617553711	0.7350199096679687	-0.11372457885742186	2.83050537109375	-4.6234130859375	-2.0294189453125	
27	0.108	0.0	0.0	0.0	0.0	0.003	0.003	0.003	0.003	9.891644158935547	0.18076222534179687	0.022744915771484374	3.05938720703125	-4.207611083984375	-0.74005126953125	9.85752678527832	-0.20171148986816406	0.10115502014160156	0.324249267578125	-5.05828857421875	-3.0059814453125	9.973047015380859	0.4608838195800781	-0.16639701538085935	2.719879150390625	-4.787445068359375	-1.873016357421875	
28	0.112	0.0	0.0	0.0	0.0	0.003	0.003	0.006	0.006	9.86291373901367	0.21727380065917967	-0.05327098693847656	2.719879150390625	-4.047393798828125	-1.18255615234375	9.760561618041992	0.06464344482421874	0.1867477294921875	0.965118408203125	-4.87518310546875	-2.84576416015625	9.892841259765625	0.6482300994873047	-0.08678981018066406	2.704620361328125	-4.66156005859375	-2.254486083984375	
29	0.116	0.0	0.0	0.0	0.0	0.006	0.006	0.003	0.006	9.896432562255859	0.18255787658691405	0.00718260498046875	2.658843994140625	-3.97491455078125	-0.766754150390625	9.762955819702148	-0.12030863342285156	0.16819266662597654	0.48828125	-5.168914794921875	-2.796173095703125	9.96047745666504	0.4471171600341797	-0.16699556579589842	2.727508544921875	-4.87518310546875	-1.93023681640625	
30	0.12	0.0	0.0	0.0	0.0	0.006	0.003	0.006	0.003	9.865307940673828	0.19692308654785154	-0.06823474731445311	2.826690673828125	-3.963470458984375	-1.003265380859375	9.759963067626952	0.05746083984375	0.1927332336425781	0.606536865234375	-4.917144775390625	-3.07464599609375	9.867702142333984	0.5985504150390625	-0.0796072052001953	2.43377685546875	-4.505157470703125	-2.208709716796875	
31	0.124	0.0	0.0	0.0	0.0	0.003	0.003	0.006	0.003	9.889848507690429	0.21428104858398436	0.001197100830078125	2.758026123046875	-4.871368408203125	-0.850677490234375	9.758765966796874	-0.09816226806640624	0.16220716247558592	0.453948974609375	-5.08880615234375	-2.8533935546875	9.95389340209961	0.45669396667480466	-0.16998831787109375	2.55584716796875	-4.718780517578125	-1.712799072265625	
32	0.128	0.0	0.0	0.0	0.0	0.003	0.003	0.003	0.006	9.85632968444824	0.18255787658691405	-0.076614453125	2.712249755859375	-3.841400146484375	-1.018524169921875	9.752780462646484	-0.04668693237304687	0.1352723937988281	0.682830810546875	-4.913330078125	-3.337860107421875	9.875483297729492	0.6021417175292968	-0.09756371765136718	2.704620361328125	-4.749298095703125	-2.2735595703125	
33	0.132	0.0	0.0	0.0	0.0	0.006	0.003	0.006	0.006	9.871891995239258	0.12988544006347655	-0.09756371765136718	2.483367919921875	-3.90625	-0.743865966796875	9.751583361816406	-0.11611878051757812	0.17058686828613281	0.553131103515625	-5.146026611328125	-2.8839111328125	9.860519537353515	0.5883750579833984	-0.09696516723632811	2.5787353515625	-4.611968994140625	-1.68609619140625	
34	0.136	0.0	0.0	0.0	0.0	0.003	0.006	0.006	0.003	9.855731134033203	0.181959326171875	-0.07601590270996093	2.52532958984375	-3.7841796875	-1.049041748046875	9.740809454345703	-0.01915361328125	0.12210428466796874	0.415802001953125	-4.917144775390625	-3.2806396484375	9.864709390258788	0.6165069274902344	-0.08978256225585937	2.552032470703125	-4.82177734375	-2.315521240234375	
35	0.14	0.0	0.0	0.0	0.0	0.003	0.003	0.006	0.003	9.891045608520507	0.11552023010253906	-0.09816226806640624	2.471923828125	-3.772735595703125	-0.5645751953125	9.734225399780273	0.0430956298828125	0.12689268798828124	0.659942626953125	-4.871368408203125	-2.89154052734375	9.860519537353515	0.6027402679443359	-0.09516951599121093	2.655029296875	-4.75311279296875	-1.94549560546875	
36	0.14400000000000002	0.0	0.0	0.0	0.0	0.006	0.006	0.006	0.003	9.891644158935547	0.05746083984375	0.015562310791015624	2.72369384765625	-4.00543212890625	-0.865936279296875	9.727641345214844	-0.028131869506835935	0.12988544006347655	0.48828125	-4.848480224609375	-3.490447998046875	10.065822329711914	0.4878185882568359	-0.2693476867675781	2.63214111328125	-4.505157470703125	-1.94549560546875	
37	0.148	0.0	0.0	0.0	0.0	0.003	0.006	0.003	0.003	9.885060104370117	0.1149216796875	-0.12210428466796874	2.155303955078125	-3.4942626953125	-0.858306884765625	9.725247143554688	0.08858546142578125	0.1304839904785156	0.553131103515625	-5.359649658203125	-3.04412841796875	9.861716638183593	0.6584054565429687	-0.076614453125	2.574920654296875	-4.604339599609375	-1.8310546875	
38	0.152	0.0	0.0	0.0	0.0	0.003	0.006	0.006	0.003	9.910797772216796	0.07242460021972656	0.012569558715820313	2.742767333984375	-3.74603271484375	-0.995635986328125	9.872490545654296	-0.16160861206054686	0.047884033203124995	0.6866455078125	-4.932403564453125	-2.960205078125	10.059238275146484	0.5129577056884765	-0.27952304382324217	2.75421142578125	-4.497528076171875	-1.979827880859375	
39	0.156	0.0	0.0	0.0	0.0	0.003	0.003	0.003	0.003	9.899425314331054	0.08798691101074219	-0.12689268798828124	2.101898193359375	-3.543853759765625	-0.667572021484375	9.712079034423828	0.07302315063476562	0.14425065002441406	0.667572021484375	-5.008697509765625	-2.96783447265625	9.999383233642577	0.8481459381103515	-0.27952304382324217	2.86102294921875	-4.52423095703125	-1.617431640625	
40	0.16	0.0	0.0	0.0	0.0	0.003	0.006	0.006	0.003	9.916184725952148	0.09217676391601562	-0.010773907470703125	3.131866455078125	-4.150390625	-0.926971435546875	9.868899243164062	-0.1274912384033203	0.06105214233398437	0.7781982421875	-4.8675537109375	-3.093719482421875	10.077793338012695	0.5476736297607422	-0.2765302917480469	2.777099609375	-4.467010498046875	-1.903533935546875	
41	0.164	0.0	0.0	0.0	0.0	0.009000000000000001	0.006	0.006	0.006	9.78629928588867	0.3716998077392578	0.2328361114501953	2.735137939453125	-3.88336181640625	-0.518798828125	9.7683427734375	0.16699556579589842	0.3064578125	0.49591064453125	-4.98199462890625	-2.765655517578125	9.998784683227539	0.9205705383300781	-0.26336218261718747	2.735137939453125	-4.63104248046875	-1.537322998046875	
42	0.168	0.0	0.0	0.0	0.0	0.0	0.003	0.006	0.003	9.923965881347655	0.08140285644531249	-0.008379705810546874	3.34930419921875	-4.26483154296875	-0.888824462890625	9.894038360595703	-0.17657237243652343	0.05566518859863281	0.766754150390625	-5.184173583984375	-3.154754638671875	10.08737014465332	0.5069722015380859	-0.2861070983886719	2.674102783203125	-4.596710205078125	-1.8768310546875	
43	0.17200000000000001	0.0	0.0	0.0	0.0	0.003	0.003	0.003	0.003	9.765948571777344	0.411802685546875	0.2567781280517578	2.704620361328125	-3.91387939453125	-0.51116943359375	9.779116680908203	0.18375497741699218	0.31962592163085934	0.58746337890625	-5.08880615234375	-2.90679931640625	9.9981861328125	0.9708487731933593	-0.26874913635253905	3.063201904296875	-4.64630126953125	-1.67083740234375	
44	0.176	0.0	0.0	0.0	0.0	0.009000000000000001	0.006	0.006	0.003	9.920973129272461	0.1227028350830078	-0.020949264526367185	3.559112548828125	-4.383087158203125	-1.018524169921875	9.947907897949218	-0.18435352783203124	0.05087678527832031	0.820159912109375	-4.98199462890625	-2.849578857421875	10.190919366455077	0.517746109008789	-0.4578910675048828	2.76947021484375	-4.665374755859375	-1.93023681640625	
45	0.18	0.0	0.0	0.0	0.0	0.0	0.003	0.003	0.003	9.74200655517578	0.4285620971679687	0.26336218261718747	2.826690673828125	-3.9215087890625	-0.67901611328125	9.79348189086914	0.14963760375976562	0.3315969299316406	0.26702880859375	-5.069732666015625	-2.765655517578125	9.995791931152343	0.9409212524414062	-0.27293898925781246	2.90679931640625	-4.98199462890625	-1.74713134765625	
46	0.184	0.0	0.0	0.0	0.0	0.003	0.006	0.006	0.006	9.910199221801758	0.0987608184814453	0.011372457885742187	1.5106201171875	-3.170013427734375	-0.38909912109375	9.986215124511718	-0.18136077575683593	0.034715924072265626	0.6866455078125	-4.993438720703125	-2.7923583984375	10.224438189697265	0.5267243652343749	-0.48722003784179685	2.86102294921875	-4.825592041015625	-2.14385986328125	
47	0.188	0.0	0.0	0.0	0.0	0.003	0.003	0.003	0.003	9.739612353515625	0.47884033203125	0.28371289672851563	2.8839111328125	-3.7078857421875	-0.713348388671875	9.809642752075195	0.23343466186523437	0.3950432739257812	0.682830810546875	-4.84466552734375	-2.93731689453125	9.884461553955077	1.045069024658203	-0.03950432739257812	2.796173095703125	-4.5928955078125	-2.044677734375	
48	0.192	0.0	0.0	0.0	0.0	0.006	0.006	0.003	0.009000000000000001	9.896432562255859	0.09277531433105468	0.0430956298828125	1.46484375	-3.101348876953125	-0.54168701171875	9.98501802368164	-0.24600422058105467	0.040102877807617184	0.79345703125	-5.02777099609375	-2.93731689453125	10.223241088867187	0.4560954162597656	-0.4878185882568359	3.0059814453125	-4.53948974609375	-1.857757568359375	
49	0.196	0.0	0.0	0.0	0.0	0.003	0.003	0.006	0.006	9.697115274047851	0.4997895965576172	0.0005985504150390625	2.056121826171875	-3.681182861328125	-1.0223388671875	9.737218151855469	0.258573779296875	0.2442085693359375	0.57220458984375	-5.0506591796875	-3.170013427734375	9.891644158935547	1.0283096130371092	-0.051475335693359374	2.376556396484375	-4.67681884765625	-2.101898193359375	
50	0.2	0.0	0.0	0.0	0.0	0.006	0.006	0.003	0.003	9.903016616821288	0.17776947326660156	0.037110125732421874	1.36566162109375	-2.98309326171875	-0.5340576171875	9.998784683227539	-0.16160861206054686	0.059256491088867186	0.31280517578125	-4.81414794921875	-2.86865234375	9.94730934753418	0.5907692596435546	-0.13946224670410157	2.50244140625	-4.573822021484375	-1.880645751953125	
51	0.20400000000000001	0.0	0.0	0.0	0.0	0.003	0.003	0.003	0.003	9.842563024902343	0.4914098907470703	0.025139117431640625	2.368927001953125	-3.7078857421875	-1.21307373046875	9.725247143554688	0.18734627990722655	0.25917232971191406	0.614166259765625	-4.669189453125	-2.8839111328125	9.879673150634765	0.9858125335693358	-0.017357962036132813	2.864837646484375	-4.52423095703125	-1.949310302734375	
52	0.20800000000000002	0.0	0.0	0.0	0.0	0.003	0.006	0.003	0.006	9.910797772216796	0.12868833923339842	0.013766659545898436	1.277923583984375	-3.406524658203125	-0.682830810546875	9.776123928833007	-0.20051438903808594	0.20649989318847656	0.286102294921875	-4.901885986328125	-2.956390380859375	9.956287603759765	0.43634325256347656	-0.13347674255371092	2.658843994140625	-4.886627197265625	-1.99127197265625	
53	0.212	0.0	0.0	0.0	0.0	0.006	0.006	0.003	0.006	9.841365924072266	0.49679684448242184	-0.00239420166015625	2.262115478515625	-3.73077392578125	-1.140594482421875	9.73661960144043	0.2867056488037109	0.2597708801269531	0.42724609375	-4.98199462890625	-3.017425537109375	9.878476049804688	1.1701660614013671	0.008379705810546874	2.315521240234375	-4.520416259765625	-2.490997314453125	
54	0.216	0.0	0.0	0.0	0.0	0.003	0.003	0.006	0.006	9.783306533813477	0.4483142608642578	0.058657940673828124	2.90679931640625	-4.11224365234375	-0.843048095703125	9.773131176757811	-0.2902969512939453	0.201112939453125	0.00762939453125	-4.852294921875	-2.49481201171875	9.957484704589843	0.4285620971679687	-0.11911153259277343	2.685546875	-4.840850830078125	-1.941680908203125	
55	0.22	0.0	0.0	0.0	0.0	0.003	0.003	0.006	0.003	9.826402163696288	0.4070142822265625	0.002992752075195312	2.506256103515625	-3.589630126953125	-1.224517822265625	9.613318215942382	0.01915361328125	0.2693476867675781	0.70953369140625	-4.878997802734375	-3.498077392578125	9.796474642944336	0.6099228729248046	0.020350714111328123	2.399444580078125	-4.795074462890625	-2.51007080078125	
56	0.224	0.0	0.0	0.0	0.0	0.003	0.003	0.003	0.003	9.788693487548828	0.40761283264160153	0.051475335693359374	2.899169921875	-3.92913818359375	-0.804901123046875	9.804255798339844	-0.21428104858398436	0.16819266662597654	0.40435791015625	-4.848480224609375	-2.73895263671875	9.952696301269532	0.5722141967773438	-0.12988544006347655	2.51007080078125	-4.947662353515625	-1.987457275390625	
57	0.228	0.0	0.0	0.0	0.0	0.003	0.003	0.003	0.003	9.812036953735351	0.3363853332519531	-0.003591302490234375	2.780914306640625	-3.459930419921875	-1.117706298828125	9.606734161376952	0.07541735229492187	0.2609679809570312	0.77056884765625	-4.634857177734375	-3.2806396484375	9.782707983398437	0.7350199096679687	0.008379705810546874	2.582550048828125	-4.6234130859375	-2.25067138671875	
58	0.232	0.0	0.0	0.0	0.0	0.006	0.003	0.006	0.003	9.770138424682617	0.26396073303222656	0.05686228942871093	2.593994140625	-4.058837890625	-0.9307861328125	9.624690673828125	0.15442600708007811	0.2597708801269531	0.823974609375	-5.14984130859375	-2.8228759765625	9.78629928588867	0.49260699157714843	0.040102877807617184	2.582550048828125	-4.57763671875	-1.407623291015625	
59	0.23600000000000002	0.0	0.0	0.0	0.0	0.003	0.006	0.003	0.003	10.006565838623047	-0.032920272827148434	-0.03950432739257812	1.922607421875	-3.902435302734375	-0.7476806640625	9.637858782958984	0.07481880187988281	0.22685060729980466	0.31280517578125	-4.72259521484375	-3.261566162109375	9.816226806640625	0.7428010650634765	-0.00718260498046875	2.4871826171875	-4.60052490234375	-2.582550048828125	
60	0.24	0.0	0.0	0.0	0.0	0.003	0.006	0.006	0.006	9.770736975097655	0.2166752502441406	0.04608838195800781	2.1514892578125	-3.83758544921875	-0.820159912109375	9.630676177978515	0.2651578338623047	0.25139117431640623	0.705718994140625	-5.2032470703125	-2.84576416015625	9.81263550415039	0.6578069061279297	0.028730419921875	2.89154052734375	-4.7607421875	-1.377105712890625	
61	0.244	0.0	0.0	0.0	0.0	0.003	0.003	0.003	0.006	9.992799179077148	-0.05327098693847656	0.013168109130859374	2.15911865234375	-3.719329833984375	-0.667572021484375	9.82460651245117	0.07003039855957031	0.12030863342285156	1.129150390625	-4.89044189453125	-3.36456298828125	10.113706362915039	0.32920272827148434	-0.2657563842773437	2.933502197265625	-4.276275634765625	-1.83868408203125	
62	0.248	0.0	0.0	0.0	0.0	0.006	0.003	0.006	0.003	9.783306533813477	0.1771709228515625	0.008379705810546874	1.5411376953125	-3.4332275390625	0.026702880859375	9.639055883789062	0.17657237243652343	0.21966800231933592	0.61798095703125	-5.14984130859375	-2.872467041015625	9.82520506286621	0.5644330413818359	-0.016759411621093748	2.880096435546875	-4.69970703125	-1.514434814453125	
63	0.252	0.0	0.0	0.0	0.0	0.003	0.003	0.006	0.003	10.000580334472655	-0.047884033203124995	-0.0143652099609375	2.124786376953125	-3.627777099609375	-0.6866455078125	9.839570272827148	0.14245499877929688	0.09816226806640624	1.38092041015625	-4.955291748046875	-3.753662109375	10.139444030761718	0.39863457641601563	-0.3112462158203125	2.933502197265625	-4.5928955078125	-1.91497802734375	
64	0.256	0.0	0.0	0.0	0.0	0.0	0.003	0.003	0.003	9.986215124511718	-0.005985504150390624	0.03172317199707031	1.399993896484375	-3.658294677734375	0.05340576171875	9.792284790039062	0.34237083740234375	0.34536358947753903	0.843048095703125	-4.795074462890625	-3.139495849609375	9.65342109375	0.4860229370117187	-0.18435352783203124	2.8533935546875	-4.75311279296875	-1.453399658203125	
65	0.26	0.0	0.0	0.0	0.0	0.003	0.006	0.003	0.006	9.947907897949218	-0.07062894897460938	0.020949264526367185	2.227783203125	-3.8299560546875	-0.728607177734375	9.809044201660155	0.04668693237304687	0.10893617553710937	0.89263916015625	-4.833221435546875	-3.665924072265625	10.128071572875976	0.3076549133300781	-0.3112462158203125	2.933502197265625	-4.5928955078125	-1.983642578125	
66	0.264	0.0	0.0	0.0	0.0	0.003	0.003	0.003	0.006	10.007762939453125	-0.03232172241210937	0.02154781494140625	1.54876708984375	-3.299713134765625	0.0	9.809044201660155	0.3555389465332031	0.30047230834960936	0.774383544921875	-5.298614501953125	-2.99072265625	9.993397729492187	0.9463082061767577	-0.20350714111328125	2.716064453125	-4.634857177734375	-1.38092041015625	
67	0.268	0.0	0.0	0.0	0.0	0.006	0.003	0.006	0.006	9.994594830322265	-0.013168109130859374	-0.06883329772949218	2.254486083984375	-3.719329833984375	-0.66375732421875	9.682750064086914	-0.1693897674560547	0.08259995727539061	0.70953369140625	-4.955291748046875	-3.0059814453125	10.114304913330077	0.37888241271972656	-0.30885201416015623	3.082275390625	-4.474639892578125	-2.13623046875	
68	0.272	0.0	0.0	0.0	0.0	0.003	0.003	0.003	0.006	9.961076007080077	-0.044292730712890624	0.07242460021972656	1.13677978515625	-3.238677978515625	0.194549560546875	9.790489138793944	0.28730419921875	0.3435679382324219	0.75531005859375	-5.199432373046875	-2.979278564453125	9.944915145874022	0.9068038787841797	-0.15562310791015624	2.86865234375	-4.84466552734375	-1.293182373046875	
69	0.276	0.0	0.0	0.0	0.0	0.006	0.006	0.003	0.003	10.02332525024414	-0.1657984649658203	-0.12090718383789062	1.76239013671875	-3.383636474609375	-0.48065185546875	10.008960040283203	-0.2807201446533203	0.044891281127929686	0.89263916015625	-5.07354736328125	-3.42559814453125	10.29147583618164	0.24001871643066405	-0.5787982513427734	2.773284912109375	-4.604339599609375	-2.193450927734375	
70	0.28	0.0	0.0	0.0	0.0	0.006	0.003	0.003	0.006	9.941922393798828	0.06763619689941405	0.08439560852050781	1.514434814453125	-3.238677978515625	-0.125885009765625	9.803058697509766	0.39324762268066404	0.31004911499023435	0.400543212890625	-4.909515380859375	-3.1890869140625	9.96047745666504	1.0396820709228516	-0.17058686828613281	2.86865234375	-4.497528076171875	-1.369476318359375	
71	0.28400000000000003	0.0	0.0	0.0	0.0	0.003	0.006	0.006	0.003	10.002974536132811	-0.1514332550048828	-0.09337386474609374	1.59454345703125	-3.307342529296875	-0.37384033203125	9.96586441040039	-0.20949264526367187	0.044292730712890624	0.637054443359375	-4.89044189453125	-3.208160400390625	10.251372958374024	0.2759317413330078	-0.5470750793457031	2.899169921875	-4.69970703125	-1.918792724609375	
72	0.28800000000000003	0.0	0.0	0.0	0.0	0.003	0.006	0.003	0.006	9.7683427734375	0.6841431243896484	0.06703764648437499	3.955841064453125	-4.261016845703125	-1.19781494140625	9.700108026123047	0.20949264526367187	0.27832594299316404	0.225067138671875	-5.126953125	-2.872467041015625	9.891644158935547	0.9068038787841797	-0.05027823486328125	2.75421142578125	-4.726409912109375	-2.071380615234375	
73	0.292	0.0	0.0	0.0	0.0	0.003	0.003	0.003	0.003	10.026916552734374	-0.1867477294921875	-0.12988544006347655	1.651763916015625	-3.108978271484375	-0.591278076171875	10.021529598999022	-0.21248539733886718	-0.03232172241210937	0.812530517578125	-5.023956298828125	-3.414154052734375	10.307038146972655	0.33039982910156246	-0.6015431671142578	2.99072265625	-4.779815673828125	-1.697540283203125	
74	0.296	0.0	0.0	0.0	0.0	0.003	0.003	0.006	0.003	9.794678991699218	0.737414111328125	0.037110125732421874	3.5247802734375	-4.367828369140625	-1.10626220703125	9.69112976989746	0.47285482788085936	0.26815058593749996	0.23651123046875	-4.779815673828125	-3.12042236328125	9.883264453125	0.8230068206787109	-0.03172317199707031	2.8228759765625	-4.695892333984375	-2.223968505859375	
75	0.3	0.0	0.0	0.0	0.0	0.006	0.006	0.003	0.006	10.028113653564452	-0.23582886352539062	-0.11851298217773437	3.452301025390625	-4.5166015625	-0.9613037109375	9.919177478027343	-0.46686932373046874	-0.052073886108398436	0.179290771484375	-4.81414794921875	-2.353668212890625	9.923367330932617	0.5943605621337891	-0.20470424194335937	2.559661865234375	-5.035400390625	-1.873016357421875	
76	0.304	0.0	0.0	0.0	0.0	0.003	0.003	0.006	0.006	9.858723886108399	0.5033808990478515	-0.028730419921875	3.238677978515625	-4.20379638671875	-1.15203857421875	9.70968483276367	0.22086510314941404	0.2454056701660156	0.308990478515625	-4.909515380859375	-2.98309326171875	9.926360083007811	0.7655459808349608	-0.07781155395507812	2.84576416015625	-4.817962646484375	-2.23541259765625	
77	0.308	0.0	0.0	0.0	0.0	0.006	0.006	0.006	0.003	9.816226806640625	0.24959552307128904	0.09995791931152344	3.185272216796875	-3.80706787109375	-0.98419189453125	9.94072529296875	-0.4429273071289062	-0.0909796630859375	0.377655029296875	-4.98199462890625	-2.910614013671875	9.969455712890625	0.7242460021972655	-0.2603694305419922	2.681732177734375	-4.932403564453125	-1.819610595703125	
78	0.312	0.0	0.0	0.0	0.0	0.003	0.006	0.006	0.003	9.865307940673828	0.4225765930175781	0.0047884033203125	2.964019775390625	-3.818511962890625	-0.827789306640625	9.628281976318359	0.3058592620849609	0.2166752502441406	0.720977783203125	-4.871368408203125	-3.276824951171875	9.891644158935547	0.679953271484375	-0.008978256225585938	2.216339111328125	-4.665374755859375	-2.01416015625	
79	0.316	0.0	0.0	0.0	0.0	0.0	0.006	0.006	0.003	9.8311905670166	0.23582886352539062	0.08259995727539061	3.215789794921875	-4.18853759765625	-0.9918212890625	9.95987890625	-0.32441432495117184	-0.11192892761230468	0.492095947265625	-5.13458251953125	-3.070831298828125	9.962273107910155	0.8014590057373047	-0.2561795776367187	2.685546875	-4.98199462890625	-1.941680908203125	
80	0.32	0.0	0.0	0.0	0.0	0.003	0.006	0.003	0.006	9.879673150634765	0.2214636535644531	-0.09457096557617187	2.76947021484375	-3.92913818359375	-1.346588134765625	9.69771382446289	0.354940396118164	0.14245499877929688	0.42724609375	-4.627227783203125	-3.025054931640625	9.810839852905273	0.3920505218505859	-0.03531447448730469	2.368927001953125	-4.60052490234375	-2.300262451171875	
81	0.324	0.0	0.0	0.0	0.0	0.006	0.006	0.003	0.006	9.85692823486328	0.30406361083984373	0.09457096557617187	3.589630126953125	-4.238128662109375	-0.934600830078125	9.706093530273437	-0.26815058593749996	0.15741875915527342	0.42724609375	-4.96673583984375	-3.025054931640625	9.925761532592773	0.8762778076171874	-0.23223756103515625	2.55584716796875	-4.89044189453125	-1.621246337890625	
82	0.328	0.0	0.0	0.0	0.0	0.003	0.006	0.006	0.006	9.852139831542969	0.3142389678955078	-0.017956512451171875	3.570556640625	-4.46319580078125	-1.59454345703125	9.668983404541015	0.20171148986816406	0.18136077575683593	0.362396240234375	-4.89044189453125	-3.177642822265625	9.79946739501953	0.3962403747558593	-0.03411737365722656	2.3193359375	-4.57000732421875	-2.155303955078125	
83	0.332	0.0	0.0	0.0	0.0	0.006	0.003	0.003	0.003	9.904213717651366	0.39264907226562495	0.022146365356445312	3.757476806640625	-4.405975341796875	-0.89263916015625	9.727042794799804	-0.14125789794921875	0.14185644836425781	0.61798095703125	-5.30242919921875	-2.99835205078125	9.809044201660155	0.8589198455810546	-0.011372457885742187	2.55584716796875	-4.8828125	-1.96075439453125	
84	0.336	0.0	0.0	0.0	0.0	0.003	0.003	0.003	0.003	9.873687646484374	0.14903905334472656	-0.001197100830078125	4.116058349609375	-4.871368408203125	-1.461029052734375	9.792284790039062	0.07003039855957031	0.17956512451171874	0.537872314453125	-4.9285888671875	-3.002166748046875	9.784503634643555	0.43035774841308594	-0.025139117431640625	2.44140625	-4.49371337890625	-2.2125244140625	
85	0.34	0.0	0.0	0.0	0.0	0.006	0.006	0.003	0.003	9.954491952514648	-0.028730419921875	-0.12090718383789062	2.040863037109375	-3.90625	-0.606536865234375	9.726444244384766	0.05805939025878906	0.1292868896484375	0.5340576171875	-5.22613525390625	-2.887725830078125	9.79408044128418	0.8774749084472656	0.022744915771484374	2.475738525390625	-4.8370361328125	-1.94549560546875	
86	0.34400000000000003	0.0	0.0	0.0	0.0	0.003	0.006	0.006	0.006	9.891644158935547	0.4327519500732422	-0.006584054565429687	4.459381103515625	-5.100250244140625	-1.77001953125	9.815628256225585	-0.07721300354003906	0.19632453613281248	0.213623046875	-4.7760009765625	-2.78472900390625	10.177751257324218	0.6368576416015624	-0.35613749694824215	2.685546875	-4.58526611328125	-1.40380859375	
87	0.34800000000000003	0.0	0.0	0.0	0.0	0.003	0.006	0.003	0.006	9.931148486328125	0.24181436767578124	-0.11791443176269531	2.399444580078125	-3.814697265625	-0.240325927734375	9.804255798339844	0.037708676147460936	0.21248539733886718	0.530242919921875	-5.21087646484375	-2.994537353515625	9.810839852905273	0.7595604766845703	0.017357962036132813	2.60162353515625	-4.8828125	-2.155303955078125	
88	0.352	0.0	0.0	0.0	0.0	0.006	0.003	0.003	0.003	9.912593423461914	0.10594342346191406	0.01915361328125	2.399444580078125	-3.91387939453125	-0.507354736328125	9.813832604980469	-0.04129997863769531	0.17776947326660156	0.52642822265625	-5.016326904296875	-3.18145751953125	10.14483098449707	0.7529764221191406	-0.4082113830566406	2.727508544921875	-4.344940185546875	-1.60980224609375	
89	0.356	0.0	0.0	0.0	0.0	0.006	0.003	0.006	0.003	9.93952819213867	-0.06045359191894531	-0.1005564697265625	2.81524658203125	-4.032135009765625	-0.762939453125	9.813832604980469	0.11133037719726561	0.17058686828613281	0.4425048828125	-5.2032470703125	-2.8533935546875	9.849745629882811	0.7565677246093749	-0.0047884033203125	3.0059814453125	-4.791259765625	-2.010345458984375	
90	0.36	0.0	0.0	0.0	0.0	0.006	0.003	0.003	0.006	9.913790524291992	0.32082302246093747	-0.013766659545898436	2.712249755859375	-3.879547119140625	-0.80108642578125	9.809044201660155	-0.08080430603027343	0.1975216369628906	0.8697509765625	-4.69970703125	-2.750396728515625	10.18373676147461	0.670975015258789	-0.3711012573242187	3.025054931640625	-4.428863525390625	-1.80816650390625	
91	0.364	0.0	0.0	0.0	0.0	0.006	0.006	0.003	0.006	9.900023864746093	-0.28969840087890625	0.00718260498046875	3.025054931640625	-4.00543212890625	-0.885009765625	9.783905084228515	0.11671733093261719	0.15741875915527342	0.499725341796875	-5.2642822265625	-2.99072265625	9.977236868286132	0.6667851623535156	-0.17776947326660156	3.07464599609375	-5.077362060546875	-2.01416015625	
92	0.368	0.0	0.0	0.0	0.0	0.006	0.006	0.003	0.006	9.968857162475585	-0.1406593475341797	-0.09516951599121093	1.369476318359375	-3.398895263671875	-0.335693359375	9.964667309570311	0.033518823242187495	-0.06643909606933593	0.835418701171875	-4.81414794921875	-2.89154052734375	10.182539660644531	0.7164648468017578	-0.3962403747558593	2.81524658203125	-4.35638427734375	-1.522064208984375	
93	0.372	0.0	0.0	0.0	0.0	0.006	0.006	0.006	0.006	9.70369932861328	0.7278373046875	0.2920926025390625	3.391265869140625	-4.08172607421875	-0.79345703125	9.813832604980469	0.037708676147460936	0.11432312927246092	0.38909912109375	-5.04302978515625	-2.826690673828125	10.01015714111328	0.6386532928466796	-0.1927332336425781	2.9144287109375	-4.802703857421875	-1.697540283203125	
94	0.376	0.0	0.0	0.0	0.0	0.006	0.003	0.006	0.003	9.90241806640625	0.14784195251464843	-0.06464344482421874	3.4332275390625	-4.299163818359375	-0.79345703125	9.95329485168457	0.032920272827148434	-0.059256491088867186	1.434326171875	-5.016326904296875	-2.880096435546875	10.22144543762207	0.7948749511718749	-0.49859249572753905	3.063201904296875	-4.53948974609375	-1.476287841796875	
95	0.38	0.0	0.0	0.0	0.0	0.003	0.003	0.003	0.006	9.616310968017578	0.33039982910156246	0.3687070556640625	2.41851806640625	-3.77655029296875	-0.52642822265625	9.618705169677733	0.17836802368164062	0.5207388610839844	0.591278076171875	-5.146026611328125	-2.7313232421875	9.995193380737303	0.6596025573730468	-0.1867477294921875	2.838134765625	-4.718780517578125	-1.972198486328125	
96	0.384	0.0	0.0	0.0	0.0	0.003	0.003	0.003	0.006	9.900622415161132	-0.2424129180908203	-0.016160861206054686	2.01416015625	-3.589630126953125	-0.690460205078125	9.981426721191406	-0.013168109130859374	-0.08559270935058594	0.90789794921875	-5.08880615234375	-2.986907958984375	10.27232222290039	0.7416039642333984	-0.5123591552734374	2.899169921875	-4.5013427734375	-1.537322998046875	
97	0.388	0.0	0.0	0.0	0.0	0.006	0.003	0.006	0.003	9.65342109375	0.38666356811523434	0.26874913635253905	1.178741455078125	-3.04412841796875	-0.14495849609375	9.605537060546874	0.13646949462890623	0.5255272644042969	0.61798095703125	-5.100250244140625	-2.788543701171875	9.85692823486328	0.5153519073486328	0.025737667846679687	2.58636474609375	-4.63104248046875	-2.51007080078125	
98	0.392	0.0	0.0	0.0	0.0	0.003	0.003	0.003	0.006	9.815029705810547	0.17118541870117188	0.15322890625	-0.125885009765625	-2.346038818359375	-0.31280517578125	9.929951385498047	-0.02693476867675781	0.01975216369628906	0.926971435546875	-4.8980712890625	-3.13568115234375	10.20827732849121	0.7882908966064452	-0.4961982940673828	2.864837646484375	-4.878997802734375	-1.438140869140625	
99	0.396	0.0	0.0	0.0	0.0	0.006	0.006	0.003	0.003	9.582193594360351	0.30047230834960936	0.28012159423828126	1.68609619140625	-3.19671630859375	-0.45013427734375	9.635464581298828	0.07362170104980469	0.469862075805664	0.6103515625	-4.993438720703125	-3.055572509765625	9.896432562255859	0.4471171600341797	0.017357962036132813	2.429962158203125	-4.75311279296875	-2.17437744140625	
100	0.4	0.0	0.0	0.0	0.0	0.009000000000000001	0.006	0.003	0.006	9.849745629882811	0.023942016601562498	0.08259995727539061	-1.323699951171875	-1.712799072265625	0.072479248046875	9.981426721191406	-0.08259995727539061	-0.025139117431640625	0.9307861328125	-4.64630126953125	-2.96783447265625	10.25316860961914	0.7894879974365234	-0.5327098693847656	2.498626708984375	-4.69207763671875	-1.0223388671875	
101	0.404	0.0	0.0	0.0	0.0	0.003	0.003	0.003	0.003	9.557653027343749	0.2765302917480469	0.2825157958984375	2.01416015625	-3.41796875	-1.049041748046875	9.580996493530273	0.07422025146484375	0.42317514343261714	0.583648681640625	-4.795074462890625	-3.719329833984375	9.809044201660155	0.4273649963378906	0.03411737365722656	2.750396728515625	-4.58526611328125	-2.025604248046875	
102	0.40800000000000003	0.0	0.0	0.0	0.0	0.003	0.006	0.003	0.003	9.867702142333984	0.2501940734863281	0.059256491088867186	-0.301361083984375	-1.99127197265625	-0.202178955078125	10.008960040283203	-0.04668693237304687	-0.07242460021972656	0.9002685546875	-4.9896240234375	-3.0364990234375	9.917980377197265	0.9445125549316405	-0.16220716247558592	2.29644775390625	-4.940032958984375	-2.117156982421875	
103	0.41200000000000003	0.0	0.0	0.0	0.0	0.003	0.003	0.003	0.003	9.85094273071289	0.4267664459228515	-0.05626373901367187	2.0751953125	-3.177642822265625	-0.972747802734375	9.611522564697266	0.06284779357910156	0.4381389038085937	0.6866455078125	-4.749298095703125	-3.47137451171875	9.909600671386718	0.3758896606445312	-0.03651157531738281	2.613067626953125	-4.428863525390625	-1.96075439453125	
104	0.41600000000000004	0.0	0.0	0.0	0.0	0.006	0.003	0.003	0.003	9.811438403320311	0.1484405029296875	0.086191259765625	-0.732421875	-1.708984375	-0.1373291015625	9.74799205932617	-0.03651157531738281	0.15682020874023436	0.4425048828125	-4.93621826171875	-2.9449462890625	9.90241806640625	0.8762778076171874	-0.1005564697265625	2.460479736328125	-4.82940673828125	-2.17437744140625	
105	0.42	0.0	0.0	0.0	0.0	0.003	0.003	0.006	0.006	9.8311905670166	0.4722562774658203	-0.003591302490234375	1.712799072265625	-3.162384033203125	-0.782012939453125	9.579200842285156	0.1197100830078125	0.45070846252441404	0.133514404296875	-5.126953125	-3.51715087890625	9.735422500610351	0.48183308410644526	-0.07003039855957031	2.452850341796875	-4.92095947265625	-2.155303955078125	
106	0.424	0.0	0.0	0.0	0.0	0.003	0.003	0.003	0.006	9.963470208740233	0.5506663818359374	-0.20829554443359374	4.245758056640625	-4.695892333984375	-1.499176025390625	9.787496386718749	-0.03232172241210937	0.07841010437011718	0.614166259765625	-4.985809326171875	-2.819061279296875	9.955090502929687	0.8792705596923828	-0.15263035583496093	2.506256103515625	-4.871368408203125	-2.285003662109375	
107	0.428	0.0	0.0	0.0	0.0	0.0	0.006	0.006	0.003	9.854534033203125	0.38666356811523434	-0.0526724365234375	2.22015380859375	-3.34930419921875	-0.8087158203125	9.731232647705077	-0.03232172241210937	0.14604630126953125	0.40435791015625	-4.608154296875	-3.376007080078125	9.809044201660155	0.4752490295410156	-0.13287819213867186	2.445220947265625	-4.673004150390625	-2.140045166015625	
108	0.432	0.0	0.0	0.0	0.0	0.003	0.006	0.003	4.635	9.86291373901367	0.5500678314208984	-0.09995791931152344	4.47845458984375	-4.718780517578125	-1.605987548828125	9.680355862426758	-0.0430956298828125	0.19632453613281248	0.48065185546875	-5.268096923828125	-2.864837646484375	9.790489138793944	0.6296750366210937	0.007781155395507812	2.696990966796875	-4.57763671875	-2.002716064453125	
109	0.436	0.0	0.0	0.0	0.0	4.635	4.662	4.665	4.632	9.872490545654296	0.19991583862304688	-0.07841010437011718	2.193450927734375	-3.25775146484375	-0.7476806640625	9.67197615661621	-0.023343466186523436	0.19692308654785154	0.362396240234375	-4.791259765625	-3.421783447265625	9.767145672607422	0.5069722015380859	-0.07062894897460938	2.3193359375	-4.49371337890625	-1.73187255859375	
110	0.44	0.0	0.0	0.0	0.0	4.638	4.668	4.665	4.62	9.966462960815429	0.5979518646240234	-0.22086510314941404	4.1961669921875	-4.810333251953125	-1.25885009765625	9.787496386718749	-0.11851298217773437	0.06284779357910156	0.484466552734375	-5.218505859375	-2.5177001953125	9.92755718383789	0.6081272216796875	-0.1083376251220703	2.4871826171875	-4.962921142578125	-1.9989013671875	
111	0.444	0.0	0.0	0.0	0.0	4.644	4.665	4.668	4.623	10.018536846923828	0.14604630126953125	-0.19931728820800781	5.161285400390625	-5.199432373046875	-1.6632080078125	9.60852981262207	-0.011372457885742187	0.2597708801269531	0.553131103515625	-4.7607421875	-3.444671630859375	9.72285294189453	0.4991910461425781	-0.0047884033203125	3.04412841796875	-4.302978515625	-1.544952392578125	
112	0.448	0.0	0.0	0.0	0.0	4.641	4.662	4.668	4.632	9.913191973876952	0.5686228942871093	-0.12629413757324218	4.23431396484375	-4.917144775390625	-1.2054443359375	9.749787710571288	-0.014963760375976562	0.09217676391601562	0.362396240234375	-5.435943603515625	-2.72369384765625	9.80066449584961	0.6625953094482422	-0.0017956512451171875	2.685546875	-4.913330078125	-2.00653076171875	
113	0.452	0.0	0.0	0.0	0.0	4.635	4.668	4.671	4.638	10.043077413940429	0.12330138549804687	-0.2280477081298828	5.035400390625	-5.31005859375	-1.468658447265625	9.694721072387695	0.018555062866210937	0.19572598571777342	0.8544921875	-4.817962646484375	-3.326416015625	10.256759912109374	0.6631938598632812	-0.45549686584472654	3.093719482421875	-4.161834716796875	-1.28936767578125	
114	0.456	0.0	0.0	0.0	0.0	4.638	4.668	4.668	4.638	9.934739788818359	0.36092590026855464	-0.14544775085449219	3.818511962890625	-4.596710205078125	-0.8392333984375	9.765948571777344	-0.09277531433105468	0.07481880187988281	0.48828125	-4.917144775390625	-2.7313232421875	9.840767373657226	0.6314706878662109	-0.05087678527832031	2.76947021484375	-4.81414794921875	-2.09808349609375	
115	0.46	0.0	0.0	0.0	0.0	4.6290000000000004	4.668	4.665	4.644	9.950302099609374	0.4291606475830078	-0.09756371765136718	5.5084228515625	-5.5084228515625	-1.4495849609375	9.893439810180663	-0.029927520751953124	0.029927520751953124	0.713348388671875	-4.70733642578125	-2.635955810546875	10.14542953491211	0.6727706665039062	-0.421978042602539	3.143310546875	-4.302978515625	-1.4801025390625	
116	0.464	0.0	0.0	0.0	0.0	4.644	4.668	4.671	4.6290000000000004	9.852139831542969	0.13108254089355467	0.20470424194335937	4.17327880859375	-4.680633544921875	-0.926971435546875	9.803058697509766	0.010175357055664061	0.08918401184082031	0.64849853515625	-5.14984130859375	-2.696990966796875	10.02990930480957	0.6871358764648438	-0.24121581726074218	3.208160400390625	-4.581451416015625	-1.617431640625	
117	0.468	0.0	0.0	0.0	0.0	4.641	4.668	4.668	4.623	10.008960040283203	0.06284779357910156	-0.20709844360351562	4.528045654296875	-4.5928955078125	-1.316070556640625	9.986813674926758	-0.11432312927246092	-0.034715924072265626	0.972747802734375	-4.901885986328125	-2.960205078125	10.281300479125976	0.5584475372314452	-0.49320554199218747	3.11279296875	-4.589080810546875	-1.590728759765625	
118	0.47200000000000003	0.0	0.0	0.0	0.0	4.641	4.668	4.668	4.623	9.773131176757811	0.31543606872558594	0.22385785522460935	4.024505615234375	-4.913330078125	-1.285552978515625	9.724050042724608	0.12090718383789062	0.37768531188964843	0.629425048828125	-5.016326904296875	-2.712249755859375	10.000580334472655	0.6440402465820312	-0.2519897247314453	2.880096435546875	-4.489898681640625	-1.712799072265625	
119	0.47600000000000003	0.0	0.0	0.0	0.0	4.641	4.662	4.668	4.638	9.95987890625	-0.12090718383789062	0.059256491088867186	0.522613525390625	-2.841949462890625	-0.23651123046875	9.890447058105469	0.020949264526367185	0.06105214233398437	0.52642822265625	-4.848480224609375	-2.86865234375	10.123881719970703	0.8397662322998046	-0.3854664672851562	2.87628173828125	-4.84466552734375	-1.537322998046875	
120	0.48	0.0	0.0	0.0	0.0	4.638	4.668	4.671	4.638	9.871293444824218	0.38367081604003905	0.1227028350830078	4.21905517578125	-4.611968994140625	-1.041412353515625	9.85094273071289	0.054468087768554684	0.29089550170898437	0.347137451171875	-4.94384765625	-2.73895263671875	10.122684619140625	0.5901707092285156	-0.2885013000488281	3.276824951171875	-4.76837158203125	-1.720428466796875	
121	0.484	0.0	0.0	0.0	0.0	4.641	4.668	4.668	4.641	10.01075569152832	-0.08798691101074219	-0.06105214233398437	1.0223388671875	-2.58636474609375	-0.423431396484375	10.128071572875976	-0.051475335693359374	-0.10953472595214843	0.95367431640625	-5.21087646484375	-2.9296875	10.19510921936035	0.7463923675537109	-0.31543606872558594	2.960205078125	-4.9285888671875	-1.750946044921875	
122	0.488	0.0	0.0	0.0	0.0	4.635	4.668	4.665	4.644	9.742605105590819	0.19632453613281248	0.29269115295410153	4.06646728515625	-4.856109619140625	-0.926971435546875	9.743203656005859	0.14185644836425781	0.40581718139648437	0.354766845703125	-4.8370361328125	-2.719879150390625	9.970652813720703	0.6344634399414062	-0.17477672119140625	2.2125244140625	-4.833221435546875	-2.44140625	
123	0.492	0.0	0.0	0.0	0.0	4.644	4.668	4.671	4.632	10.06223102722168	0.0	-0.15083470458984374	0.5645751953125	-2.880096435546875	-0.0457763671875	10.14483098449707	-0.1005564697265625	-0.06643909606933593	0.8544921875	-5.481719970703125	-2.593994140625	10.190320816040039	0.8014590057373047	-0.2519897247314453	2.811431884765625	-4.67681884765625	-1.67083740234375	
124	0.496	0.0	0.0	0.0	0.0	4.641	4.668	4.668	4.623	9.765350021362304	0.1867477294921875	0.15502455749511718	1.857757568359375	-3.330230712890625	-0.9918212890625	9.668983404541015	0.11911153259277343	0.34835634155273437	0.54168701171875	-4.917144775390625	-3.498077392578125	9.817423907470703	0.3459621398925781	0.19033903198242186	2.18963623046875	-4.9591064453125	-2.490997314453125	
125	0.5	0.0	0.0	0.0	0.0	4.644	4.668	4.668	4.6290000000000004	9.931148486328125	-0.29388825378417965	-0.029328970336914062	0.537872314453125	-2.796173095703125	-0.377655029296875	10.070012182617187	-0.05805939025878906	-0.06284779357910156	0.942230224609375	-5.28717041015625	-2.838134765625	10.051457119750976	0.8870517150878906	-0.15861585998535155	2.811431884765625	-4.791259765625	-1.644134521484375	
126	0.504	0.0	0.0	0.0	0.0	4.641	4.662	4.665	4.632	9.760561618041992	0.029328970336914062	0.1406593475341797	0.072479248046875	-2.4261474609375	0.0152587890625	9.597157354736327	0.22565350646972654	0.38247371520996093	0.335693359375	-5.035400390625	-3.047943115234375	9.698910925292969	0.43035774841308594	0.2980781066894531	2.124786376953125	-4.817962646484375	-2.246856689453125	
127	0.508	0.0	0.0	0.0	0.0	4.641	4.671	4.671	4.638	10.006565838623047	0.02633621826171875	-0.16041151123046873	1.880645751953125	-3.406524658203125	-0.83160400390625	9.79946739501953	-0.1149216796875	0.17058686828613281	0.60272216796875	-5.008697509765625	-3.002166748046875	10.060435375976562	0.7811082916259765	-0.2855085479736328	2.155303955078125	-4.9285888671875	-2.49481201171875	
128	0.512	0.0	0.0	0.0	0.0	4.641	4.668	4.668	4.641	9.683947164916992	-0.0383072265625	0.19333178405761717	0.213623046875	-2.52532958984375	-0.591278076171875	9.597157354736327	0.19871873779296872	0.3238157745361328	0.9002685546875	-5.0811767578125	-3.368377685546875	9.660603698730467	0.46148236999511716	0.36571430358886714	2.582550048828125	-4.650115966796875	-2.231597900390625	
129	0.516	0.0	0.0	0.0	0.0	4.632	4.668	4.665	0.006	9.851541281127929	0.181959326171875	0.12449848632812499	0.12969970703125	-2.716064453125	0.09918212890625	9.674968908691406	-0.028730419921875	0.3507505432128906	0.553131103515625	-4.909515380859375	-3.047943115234375	9.898826763916015	0.8463502868652343	-0.25318682556152344	2.18963623046875	-5.260467529296875	-2.590179443359375	
130	0.52	0.0	0.0	0.0	0.0	0.006	0.006	0.003	0.003	9.83178911743164	0.015562310791015624	-0.004189852905273437	-0.545501708984375	-1.949310302734375	0.255584716796875	9.72345149230957	0.19333178405761717	0.1975216369628906	0.431060791015625	-4.856109619140625	-3.34930419921875	9.865307940673828	0.5584475372314452	-0.27293898925781246	2.887725830078125	-4.669189453125	-1.65557861328125	
131	0.524	0.0	0.0	0.0	0.0	0.006	0.003	0.003	0.003	9.853336932373047	0.7320271575927734	0.037110125732421874	3.1585693359375	-3.95965576171875	-1.407623291015625	9.7162688873291	-0.12330138549804687	0.23582886352539062	0.54931640625	-5.016326904296875	-3.2196044921875	9.957484704589843	0.7200561492919921	-0.24361001892089842	2.056121826171875	-5.07354736328125	-2.727508544921875	
132	0.528	0.0	0.0	0.0	0.0	0.003	0.006	0.003	0.006	9.882067352294921	0.004189852905273437	0.15502455749511718	2.410888671875	-3.570556640625	-0.823974609375	9.555258825683593	0.08319850769042968	0.3172317199707031	0.55694580078125	-5.100250244140625	-3.574371337890625	9.781510882568359	0.661398208618164	-0.2442085693359375	2.81524658203125	-4.604339599609375	-1.922607421875	
133	0.532	0.0	0.0	0.0	0.0	0.006	0.003	0.003	0.003	9.955090502929687	0.0987608184814453	-0.07302315063476562	0.484466552734375	-2.544403076171875	-0.06103515625	9.770736975097655	-0.03232172241210937	0.2693476867675781	0.827789306640625	-5.035400390625	-3.01361083984375	9.975441217041014	0.7398083129882812	-0.2914940521240234	3.1585693359375	-4.695892333984375	-1.552581787109375	
134	0.536	0.0	0.0	0.0	0.0	0.003	0.006	0.003	0.003	9.993397729492187	0.8990227233886718	-0.013168109130859374	5.63812255859375	-5.237579345703125	-1.491546630859375	9.675567459106444	-0.027533319091796873	0.13108254089355467	0.7781982421875	-4.756927490234375	-3.48663330078125	9.907206469726562	0.6111199737548828	-0.31064766540527344	2.55584716796875	-4.306793212890625	-1.53350830078125	
135	0.54	0.0	0.0	0.0	0.0	0.003	0.003	0.003	0.003	9.873687646484374	1.158793603515625	-0.013766659545898436	5.43975830078125	-5.3253173828125	-2.017974853515625	9.693523971557617	0.09576806640624999	0.16759411621093748	0.804901123046875	-5.069732666015625	-3.082275390625	9.813832604980469	0.5572504364013672	0.03411737365722656	3.04412841796875	-4.46319580078125	-1.76239013671875	
136	0.544	0.0	0.0	0.0	0.0	0.003	0.003	0.003	0.003	9.872490545654296	-0.08738836059570312	0.2753331909179687	4.1351318359375	-4.57763671875	-1.48773193359375	9.620500820922851	0.09217676391601562	0.2154781494140625	0.762939453125	-5.1422119140625	-3.65447998046875	9.763554370117188	0.6955155822753906	-0.06464344482421874	2.559661865234375	-4.421234130859375	-1.41143798828125	
137	0.548	0.0	0.0	0.0	0.0	0.003	0.006	0.003	0.003	10.044274514770507	0.010773907470703125	-0.25797522888183594	2.05230712890625	-3.589630126953125	-0.09918212890625	9.740809454345703	-0.010175357055664061	0.1610100616455078	0.247955322265625	-5.126953125	-2.89154052734375	9.86411083984375	0.46806642456054687	0.017357962036132813	2.838134765625	-4.486083984375	-2.044677734375	
138	0.552	0.0	0.0	0.0	0.0	0.003	0.003	0.003	0.003	10.056844073486328	0.8026561065673827	-0.04668693237304687	4.207611083984375	-4.69207763671875	-0.934600830078125	9.894038360595703	-0.1292868896484375	0.03411737365722656	0.789642333984375	-5.069732666015625	-2.90679931640625	10.198101971435547	0.8445546356201171	-0.5123591552734374	2.643585205078125	-4.283905029296875	-1.85394287109375	
139	0.556	0.0	0.0	0.0	0.0	0.003	0.003	0.006	0.006	9.90181951599121	0.5339069702148437	0.00718260498046875	7.534027099609375	-6.72149658203125	-2.70843505859375	9.59476315307617	0.0017956512451171875	0.2759317413330078	0.8392333984375	-4.840850830078125	-3.15093994140625	9.778518130493163	0.5590460876464843	-0.04249707946777344	2.7618408203125	-4.703521728515625	-1.850128173828125	
140	0.56	0.0	0.0	0.0	0.0	0.003	0.003	0.006	0.006	9.94072529296875	0.51714755859375	0.07721300354003906	0.217437744140625	-2.872467041015625	0.003814697265625	9.973047015380859	-0.08200140686035155	-0.020350714111328123	0.40435791015625	-5.16510009765625	-3.0670166015625	10.204087475585936	0.8259995727539062	-0.4537012145996093	2.864837646484375	-4.32586669921875	-1.453399658203125	
141	0.5640000000000001	0.0	0.0	0.0	0.0	0.0	0.006	0.003	0.006	9.969455712890625	-0.5710170959472656	0.0383072265625	1.285552978515625	-3.0517578125	-0.240325927734375	9.87727894897461	0.03591302490234375	0.23403321228027343	0.1220703125	-4.940032958984375	-2.55584716796875	10.062829577636718	0.47764323120117186	-0.12689268798828124	2.92205810546875	-4.581451416015625	-1.483917236328125	
142	0.5680000000000001	0.0	0.0	0.0	0.0	0.006	0.003	0.006	0.006	10.089165795898436	0.20171148986816406	-0.2771288421630859	2.3345947265625	-3.772735595703125	-0.209808349609375	9.8449572265625	-0.03411737365722656	0.02454056701660156	0.392913818359375	-5.023956298828125	-2.796173095703125	10.169371551513672	0.7781155395507812	-0.4590881683349609	3.070831298828125	-4.34112548828125	-1.750946044921875	
143	0.5720000000000001	0.0	0.0	0.0	0.0	0.003	0.003	0.006	0.003	10.092757098388672	0.5207388610839844	-0.12988544006347655	5.809783935546875	-5.4473876953125	-1.285552978515625	9.810241302490233	0.08080430603027343	0.2741360900878906	0.736236572265625	-4.970550537109375	-2.66265869140625	9.951499200439452	0.6200982299804687	-0.07302315063476562	2.98309326171875	-4.99725341796875	-1.567840576171875	
144	0.5760000000000001	0.0	0.0	0.0	0.0	0.003	0.006	0.006	0.009000000000000001	9.94072529296875	-0.005985504150390624	-0.08020575561523437	3.849029541015625	-4.5928955078125	-1.4190673828125	10.117896215820313	-0.1897404815673828	-0.12509703674316405	0.820159912109375	-5.123138427734375	-2.979278564453125	10.230423693847655	0.6260837341308594	-0.469263525390625	2.834320068359375	-4.779815673828125	-1.89208984375	
145	0.58	0.0	0.0	0.0	0.0	0.003	0.003	0.006	0.006	9.362525592041015	-0.1945288848876953	0.5829881042480468	-1.972198486328125	-0.888824462890625	0.84686279296875	9.873687646484374	0.086191259765625	0.2316390106201172	0.316619873046875	-4.99725341796875	-2.574920654296875	10.002375985717773	0.6458358978271485	-0.1149216796875	2.89154052734375	-4.94384765625	-1.598358154296875	
146	0.584	0.0	0.0	0.0	0.0	0.006	0.006	0.003	0.006	9.80724855041504	-0.46507367248535153	0.14185644836425781	-1.422882080078125	-1.689910888671875	0.640869140625	10.022128149414062	-0.07481880187988281	-0.037708676147460936	0.896453857421875	-5.2490234375	-2.98309326171875	10.187328063964843	0.6811503723144531	-0.3896563201904297	2.765655517578125	-4.730224609375	-1.8463134765625	
147	0.588	0.0	0.0	0.0	0.0	0.003	0.006	0.003	0.003	9.521740002441407	0.26815058593749996	0.43514615173339843	-0.26702880859375	-2.3040771484375	0.316619873046875	9.69771382446289	0.24600422058105467	0.25318682556152344	1.323699951171875	-4.84466552734375	-3.276824951171875	10.071807833862303	0.5728127471923827	-0.12449848632812499	2.918243408203125	-4.974365234375	-1.96075439453125	
148	0.592	0.0	0.0	0.0	0.0	0.003	0.006	0.006	-0.003	9.911994873046874	-0.24361001892089842	0.033518823242187495	-0.14495849609375	-2.185821533203125	-0.08392333984375	10.037690460205077	-0.12449848632812499	-0.008379705810546874	1.239776611328125	-5.321502685546875	-3.24249267578125	10.254365710449218	0.6452373474121094	-0.45489831542968745	3.021240234375	-4.535675048828125	-1.96075439453125	
149	0.596	0.0	0.0	0.0	0.0	0.003	0.006	0.003	0.006	9.553463174438477	0.3603273498535156	0.44592005920410155	0.54931640625	-2.66265869140625	-0.152587890625	9.67137760620117	0.3082534637451172	0.31543606872558594	0.90789794921875	-4.7607421875	-3.307342529296875	9.758765966796874	0.5799953521728515	0.16639701538085935	2.605438232421875	-4.528045654296875	-2.063751220703125	
150	0.6	0.0	0.0	0.0	0.0	0.006	0.003	0.006	0.003	9.850344180297851	0.6727706665039062	0.07481880187988281	2.0904541015625	-3.48663330078125	-0.5950927734375	10.01733974609375	-0.06703764648437499	0.047285482788085934	0.5340576171875	-4.749298095703125	-3.093719482421875	10.247781655883788	0.7541735229492187	-0.489015689086914	3.032684326171875	-4.72259521484375	-1.781463623046875	
151	0.604	0.0	0.0	0.0	0.0	0.003	0.003	0.003	0.006	9.512163195800781	0.5428852264404297	0.5452794281005859	1.010894775390625	-2.635955810546875	-0.286102294921875	9.71028338317871	0.1879448303222656	0.3094505645751953	1.0986328125	-4.840850830078125	-3.391265869140625	9.873089096069336	0.5003881469726562	0.08678981018066406	2.559661865234375	-4.57000732421875	-2.025604248046875	
152	0.608	0.0	0.0	0.0	0.0	0.003	0.003	0.003	0.006	9.816226806640625	0.5793968017578125	0.06284779357910156	1.644134521484375	-2.8228759765625	-0.8392333984375	9.725247143554688	-0.08678981018066406	0.3872621185302734	0.09918212890625	-4.863739013671875	-3.154754638671875	9.855731134033203	0.7146691955566405	-0.14963760375976562	2.475738525390625	-4.878997802734375	-2.429962158203125	
153	0.612	0.0	0.0	0.0	0.0	0.0	0.003	0.003	0.006	9.550470422363281	0.6524199523925781	0.5105635040283203	2.948760986328125	-3.894805908203125	-1.40380859375	9.647435589599608	0.32441432495117184	0.39863457641601563	0.202178955078125	-4.78363037109375	-3.162384033203125	9.77492682800293	0.5805939025878906	0.10474632263183593	2.74658203125	-4.76837158203125	-2.0904541015625	
154	0.616	0.0	0.0	0.0	0.0	0.006	0.006	0.003	0.009000000000000001	10.016142645263672	0.6302735870361328	-0.21068974609375	2.544403076171875	-3.292083740234375	-1.21307373046875	9.849147079467773	-0.14963760375976562	0.2723404388427734	0.209808349609375	-4.932403564453125	-3.047943115234375	9.89523546142578	0.6775590698242188	-0.22505495605468748	2.4871826171875	-4.7607421875	-2.35748291015625	
155	0.62	0.0	0.0	0.0	0.0	0.003	0.006	0.003	0.006	10.10053825378418	0.29568390502929687	-0.4177881896972656	5.06591796875	-5.153656005859375	-1.99127197265625	9.725845693969726	0.10295067138671875	0.06643909606933593	0.25177001953125	-4.70733642578125	-3.124237060546875	9.791087689208984	0.5871779571533203	-0.08319850769042968	2.50244140625	-4.6539306640625	-1.88446044921875	
156	0.624	0.0	0.0	0.0	0.0	0.006	0.006	0.006	0.003	10.034099157714843	0.6153098266601562	-0.2059013427734375	4.718780517578125	-4.650115966796875	-1.6632080078125	9.807847100830077	-0.1693897674560547	0.2567781280517578	-0.110626220703125	-4.92095947265625	-3.261566162109375	9.829394915771484	0.6847416748046875	-0.22445640563964842	2.69317626953125	-5.008697509765625	-2.288818359375	
157	0.628	0.0	0.0	0.0	0.0	0.0	0.006	0.006	0.003	10.06881508178711	0.17178396911621094	-0.43035774841308594	5.725860595703125	-5.657196044921875	-1.796722412109375	9.75517466430664	0.08858546142578125	-0.016759411621093748	0.396728515625	-4.791259765625	-2.84576416015625	9.782109432983399	0.5853823059082031	-0.07841010437011718	2.532958984375	-4.31060791015625	-1.89208984375	
158	0.632	0.0	0.0	0.0	0.0	0.003	0.003	0.003	0.006	9.973047015380859	-0.24779987182617186	-0.3286041778564453	4.73785400390625	-5.33294677734375	-1.06048583984375	9.744999307250977	-0.26396073303222656	-0.013766659545898436	0.225067138671875	-5.04302978515625	-2.44140625	9.85094273071289	0.6482300994873047	-0.19213468322753904	2.246856689453125	-5.031585693359375	-2.254486083984375	
159	0.636	0.0	0.0	0.0	0.0	0.006	0.003	0.006	0.003	10.012551342773437	-0.04608838195800781	-0.36272155151367186	5.825042724609375	-5.725860595703125	-1.7852783203125	9.676764559936522	0.16460136413574217	0.0047884033203125	-0.072479248046875	-4.642486572265625	-2.74658203125	9.826402163696288	0.6524199523925781	-0.24001871643066405	2.635955810546875	-4.352569580078125	-1.99127197265625	
160	0.64	0.0	0.0	0.0	0.0	0.003	0.003	0.003	0.003	9.82520506286621	-0.3190273712158203	-0.08858546142578125	2.81524658203125	-4.7149658203125	-0.54168701171875	9.707889181518555	-0.20709844360351562	0.037110125732421874	0.629425048828125	-5.466461181640625	-2.613067626953125	9.826402163696288	0.6853402252197265	0.12389993591308593	2.95257568359375	-4.596710205078125	-1.636505126953125	
161	0.644	0.0	0.0	0.0	0.0	0.006	0.006	0.006	0.003	9.89583401184082	-0.1484405029296875	-0.1592144104003906	4.608154296875	-5.321502685546875	-1.293182373046875	9.852738381958007	-0.020350714111328123	0.11611878051757812	1.21307373046875	-4.85992431640625	-3.047943115234375	9.957484704589843	0.5183446594238281	-0.36631285400390623	2.54058837890625	-4.61578369140625	-1.949310302734375	
162	0.648	0.0	0.0	0.0	0.0	0.003	0.006	0.006	0.006	9.758167416381836	-0.32501287536621093	0.06943184814453125	0.8392333984375	-3.360748291015625	0.05340576171875	9.749787710571288	-0.040701428222656245	0.025139117431640625	0.957489013671875	-5.519866943359375	-2.941131591796875	9.916783276367187	0.8164227661132812	-0.06943184814453125	3.536224365234375	-4.695892333984375	-1.40380859375	
163	0.652	0.0	0.0	0.0	0.0	0.006	0.003	0.003	0.009000000000000001	9.765948571777344	0.08020575561523437	0.33039982910156246	-0.659942626953125	-2.044677734375	0.579833984375	9.810241302490233	-0.008379705810546874	0.10893617553710937	1.049041748046875	-4.810333251953125	-3.021240234375	10.257957012939453	0.7003039855957031	-0.6302735870361328	3.002166748046875	-4.3792724609375	-1.38092041015625	
164	0.656	0.0	0.0	0.0	0.0	0.006	0.003	0.006	0.003	9.886855755615233	-0.3393780853271484	-0.02454056701660156	-0.644683837890625	-2.422332763671875	0.38909912109375	9.894038360595703	-0.002992752075195312	0.2232593048095703	0.881195068359375	-5.279541015625	-2.899169921875	9.766547122192382	0.7050923889160156	0.2166752502441406	2.838134765625	-4.390716552734375	-1.949310302734375	
165	0.66	0.0	0.0	0.0	0.0	0.003	0.003	0.006	0.003	9.853336932373047	0.5159504577636719	0.2088940948486328	3.2958984375	-3.96728515625	-0.8087158203125	9.802460147094726	-0.15682020874023436	0.2759317413330078	0.690460205078125	-4.703521728515625	-3.108978271484375	10.362703335571288	0.6111199737548828	-0.7661445312499999	2.796173095703125	-4.535675048828125	-1.617431640625	
166	0.664	0.0	0.0	0.0	0.0	0.006	0.006	0.003	0.006	9.935338339233398	0.19093758239746092	-0.12868833923339842	4.4097900390625	-4.78363037109375	-0.38909912109375	9.802460147094726	0.13287819213867186	0.3130418670654297	0.63323974609375	-5.214691162109375	-2.87628173828125	10.058041174316406	0.5758054992675781	-0.2807201446533203	3.18145751953125	-4.81414794921875	-1.735687255859375	
167	0.668	0.0	0.0	0.0	0.0	0.003	0.006	0.003	0.006	10.05564697265625	0.42018239135742186	-0.15382745666503905	4.947662353515625	-4.8370361328125	-1.373291015625	10.036493359375	-0.07122749938964844	-0.06464344482421874	0.9765625	-5.06591796875	-2.83050537109375	10.299855541992187	0.7457938171386719	-0.6392518432617187	3.2196044921875	-4.749298095703125	-1.30462646484375	
168	0.672	0.0	0.0	0.0	0.0	0.009000000000000001	0.006	0.006	0.003	9.714473236083984	0.507570751953125	0.27353753967285155	4.566192626953125	-5.24139404296875	-1.079559326171875	9.865307940673828	0.04668693237304687	0.14903905334472656	0.743865966796875	-5.413055419921875	-2.716064453125	10.1131078125	0.5374982727050781	-0.2519897247314453	2.9296875	-4.78363037109375	-1.77001953125	
169	0.676	0.0	0.0	0.0	0.0	0.009000000000000001	0.006	0.006	0.003	9.982025271606444	0.1693897674560547	-0.10654197387695312	5.413055419921875	-5.138397216796875	-1.0528564453125	10.022128149414062	-0.04608838195800781	-0.07003039855957031	0.957489013671875	-5.001068115234375	-2.735137939453125	10.273519323730468	0.729034405517578	-0.575206948852539	3.803253173828125	-4.512786865234375	-1.590728759765625	
170	0.68	0.0	0.0	0.0	0.0	0.003	0.003	0.003	0.003	9.57620809020996	0.44891281127929683	0.4572925170898437	3.54766845703125	-4.459381103515625	-0.762939453125	9.86411083984375	0.14784195251464843	0.29388825378417965	0.31280517578125	-5.05828857421875	-2.712249755859375	10.117896215820313	0.6578069061279297	-0.2813186950683594	2.74658203125	-4.52423095703125	-1.56402587890625	
171	0.684	0.0	0.0	0.0	0.0	0.003	0.006	0.006	0.003	9.779116680908203	0.09995791931152344	0.18255787658691405	-1.25885009765625	-1.65557861328125	-0.02288818359375	10.013748443603514	-0.0047884033203125	-0.07541735229492187	0.9307861328125	-4.962921142578125	-3.2958984375	10.196904870605469	0.7439981658935546	-0.48183308410644526	2.933502197265625	-4.459381103515625	-1.605987548828125	
172	0.6880000000000001	0.0	0.0	0.0	0.0	0.003	0.003	0.003	0.006	9.558251577758789	0.32441432495117184	0.469263525390625	1.80816650390625	-3.16619873046875	-0.58746337890625	9.545682019042967	0.18555062866210936	0.49679684448242184	0.57220458984375	-5.0506591796875	-3.05938720703125	9.999981784057617	0.6470329986572265	-0.14784195251464843	2.712249755859375	-4.730224609375	-2.01416015625	
173	0.6920000000000001	0.0	0.0	0.0	0.0	0.003	0.003	0.006	0.003	9.828796365356444	0.24899697265624998	0.1197100830078125	-0.759124755859375	-1.89208984375	0.18310546875	9.95389340209961	0.14006079711914063	-0.07841010437011718	0.58746337890625	-5.031585693359375	-3.108978271484375	10.044873065185547	0.7457938171386719	-0.3806780639648437	2.5634765625	-5.001068115234375	-1.857757568359375	
174	0.6960000000000001	0.0	0.0	0.0	0.0	0.006	0.003	0.006	0.003	9.63366893005371	0.3298012786865234	0.32142157287597656	1.3885498046875	-3.047943115234375	-0.453948974609375	9.636063131713867	0.052073886108398436	0.4339490509033203	0.324249267578125	-4.99725341796875	-3.173828125	9.76235726928711	0.47884033203125	0.061650692749023434	2.50244140625	-4.852294921875	-2.384185791015625	
175	0.7000000000000001	0.0	0.0	0.0	0.0	0.0	0.003	0.006	0.003	9.9078050201416	0.1484405029296875	0.032920272827148434	-0.370025634765625	-2.063751220703125	-0.22125244140625	9.890447058105469	-0.005985504150390624	0.10773907470703124	0.713348388671875	-4.634857177734375	-3.173828125	10.105326657104492	0.6925228302001952	-0.29089550170898437	2.704620361328125	-4.76837158203125	-1.903533935546875	
176	0.704	0.0	0.0	0.0	0.0	0.006	0.003	0.003	0.006	9.85094273071289	0.34117373657226563	-0.1083376251220703	2.216339111328125	-3.48663330078125	-0.8697509765625	9.475053070068359	0.14185644836425781	0.5572504364013672	0.9002685546875	-5.31005859375	-3.292083740234375	9.676166009521484	0.46806642456054687	0.17836802368164062	2.4261474609375	-4.7760009765625	-2.330780029296875	
177	0.708	0.0	0.0	0.0	0.0	0.006	0.006	0.003	0.003	9.855731134033203	0.3321954803466797	0.14604630126953125	-0.164031982421875	-2.452850341796875	-0.247955322265625	9.889249957275391	0.04249707946777344	0.06643909606933593	0.843048095703125	-5.207061767578125	-3.108978271484375	9.815628256225585	0.8864531646728515	-0.0053869537353515625	2.048492431640625	-4.791259765625	-2.3040771484375	
178	0.712	0.0	0.0	0.0	0.0	0.009000000000000001	0.006	0.003	0.003	9.88266590270996	0.4147954376220703	-0.09636661682128905	2.1514892578125	-3.383636474609375	-0.87738037109375	9.641450085449218	-0.005985504150390624	0.3860650177001953	0.18310546875	-4.756927490234375	-3.864288330078125	9.787496386718749	0.3908534210205078	0.09636661682128905	2.346038818359375	-4.497528076171875	-2.1820068359375	
179	0.716	0.0	0.0	0.0	0.0	0.003	0.003	0.006	0.006	9.820416659545899	0.354940396118164	0.16879121704101563	4.528045654296875	-1.880645751953125	-0.179290771484375	9.843760125732421	-0.017956512451171875	0.19093758239746092	0.78582763671875	-4.871368408203125	-3.055572509765625	9.83837317199707	0.852335791015625	-0.044891281127929686	2.3956298828125	-4.70733642578125	-2.09808349609375	
180	0.72	0.0	0.0	0.0	0.0	0.003	2.232	4.6530000000000005	4.62	9.841365924072266	0.5285200164794922	-0.030526071166992186	2.208709716796875	-3.2501220703125	-1.15203857421875	9.521141452026367	0.06703764648437499	0.5398924743652344	0.453948974609375	-4.840850830078125	-3.742218017578125	9.64623848876953	0.45549686584472654	0.18614917907714842	2.8228759765625	-4.4708251953125	-2.338409423828125	
181	0.724	0.0	0.0	0.0	0.0	4.641	4.665	4.665	4.623	10.00955859069824	0.5746083984375	-0.3345896820068359	4.375457763671875	-4.7760009765625	-1.70135498046875	9.790489138793944	0.010175357055664061	-0.017956512451171875	0.469207763671875	-4.985809326171875	-2.70843505859375	9.922768780517577	0.8966285217285156	-0.13347674255371092	2.452850341796875	-4.703521728515625	-2.12860107421875	
182	0.728	0.0	0.0	0.0	0.0	4.641	4.662	4.668	4.632	9.827000714111328	0.5027823486328125	-0.016759411621093748	2.712249755859375	-3.681182861328125	-1.10626220703125	9.552266073608397	0.07422025146484375	0.49320554199218747	0.34332275390625	-4.756927490234375	-3.6163330078125	9.886855755615233	0.4525041137695312	-0.18614917907714842	2.574920654296875	-4.596710205078125	-2.01416015625	
183	0.732	0.0	0.0	0.0	0.0	4.635	4.668	4.668	4.635	9.847949978637695	0.6171054779052734	-0.04967968444824218	4.150390625	-4.7760009765625	-1.6021728515625	9.654618194580078	-0.027533319091796873	0.1370680450439453	0.705718994140625	-5.2490234375	-2.910614013671875	9.798270294189452	0.9313444458007812	-0.13766659545898435	2.124786376953125	-4.79888916015625	-1.8463134765625	
184	0.736	0.0	0.0	0.0	0.0	4.638	4.668	4.668	4.638	9.949104998779296	0.4165910888671875	-0.06584054565429687	5.435943603515625	-5.603790283203125	-1.59454345703125	9.791087689208984	0.010773907470703125	0.14604630126953125	0.37384033203125	-4.970550537109375	-3.208160400390625	9.86411083984375	0.4860229370117187	-0.18854338073730467	2.5787353515625	-4.4097900390625	-1.728057861328125	
185	0.74	0.0	0.0	0.0	0.0	4.632	4.665	4.665	4.644	9.99220062866211	0.4417302062988281	-0.21188684692382811	3.337860107421875	-4.2266845703125	-1.041412353515625	9.791686239624022	-0.1131260284423828	0.028730419921875	0.736236572265625	-4.93621826171875	-3.01361083984375	10.012551342773437	0.7864952453613281	-0.10115502014160156	2.8533935546875	-4.398345947265625	-2.0294189453125	
186	0.744	0.0	0.0	0.0	0.0	4.644	4.668	4.671	4.6290000000000004	9.916783276367187	0.29927520751953124	-0.061650692749023434	5.176544189453125	-5.153656005859375	-1.644134521484375	9.713276135253906	0.017956512451171875	0.28790274963378903	0.423431396484375	-4.764556884765625	-3.265380859375	9.834183319091796	0.4495113616943359	-0.1322796417236328	2.87628173828125	-4.291534423828125	-1.5716552734375	
187	0.748	0.0	0.0	0.0	0.0	4.641	4.671	4.668	4.623	9.91558617553711	0.5374982727050781	-0.08499415893554688	3.7078857421875	-4.497528076171875	-1.354217529296875	9.85692823486328	0.06584054565429687	0.21966800231933592	0.58746337890625	-5.1116943359375	-2.735137939453125	9.840168823242188	0.8194155181884765	-0.010175357055664061	3.10516357421875	-4.802703857421875	-2.01416015625	
188	0.752	0.0	0.0	0.0	0.0	4.647	4.668	4.668	4.623	9.944316595458984	0.18076222534179687	-0.006584054565429687	4.283905029296875	-4.87518310546875	-1.13677978515625	9.871293444824218	-0.07900865478515624	0.054468087768554684	0.232696533203125	-4.970550537109375	-3.41796875	10.370484490966795	0.7009025360107421	-0.6003460662841796	2.902984619140625	-4.669189453125	-1.54876708984375	
189	0.756	0.0	0.0	0.0	0.0	4.644	4.665	4.668	4.635	9.96586441040039	0.3495534423828125	0.06045359191894531	3.753662109375	-4.688262939453125	-0.843048095703125	9.928155734252929	0.04249707946777344	0.04967968444824218	0.41961669921875	-4.825592041015625	-2.712249755859375	9.95329485168457	0.6703764648437499	-0.011971008300781249	3.025054931640625	-4.41741943359375	-1.865386962890625	
190	0.76	0.0	0.0	0.0	0.0	4.635	4.668	4.671	4.638	9.867702142333984	0.6278793853759765	0.0909796630859375	5.207061767578125	-5.481719970703125	-1.529693603515625	9.919776028442381	-0.09157821350097656	0.023343466186523436	0.919342041015625	-4.7454833984375	-2.864837646484375	10.122684619140625	0.7864952453613281	-0.3220201232910156	2.81524658203125	-4.535675048828125	-1.659393310546875	
191	0.764	0.0	0.0	0.0	0.0	4.641	4.668	4.668	4.641	9.93354268798828	0.40880993347167965	0.12509703674316405	4.9896240234375	-5.30242919921875	-1.5716552734375	9.90900212097168	0.09157821350097656	0.11791443176269531	0.63323974609375	-5.218505859375	-2.750396728515625	9.969455712890625	0.6979097839355468	-0.08200140686035155	2.803802490234375	-4.7760009765625	-1.27410888671875	
192	0.768	0.0	0.0	0.0	0.0	4.626	4.668	3.969	0.006	9.999383233642577	0.2346317626953125	-0.15382745666503905	1.739501953125	-4.825592041015625	-1.5106201171875	10.08677159423828	-0.14125789794921875	-0.1801636749267578	0.55694580078125	-4.99725341796875	-3.0059814453125	10.277110626220702	0.7350199096679687	-0.43155484924316406	3.01361083984375	-4.486083984375	-1.659393310546875	
193	0.772	0.0	0.0	0.0	0.0	0.006	0.006	0.006	0.006	9.815029705810547	0.10953472595214843	0.18375497741699218	4.291534423828125	-4.802703857421875	-1.068115234375	9.772532626342773	-0.04608838195800781	0.13826514587402344	0.682830810546875	-4.92095947265625	-2.529144287109375	10.104728106689452	0.4542997650146484	-0.3477577911376953	2.948760986328125	-4.82177734375	-1.9073486328125	
194	0.776	0.0	0.0	0.0	0.0	0.006	0.003	0.003	0.003	9.929951385498047	-0.04848258361816406	-0.0017956512451171875	1.48773193359375	-3.59344482421875	-0.560760498046875	9.984419473266602	-0.05386953735351562	-0.08080430603027343	0.67901611328125	-5.268096923828125	-2.73895263671875	10.19510921936035	0.9343371978759765	-0.5973533142089843	3.0517578125	-4.55474853515625	-1.434326171875	
195	0.78	0.0	0.0	0.0	0.0	0.006	0.003	0.003	0.006	9.90122096557617	0.30047230834960936	0.08918401184082031	5.458831787109375	-5.45501708984375	-1.45721435546875	9.7928833404541	0.22565350646972654	0.19093758239746092	0.7476806640625	-5.157470703125	-2.63214111328125	10.213065731811524	0.49739539489746093	-0.3220201232910156	3.101348876953125	-5.146026611328125	-1.857757568359375	
196	0.784	0.0	0.0	0.0	0.0	0.0	0.003	0.006	0.006	9.906607919311522	-0.30885201416015623	0.0526724365234375	0.553131103515625	-2.593994140625	-0.14495849609375	10.022726699829102	-0.09457096557617187	-0.13826514587402344	0.797271728515625	-4.756927490234375	-2.73895263671875	10.239401950073242	0.7140706451416016	-0.39983167724609375	2.635955810546875	-4.791259765625	-2.09808349609375	
197	0.788	0.0	0.0	0.0	0.0	0.003	0.006	0.006	0.006	9.741408004760741	0.19033903198242186	0.3872621185302734	-0.324249267578125	-2.2735595703125	-0.057220458984375	9.606734161376952	0.24061726684570311	0.3226186737060547	0.507354736328125	-5.19561767578125	-2.437591552734375	9.886257205200195	0.5548562347412109	-0.10654197387695312	3.017425537109375	-4.863739013671875	-1.705169677734375	
198	0.792	0.0	0.0	0.0	0.0	0.006	0.006	0.003	0.006	9.936535440063476	-0.19812018737792966	0.0143652099609375	-0.370025634765625	-2.376556396484375	0.324249267578125	9.93414123840332	-0.07721300354003906	0.03651157531738281	0.83160400390625	-5.039215087890625	-2.971649169921875	10.209474429321288	0.8002619049072265	-0.48123453369140623	2.81524658203125	-5.0048828125	-1.949310302734375	
199	0.796	0.0	0.0	0.0	0.0	0.006	0.003	0.003	0.006	9.809642752075195	-0.05027823486328125	0.09217676391601562	-0.091552734375	-1.911163330078125	0.049591064453125	9.794678991699218	0.1484405029296875	0.239420166015625	0.652313232421875	-4.833221435546875	-2.750396728515625	9.860519537353515	0.48542438659667964	0.033518823242187495	2.55584716796875	-4.787445068359375	-2.239227294921875	
200	0.8	0.0	0.0	0.0	0.0	0.006	0.006	0.006	0.003	9.753379013061522	-0.001197100830078125	0.24121581726074218	0.274658203125	-2.529144287109375	-0.171661376953125	9.817423907470703	-0.12569558715820311	0.11911153259277343	0.751495361328125	-5.199432373046875	-3.505706787109375	10.024522351074218	0.70868369140625	-0.3142389678955078	2.719879150390625	-4.9591064453125	-1.94549560546875	
201	0.804	0.0	0.0	0.0	0.0	0.006	0.003	0.003	0.003	9.73602105102539	0.2771288421630859	0.2154781494140625	-0.041961669921875	-2.46429443359375	-0.06866455078125	9.637260232543944	0.27832594299316404	0.22505495605468748	0.835418701171875	-5.123138427734375	-3.16619873046875	9.652223992919922	0.6763619689941406	0.08559270935058594	2.60162353515625	-4.852294921875	-2.094268798828125	
202	0.808	0.0	0.0	0.0	0.0	0.003	0.006	0.006	0.003	9.993397729492187	0.5524620330810547	-0.17597382202148437	3.101348876953125	-3.795623779296875	-1.15203857421875	10.013748443603514	-0.15322890625	0.06943184814453125	0.797271728515625	-5.100250244140625	-3.147125244140625	10.319009155273436	0.6751648681640625	-0.4842272857666015	2.35748291015625	-4.665374755859375	-2.300262451171875	
203	0.812	0.0	0.0	0.0	0.0	0.009000000000000001	0.003	0.006	0.003	9.77432827758789	0.25797522888183594	0.15322890625	0.713348388671875	-2.47955322265625	-0.690460205078125	9.64025298461914	0.08738836059570312	0.3603273498535156	0.5645751953125	-4.673004150390625	-3.57818603515625	9.725247143554688	0.4423287567138672	0.2280477081298828	2.52532958984375	-4.535675048828125	-1.93023681640625	
204	0.8160000000000001	0.0	0.0	0.0	0.0	0.006	0.006	0.003	0.003	9.859920986938477	0.5285200164794922	0.05027823486328125	3.238677978515625	-3.993988037109375	-1.4190673828125	9.586981997680663	-0.003591302490234375	0.4644751220703125	0.019073486328125	-4.817962646484375	-2.910614013671875	9.733626849365233	0.7894879974365234	-0.09816226806640624	2.44140625	-5.023956298828125	-2.166748046875	
205	0.8200000000000001	0.0	0.0	0.0	0.0	0.006	0.003	0.003	0.003	9.912593423461914	0.41060558471679687	-0.051475335693359374	-0.576019287109375	-2.017974853515625	-0.274658203125	9.76774422302246	0.36092590026855464	0.24181436767578124	0.43487548828125	-4.703521728515625	-3.421783447265625	9.874884747314452	0.5416881256103515	0.1197100830078125	2.3345947265625	-4.703521728515625	-1.99127197265625	
206	0.8240000000000001	0.0	0.0	0.0	0.0	0.0	0.003	0.003	0.003	10.00955859069824	0.6643909606933593	-0.28790274963378903	4.90570068359375	-4.802703857421875	-1.9683837890625	9.765948571777344	-0.41539398803710936	0.23044190979003906	-0.011444091796875	-4.6234130859375	-3.10516357421875	9.923965881347655	0.5668272430419922	-0.16220716247558592	2.410888671875	-4.673004150390625	-2.52532958984375	
207	0.8280000000000001	0.0	0.0	0.0	0.0	0.003	0.003	0.006	0.006	9.964667309570311	0.4291606475830078	-0.10773907470703124	6.313323974609375	-5.596160888671875	-1.93023681640625	9.734823950195311	0.21966800231933592	-0.023343466186523436	0.354766845703125	-4.817962646484375	-2.90679931640625	9.765948571777344	0.6153098266601562	-0.1227028350830078	2.471923828125	-4.459381103515625	-1.834869384765625	
208	0.8320000000000001	0.0	0.0	0.0	0.0	0.003	0.006	0.003	0.003	10.056844073486328	0.8667010009765624	-0.27832594299316404	6.404876708984375	-6.084442138671875	-2.353668212890625	9.751583361816406	-0.14185644836425781	0.258573779296875	-0.110626220703125	-5.126953125	-2.986907958984375	9.830592016601562	0.7960720520019531	-0.26695348510742184	2.422332763671875	-4.94384765625	-1.903533935546875	
209	0.836	0.0	0.0	0.0	0.0	0.003	0.003	0.003	0.006	10.134655627441406	0.23044190979003906	-0.354341845703125	6.610870361328125	-6.015777587890625	-2.0599365234375	9.900023864746093	-0.06823474731445311	-0.22744915771484372	0.16021728515625	-4.894256591796875	-2.346038818359375	10.035296258544921	0.508169302368164	-0.2472013214111328	2.857208251953125	-4.28009033203125	-1.85394287109375	
210	0.84	0.0	0.0	0.0	0.0	-0.006	0.003	0.003	0.003	10.011354241943359	0.7003039855957031	-0.15981296081542967	3.978729248046875	-4.878997802734375	-1.10626220703125	9.795876092529296	-0.11671733093261719	-0.09516951599121093	0.461578369140625	-4.99725341796875	-3.093719482421875	9.886257205200195	0.5386953735351562	-0.052073886108398436	2.8533935546875	-4.913330078125	-1.99127197265625	
211	0.844	0.0	0.0	0.0	0.0	0.003	0.006	0.003	0.003	9.958083255004881	0.2597708801269531	-0.10594342346191406	7.472991943359375	-6.76727294921875	-2.017974853515625	9.686939916992188	0.09516951599121093	-0.017956512451171875	-0.034332275390625	-5.02777099609375	-2.368927001953125	9.673771807861328	0.7320271575927734	-0.037110125732421874	2.689361572265625	-4.734039306640625	-1.7852783203125	
212	0.848	0.0	0.0	0.0	0.0	0.006	0.006	0.006	0.003	9.894038360595703	-0.6578069061279297	0.06464344482421874	1.59454345703125	-4.093170166015625	-0.09918212890625	9.842563024902343	-0.09516951599121093	-0.02693476867675781	0.423431396484375	-5.24139404296875	-2.719879150390625	10.011354241943359	0.6093243225097655	-0.09935936889648436	2.658843994140625	-4.673004150390625	-1.796722412109375	
213	0.852	0.0	0.0	0.0	0.0	0.006	0.003	0.003	0.003	9.97184991455078	-0.24361001892089842	-0.15382745666503905	4.169464111328125	-4.6539306640625	-1.270294189453125	9.771934075927733	-0.07362170104980469	-0.11192892761230468	1.033782958984375	-4.78363037109375	-3.444671630859375	9.96586441040039	0.47644613037109373	-0.20290859069824219	2.986907958984375	-4.5318603515625	-1.857757568359375	
214	0.856	0.0	0.0	0.0	0.0	0.003	0.006	0.006	0.003	9.71028338317871	-0.2759317413330078	0.3525461944580078	0.213623046875	-2.956390380859375	0.125885009765625	9.637858782958984	0.14784195251464843	0.16639701538085935	0.51116943359375	-5.336761474609375	-2.74658203125	9.725247143554688	0.824802471923828	0.059256491088867186	2.857208251953125	-4.901885986328125	-1.8463134765625	
215	0.86	0.0	0.0	0.0	0.0	0.003	0.006	0.003	0.006	9.750984811401366	0.013168109130859374	0.3298012786865234	-1.255035400390625	-1.556396484375	0.4425048828125	9.89583401184082	0.055066638183593745	0.15981296081542967	1.285552978515625	-5.07354736328125	-2.9754638671875	10.279504827880858	0.7428010650634765	-0.5632359405517577	2.788543701171875	-4.299163818359375	-1.399993896484375	
216	0.864	0.0	0.0	0.0	0.0	0.003	0.006	0.006	0.006	9.87009634399414	-0.3764882110595703	0.23822306518554687	-0.83160400390625	-1.6937255859375	0.324249267578125	9.882067352294921	-0.013766659545898436	-0.008978256225585938	0.965118408203125	-5.016326904296875	-3.360748291015625	10.129867224121092	0.5901707092285156	-0.19093758239746092	2.758026123046875	-4.535675048828125	-1.865386962890625	
217	0.868	0.0	0.0	0.0	0.0	0.0	0.006	0.003	0.006	9.83777462158203	0.3399766357421875	0.1197100830078125	0.396728515625	-2.597808837890625	-0.087738037109375	9.811438403320311	0.015562310791015624	0.09516951599121093	1.224517822265625	-4.848480224609375	-3.23486328125	10.110713610839843	0.7356184600830078	-0.42018239135742186	3.025054931640625	-4.657745361328125	-1.6021728515625	
218	0.872	0.0	0.0	0.0	0.0	0.003	0.006	0.006	0.006	9.88266590270996	0.11192892761230468	0.2136824981689453	0.9307861328125	-2.468109130859375	0.057220458984375	9.6151138671875	0.15741875915527342	0.4950011932373047	0.957489013671875	-5.359649658203125	-2.86102294921875	9.852139831542969	0.6362590911865234	-0.05566518859863281	2.838134765625	-4.680633544921875	-1.903533935546875	
219	0.876	0.0	0.0	0.0	0.0	0.006	0.003	0.003	0.006	10.17655415649414	0.12330138549804687	-0.36631285400390623	2.18963623046875	-3.726959228515625	-0.675201416015625	10.127473022460936	-0.10893617553710937	-0.1149216796875	0.8087158203125	-4.76837158203125	-2.864837646484375	10.484209069824217	0.6763619689941406	-0.7272387542724609	3.10516357421875	-4.199981689453125	-1.44195556640625	
220	0.88	0.0	0.0	0.0	0.0	0.003	0.003	0.003	0.003	9.642048635864258	0.5410895751953124	0.20290859069824219	4.238128662109375	-4.360198974609375	-1.163482666015625	9.6917283203125	0.09636661682128905	0.49260699157714843	0.48065185546875	-5.084991455078125	-3.208160400390625	10.028113653564452	0.49739539489746093	-0.08439560852050781	3.02886962890625	-4.695892333984375	-2.11334228515625	
221	0.884	0.0	0.0	0.0	0.0	0.003	0.003	0.006	0.006	9.90241806640625	0.05746083984375	-0.002992752075195312	3.070831298828125	-4.1351318359375	-0.79345703125	9.813832604980469	0.08858546142578125	0.15981296081542967	0.78582763671875	-5.19561767578125	-2.964019775390625	9.90840357055664	0.9301473449707031	-0.15502455749511718	2.60162353515625	-4.779815673828125	-1.7852783203125	
222	0.888	0.0	0.0	0.0	0.0	0.003	0.006	0.003	0.0	9.549273321533203	0.33399113159179683	0.29867665710449215	2.002716064453125	-3.4637451171875	-0.675201416015625	9.853336932373047	0.06344634399414062	0.2998737579345703	0.66375732421875	-4.878997802734375	-2.61688232421875	10.137049829101562	0.5859808563232421	-0.17178396911621094	2.6092529296875	-4.791259765625	-1.636505126953125	
223	0.892	0.0	0.0	0.0	0.0	0.006	0.006	0.003	0.003	9.87608184814453	-0.16519991455078123	0.10714052429199218	-0.823974609375	-1.60980224609375	-0.308990478515625	10.075399136352539	-0.0053869537353515625	-0.051475335693359374	1.04522705078125	-4.791259765625	-3.448486328125	10.249577307128906	0.6793547210693359	-0.4082113830566406	2.471923828125	-4.764556884765625	-2.109527587890625	
224	0.896	0.0	0.0	0.0	0.0	0.006	0.003	0.006	0.009000000000000001	9.405621221923827	0.2549824768066406	0.5201403106689453	-0.362396240234375	-2.033233642578125	-0.064849853515625	9.451111053466796	0.14903905334472656	0.5853823059082031	0.179290771484375	-4.840850830078125	-3.2501220703125	9.804255798339844	0.7146691955566405	0.08319850769042968	2.49481201171875	-4.638671875	-2.44140625	
225	0.9	0.0	0.0	0.0	0.0	0.006	0.006	0.006	0.0	9.855731134033203	0.39863457641601563	0.08499415893554688	-0.194549560546875	-2.3651123046875	-0.095367431640625	9.967061511230469	0.13287819213867186	0.01915361328125	0.926971435546875	-5.1116943359375	-3.01361083984375	9.958681805419921	0.8032546569824218	-0.22266075439453123	2.674102783203125	-4.9285888671875	-1.903533935546875	
226	0.904	0.0	0.0	0.0	0.0	0.006	0.003	0.003	0.003	9.731831198120117	0.12808978881835936	0.08439560852050781	-0.896453857421875	-1.93023681640625	0.030517578125	9.682151513671874	-0.034715924072265626	0.4644751220703125	0.29754638671875	-4.795074462890625	-3.27301025390625	9.853935482788085	0.38786066894531246	0.07541735229492187	2.468109130859375	-4.8980712890625	-2.38800048828125	
227	0.908	0.0	0.0	0.0	0.0	0.006	0.006	0.003	0.006	9.93294413757324	0.27174188842773433	-0.06284779357910156	0.90789794921875	-2.46429443359375	-0.751495361328125	9.730035546875	-0.07841010437011718	0.15861585998535155	0.705718994140625	-4.7454833984375	-3.231048583984375	9.937133990478515	0.7272387542724609	-0.15442600708007811	2.49481201171875	-4.680633544921875	-2.09808349609375	
228	0.912	0.0	0.0	0.0	0.0	0.006	0.003	0.003	0.006	9.76235726928711	0.5907692596435546	0.12449848632812499	4.245758056640625	-4.84466552734375	-1.758575439453125	9.47445451965332	0.2555810272216797	0.6075286712646484	0.759124755859375	-5.27191162109375	-3.265380859375	9.450512503051756	0.6308721374511719	0.30047230834960936	2.22015380859375	-5.001068115234375	-2.536773681640625	
229	0.916	0.0	0.0	0.0	0.0	0.07200000000000001	4.659	4.665	4.62	9.941323843383788	0.19931728820800781	-0.04608838195800781	0.553131103515625	-2.613067626953125	-0.38909912109375	9.866505041503906	-0.15861585998535155	0.10474632263183593	0.396728515625	-4.825592041015625	-2.716064453125	9.97783541870117	0.8451531860351562	-0.18614917907714842	2.4566650390625	-4.669189453125	-2.06756591796875	
230	0.92	0.0	0.0	0.0	0.0	4.638	4.665	4.665	4.623	9.891045608520507	0.4112041351318359	-0.08499415893554688	3.528594970703125	-3.910064697265625	-1.422882080078125	9.667786303710937	-0.037110125732421874	0.2813186950683594	0.217437744140625	-4.66156005859375	-3.627777099609375	9.712079034423828	0.36750995483398435	0.2561795776367187	2.28118896484375	-4.43267822265625	-2.407073974609375	
231	0.924	0.0	0.0	0.0	0.0	4.641	4.662	4.665	4.635	9.758765966796874	0.5662286926269531	0.105344873046875	0.713348388671875	-2.67791748046875	-0.476837158203125	9.588179098510741	0.0017956512451171875	0.2807201446533203	0.560760498046875	-5.0201416015625	-3.086090087890625	9.667187753295899	1.006163247680664	-0.13766659545898435	2.101898193359375	-4.985809326171875	-2.3651123046875	
232	0.928	0.0	0.0	0.0	0.0	4.638	4.668	4.671	4.635	9.898826763916015	0.3333925811767578	-0.12389993591308593	3.887176513671875	-4.451751708984375	-1.27410888671875	9.574412438964844	0.11552023010253906	0.34177228698730466	0.3662109375	-4.94384765625	-3.330230712890625	9.967660061645507	0.5925649108886718	-0.3711012573242187	3.08990478515625	-4.489898681640625	-1.3885498046875	
233	0.932	0.0	0.0	0.0	0.0	4.641	4.668	4.668	4.638	10.17655415649414	0.1580173095703125	-0.42497079467773435	4.547119140625	-4.92095947265625	-1.308441162109375	9.791087689208984	-0.2232593048095703	0.21966800231933592	0.19073486328125	-4.9285888671875	-2.880096435546875	9.937133990478515	0.6673837127685547	-0.061650692749023434	1.89208984375	-5.06591796875	-2.66265869140625	
234	0.936	0.0	0.0	0.0	0.0	4.632	4.668	4.668	4.647	9.787496386718749	0.41539398803710936	0.08080430603027343	3.398895263671875	-3.997802734375	-1.30462646484375	9.428366137695312	0.14604630126953125	0.469862075805664	0.31280517578125	-4.810333251953125	-3.528594970703125	9.804255798339844	0.5865794067382812	-0.09935936889648436	2.79998779296875	-4.344940185546875	-1.83868408203125	
235	0.9400000000000001	0.0	0.0	0.0	0.0	4.647	4.668	4.671	4.638	9.986813674926758	0.4584896179199218	-0.10354922180175781	4.241943359375	-4.84466552734375	-1.071929931640625	9.639055883789062	0.023343466186523436	0.24839842224121092	1.148223876953125	-5.603790283203125	-3.238677978515625	9.696516723632811	0.8457517364501953	0.08020575561523437	2.9296875	-4.67681884765625	-1.544952392578125	
236	0.9440000000000001	0.0	0.0	0.0	0.0	4.641	4.671	4.668	4.623	9.906009368896484	0.07362170104980469	-0.14006079711914063	4.199981689453125	-4.566192626953125	-1.132965087890625	9.695319622802733	-0.07122749938964844	0.18614917907714842	0.873565673828125	-4.619598388671875	-2.9754638671875	10.067617980957031	0.4495113616943359	-0.2771288421630859	2.6702880859375	-4.398345947265625	-1.590728759765625	
237	0.9480000000000001	0.0	0.0	0.0	0.0	4.644	4.668	4.668	4.626	9.94671079711914	-0.006584054565429687	-0.08140285644531249	2.15911865234375	-3.452301025390625	-0.659942626953125	9.718663088989258	-0.04908113403320312	0.1879448303222656	0.74005126953125	-5.039215087890625	-3.139495849609375	10.037091909790039	0.6027402679443359	-0.18854338073730467	3.032684326171875	-4.543304443359375	-1.93023681640625	
238	0.9520000000000001	0.0	0.0	0.0	0.0	4.641	4.665	4.668	4.638	9.859920986938477	0.48662148742675776	0.10354922180175781	4.26483154296875	-4.50897216796875	-1.01470947265625	9.751583361816406	0.02693476867675781	0.25139117431640623	0.86212158203125	-4.78363037109375	-2.9296875	9.770736975097655	0.7074865905761718	-0.1867477294921875	2.689361572265625	-4.558563232421875	-1.735687255859375	
239	0.9560000000000001	0.0	0.0	0.0	0.0	0.006	0.003	0.006	0.003	10.05564697265625	0.3130418670654297	-0.2328361114501953	3.269195556640625	-4.291534423828125	-0.782012939453125	9.805452899169921	-0.03411737365722656	0.07362170104980469	0.621795654296875	-5.2032470703125	-2.98309326171875	10.140042581176758	0.5919663604736328	-0.3286041778564453	3.032684326171875	-4.64630126953125	-1.621246337890625	
240	0.96	0.0	0.0	0.0	0.0	0.0	0.003	0.003	0.003	10.04906291809082	0.20949264526367187	-0.2316390106201172	5.161285400390625	-5.096435546875	-1.56402587890625	9.968258612060547	-0.18375497741699218	0.013168109130859374	0.904083251953125	-4.608154296875	-3.215789794921875	10.40639751586914	0.6512228515624999	-0.7026981872558593	2.98309326171875	-4.3487548828125	-1.438140869140625	
241	0.964	0.0	0.0	0.0	0.0	0.006	0.003	0.003	0.006	9.706093530273437	0.2454056701660156	0.19093758239746092	3.7689208984375	-4.756927490234375	-1.224517822265625	9.770736975097655	0.13347674255371092	0.28909985046386716	0.46539306640625	-5.008697509765625	-2.559661865234375	9.819818109130859	0.6590040069580078	-0.10594342346191406	3.070831298828125	-4.878997802734375	-1.873016357421875	
242	0.968	0.0	0.0	0.0	0.0	0.006	0.003	0.003	0.003	10.007762939453125	0.22565350646972654	-0.16998831787109375	5.268096923828125	-5.390167236328125	-1.346588134765625	9.89523546142578	-0.016759411621093748	0.03232172241210937	0.705718994140625	-5.18798828125	-2.93731689453125	10.210671530151366	0.8361749298095703	-0.556053335571289	2.971649169921875	-4.627227783203125	-1.41143798828125	
243	0.972	0.0	0.0	0.0	0.0	0.003	0.003	0.003	0.006	9.80006594543457	0.2041056915283203	0.06823474731445311	4.108428955078125	-4.619598388671875	-1.10626220703125	9.968258612060547	-0.023343466186523436	0.10953472595214843	0.530242919921875	-4.9591064453125	-2.87628173828125	10.201094723510742	0.40282442932128903	-0.1592144104003906	2.99835205078125	-4.7760009765625	-1.865386962890625	
244	0.976	0.0	0.0	0.0	0.0	0.009000000000000001	0.006	0.003	0.003	9.907206469726562	0.15861585998535155	-0.06404489440917968	5.4473876953125	-5.2337646484375	-1.5869140625	10.038289010620117	-0.14484920043945312	-0.030526071166992186	0.63323974609375	-4.909515380859375	-2.994537353515625	10.149020837402343	0.7918821990966797	-0.45489831542968745	2.857208251953125	-4.47845458984375	-1.750946044921875	
245	0.98	0.0	0.0	0.0	0.0	0.003	0.006	0.006	0.006	9.539696514892578	0.13108254089355467	0.4465186096191406	1.750946044921875	-3.60870361328125	-0.453948974609375	9.744400756835937	0.11013327636718749	0.373495458984375	0.354766845703125	-5.336761474609375	-2.727508544921875	9.8449572265625	0.5997475158691405	0.02633621826171875	2.81524658203125	-4.69207763671875	-1.827239990234375	
246	0.984	0.0	0.0	0.0	0.0	0.006	0.003	0.003	0.003	9.866505041503906	0.04249707946777344	0.04908113403320312	-1.399993896484375	-1.674652099609375	0.2593994140625	10.153210690307617	-0.1562216583251953	-0.029328970336914062	0.904083251953125	-4.993438720703125	-3.0517578125	10.398616360473632	0.661398208618164	-0.7308300567626953	2.696990966796875	-4.581451416015625	-1.953125	
247	0.988	0.0	0.0	0.0	0.0	0.006	0.003	0.006	0.006	9.569025485229492	0.10953472595214843	0.36152445068359373	0.762939453125	-2.73895263671875	-0.293731689453125	9.7162688873291	0.12389993591308593	0.3142389678955078	0.55694580078125	-4.852294921875	-3.2958984375	10.049661468505859	0.3962403747558593	-0.07721300354003906	2.727508544921875	-4.673004150390625	-1.888275146484375	
248	0.992	0.0	0.0	0.0	0.0	0.006	0.003	0.006	0.003	9.718064538574218	0.2771288421630859	0.2136824981689453	-1.094818115234375	-1.804351806640625	-0.00762939453125	9.941922393798828	-0.017956512451171875	0.07122749938964844	1.28936767578125	-5.28717041015625	-2.902984619140625	9.961076007080077	0.9576806640625	-0.28371289672851563	2.73895263671875	-4.779815673828125	-2.056121826171875	
249	0.996	0.0	0.0	0.0	0.0	0.003	0.003	0.003	0.006	9.535506661987304	0.05027823486328125	0.39803602600097654	0.701904296875	-2.2735595703125	-0.34332275390625	9.674968908691406	0.2693476867675781	0.3268085266113281	0.74005126953125	-5.146026611328125	-3.139495849609375	10.108319409179687	0.5410895751953124	-0.2825157958984375	2.899169921875	-4.98199462890625	-1.70135498046875	
250	1.0	0.0	0.0	0.0	0.0	0.003	0.003	0.006	0.006	9.823409411621093	0.1131260284423828	0.09157821350097656	-1.811981201171875	-1.499176025390625	0.030517578125	9.80724855041504	-0.20171148986816406	0.2663549346923828	0.1983642578125	-4.73785400390625	-3.246307373046875	10.290877285766602	0.6404489440917969	-0.5674257934570313	2.948760986328125	-4.566192626953125	-2.0751953125	
251	1.004	0.0	0.0	0.0	0.0	0.006	0.006	0.003	0.003	9.850344180297851	0.632667788696289	0.032920272827148434	0.74005126953125	-2.3040771484375	-0.499725341796875	9.600748657226562	0.3226186737060547	0.42437224426269526	0.6561279296875	-4.75311279296875	-3.13568115234375	9.674370358276366	0.623090982055664	0.03591302490234375	2.50244140625	-4.76837158203125	-2.223968505859375	
252	1.008	0.0	0.0	0.0	0.0	0.003	0.003	0.006	0.003	9.751583361816406	0.4626794708251953	0.2442085693359375	-1.667022705078125	-1.62506103515625	0.1678466796875	9.737218151855469	-0.011971008300781249	0.3699041564941406	0.3509521484375	-5.07354736328125	-2.933502197265625	10.091559997558592	0.8505401397705078	-0.4447229583740234	2.86865234375	-4.9591064453125	-2.06756591796875	
253	1.012	0.0	0.0	0.0	0.0	0.012	0.003	0.003	0.003	10.013748443603514	0.5279214660644531	-0.30466216125488277	1.781463623046875	-3.070831298828125	-1.316070556640625	9.792284790039062	0.21188684692382811	0.3716998077392578	0.2899169921875	-5.008697509765625	-2.956390380859375	9.837176071166992	0.5829881042480468	-0.020949264526367185	2.5634765625	-4.642486572265625	-1.96075439453125	
254	1.016	0.0	0.0	0.0	0.0	0.003	0.003	0.003	0.003	10.057442623901366	0.5644330413818359	-0.42018239135742186	7.305145263671875	-6.549835205078125	-2.58636474609375	9.779715231323241	-0.19093758239746092	0.2567781280517578	0.041961669921875	-4.955291748046875	-3.3416748046875	9.828197814941406	0.5542576843261718	-0.229843359375	2.4566650390625	-4.764556884765625	-2.597808837890625	
255	1.02	0.0	0.0	0.0	0.0	0.003	0.006	0.003	0.006	9.98561657409668	0.7739256866455078	-0.2555810272216797	3.467559814453125	-4.34112548828125	-1.537322998046875	9.570821136474608	0.277727392578125	0.201112939453125	0.217437744140625	-4.61578369140625	-2.838134765625	9.55106897277832	0.7104793426513671	0.09277531433105468	2.635955810546875	-4.8828125	-2.132415771484375	
256	1.024	0.0	0.0	0.0	0.0	0.006	0.006	0.003	0.006	10.015544094848632	0.45968671875	-0.39264907226562495	8.30841064453125	-6.988525390625	-2.727508544921875	9.947907897949218	-0.18555062866210936	-0.005985504150390624	0.28228759765625	-5.3863525390625	-2.99835205078125	9.896432562255859	0.6751648681640625	-0.2902969512939453	2.628326416015625	-4.924774169921875	-1.99127197265625	
257	1.028	0.0	0.0	0.0	0.0	0.003	0.003	0.003	0.003	10.038289010620117	0.45070846252441404	-0.4752490295410156	5.077362060546875	-5.096435546875	-1.96075439453125	9.724050042724608	0.06703764648437499	-0.015562310791015624	0.1068115234375	-4.711151123046875	-2.696990966796875	10.08737014465332	0.5889736083984375	-0.2567781280517578	2.67791748046875	-4.802703857421875	-1.983642578125	
258	1.032	0.0	0.0	0.0	0.0	0.003	0.006	0.006	0.003	9.854534033203125	0.2567781280517578	-0.14724340209960937	6.88934326171875	-6.439208984375	-2.03704833984375	9.631873278808593	-0.033518823242187495	0.08798691101074219	0.335693359375	-5.2947998046875	-2.99072265625	9.706093530273437	0.7451952667236328	-0.09157821350097656	2.468109130859375	-5.023956298828125	-2.31170654296875	
259	1.036	0.0	0.0	0.0	0.0	0.003	0.006	0.003	0.006	9.834781869506836	-0.008379705810546874	0.2567781280517578	2.7008056640625	-3.90625	-0.69427490234375	9.597157354736327	-0.06763619689941405	0.16998831787109375	0.080108642578125	-5.157470703125	-2.704620361328125	9.949104998779296	0.7487865692138671	-0.20829554443359374	2.590179443359375	-4.535675048828125	-1.6021728515625	
260	1.04	0.0	0.0	0.0	0.0	0.006	0.006	0.006	0.006	9.919177478027343	0.17836802368164062	-0.1406593475341797	4.825592041015625	-5.413055419921875	-1.36566162109375	9.785700735473633	0.04668693237304687	0.0939724151611328	0.614166259765625	-5.3863525390625	-3.162384033203125	9.95389340209961	0.6105214233398437	-0.13946224670410157	2.178192138671875	-4.901885986328125	-2.044677734375	
261	1.044	0.0	0.0	0.0	0.0	0.006	0.003	0.006	0.0	9.83178911743164	0.17058686828613281	0.23642741394042968	2.92205810546875	-3.879547119140625	-0.8392333984375	9.801861596679688	-0.13826514587402344	0.18315642700195311	0.457763671875	-4.5166015625	-3.05938720703125	9.955090502929687	0.6590040069580078	-0.21487959899902342	2.7923583984375	-4.44793701171875	-1.7547607421875	
262	1.048	0.0	0.0	0.0	0.0	0.003	0.006	0.003	0.003	9.835978970336914	0.3537432952880859	0.06404489440917968	1.556396484375	-3.3416748046875	-0.370025634765625	9.651625442504882	0.1879448303222656	0.20530279235839843	0.52642822265625	-5.1727294921875	-2.8533935546875	9.868899243164062	0.7835024932861328	-0.11192892761230468	3.27301025390625	-4.726409912109375	-1.59454345703125	
263	1.052	0.0	0.0	0.0	0.0	0.003	0.006	0.006	0.009000000000000001	10.041281762695311	0.3890577697753906	-0.07721300354003906	3.932952880859375	-4.375457763671875	-1.10626220703125	9.97903251953125	-0.20829554443359374	0.008379705810546874	0.6561279296875	-5.031585693359375	-3.017425537109375	10.06821653137207	0.5057751007080078	-0.24121581726074218	2.986907958984375	-4.608154296875	-1.796722412109375	
264	1.056	0.0	0.0	0.0	0.0	0.003	0.006	0.006	0.003	10.02332525024414	0.061650692749023434	0.033518823242187495	4.978179931640625	-5.130767822265625	-0.92315673828125	9.897031112670899	0.05027823486328125	0.24121581726074218	0.58746337890625	-4.98199462890625	-2.70843505859375	10.03050785522461	0.6200982299804687	-0.15442600708007811	3.002166748046875	-4.688262939453125	-1.74713134765625	
265	1.06	0.0	0.0	0.0	0.0	0.003	0.003	0.006	0.006	9.99220062866211	0.4255693450927734	-0.0939724151611328	6.2255859375	-6.134033203125	-1.873016357421875	9.743203656005859	0.06404489440917968	0.2214636535644531	0.522613525390625	-4.711151123046875	-3.04412841796875	10.13884548034668	0.7410054138183594	-0.45010991210937495	2.819061279296875	-4.47845458984375	-1.514434814453125	
266	1.064	0.0	0.0	0.0	0.0	0.003	0.006	0.006	0.006	9.83897172241211	0.07601590270996093	0.3010708587646484	4.940032958984375	-5.462646484375	-1.068115234375	9.91558617553711	0.0053869537353515625	0.22565350646972654	0.02288818359375	-5.40924072265625	-2.5177001953125	10.067617980957031	0.7272387542724609	-0.18375497741699218	2.9144287109375	-4.7607421875	-1.697540283203125	
267	1.068	0.0	0.0	0.0	0.0	0.006	0.006	0.003	0.006	9.80066449584961	-0.04967968444824218	0.23104046020507812	0.003814697265625	-2.170562744140625	0.148773193359375	10.11909331665039	-0.04249707946777344	-0.15981296081542967	1.338958740234375	-4.932403564453125	-3.231048583984375	10.390236654663086	0.5734112976074218	-0.5213374114990235	3.116607666015625	-4.2266845703125	-1.445770263671875	
268	1.072	0.0	0.0	0.0	0.0	0.003	0.006	0.006	0.006	9.679757312011718	0.32142157287597656	0.41060558471679687	3.444671630859375	-4.32586669921875	-0.644683837890625	9.817423907470703	0.03172317199707031	0.28730419921875	0.576019287109375	-5.481719970703125	-2.7313232421875	9.94072529296875	0.6649895111083984	-0.09816226806640624	2.788543701171875	-4.61578369140625	-2.223968505859375	
269	1.076	0.0	0.0	0.0	0.0	0.003	0.006	2.904	4.638	9.767145672607422	0.003591302490234375	0.2920926025390625	-0.37384033203125	-2.025604248046875	0.23651123046875	9.97125136413574	0.13646949462890623	-0.030526071166992186	1.224517822265625	-4.802703857421875	-2.933502197265625	10.24059905090332	0.7445967163085937	-0.5213374114990235	3.009796142578125	-4.604339599609375	-1.422882080078125	
270	1.08	0.0	0.0	0.0	0.0	4.638	4.662	4.665	4.632	9.83897172241211	0.08858546142578125	0.1867477294921875	3.05938720703125	-4.24957275390625	-0.90789794921875	9.68454571533203	0.04548983154296875	0.31483751831054685	0.762939453125	-5.10406494140625	-3.12042236328125	10.120290417480469	0.5027823486328125	-0.20709844360351562	2.8076171875	-4.9591064453125	-2.18963623046875	
271	1.084	0.0	0.0	0.0	0.0	4.644	4.668	4.668	4.623	9.907206469726562	-0.19093758239746092	0.1484405029296875	-0.812530517578125	-1.96075439453125	0.38909912109375	9.991003527832031	0.1005564697265625	-0.06584054565429687	0.92315673828125	-4.756927490234375	-2.9144287109375	10.179546908569336	0.8074445098876952	-0.4734533782958984	3.48663330078125	-4.50897216796875	-1.720428466796875	
272	1.088	0.0	0.0	0.0	0.0	4.641	4.668	4.665	4.623	9.69771382446289	0.3752911102294922	0.26755203552246093	0.67138671875	-2.86102294921875	-0.4730224609375	9.540893615722656	0.1388636962890625	0.4255693450927734	0.659942626953125	-5.21087646484375	-3.01361083984375	9.810839852905273	0.5847837554931641	0.034715924072265626	2.6397705078125	-4.863739013671875	-2.193450927734375	
273	1.092	0.0	0.0	0.0	0.0	4.641	4.665	4.665	4.632	9.943119494628906	-0.03232172241210937	0.04668693237304687	-0.560760498046875	-2.315521240234375	0.06866455078125	10.162188946533202	-0.061650692749023434	-0.2280477081298828	0.812530517578125	-5.077362060546875	-3.143310546875	10.105925207519531	0.8649053497314453	-0.3058592620849609	2.3956298828125	-4.9285888671875	-1.842498779296875	
274	1.096	0.0	0.0	0.0	0.0	4.635	4.671	4.668	4.635	9.80724855041504	0.13826514587402344	0.07122749938964844	0.57220458984375	-2.37274169921875	-0.63323974609375	9.685742816162108	0.10115502014160156	0.2454056701660156	0.827789306640625	-5.1116943359375	-3.253936767578125	10.031704956054687	0.41419688720703124	-0.06584054565429687	2.605438232421875	-4.642486572265625	-2.208709716796875	
275	1.1	0.0	0.0	0.0	0.0	4.638	4.668	4.668	4.641	9.89523546142578	-0.030526071166992186	0.08200140686035155	0.980377197265625	-3.22723388671875	-0.873565673828125	9.710881933593749	-0.011971008300781249	0.17657237243652343	0.965118408203125	-4.852294921875	-3.01361083984375	9.880271701049804	0.9241618408203125	-0.0987608184814453	2.460479736328125	-5.16510009765625	-2.223968505859375	
276	1.104	0.0	0.0	0.0	0.0	4.635	4.665	4.665	4.644	9.779116680908203	0.17238251953125	0.08020575561523437	0.911712646484375	-2.93731689453125	-0.362396240234375	9.674370358276366	0.24839842224121092	0.24600422058105467	0.61798095703125	-5.077362060546875	-2.46429443359375	9.585186346435547	0.517746109008789	0.10115502014160156	2.3651123046875	-5.016326904296875	-2.0294189453125	
277	1.108	0.0	0.0	0.0	0.0	4.644	4.668	4.668	4.6290000000000004	9.958083255004881	0.3585316986083984	-0.17836802368164062	1.861572265625	-3.37982177734375	-0.835418701171875	9.900023864746093	-0.22505495605468748	-0.04848258361816406	0.766754150390625	-5.25665283203125	-3.11279296875	10.146028085327147	0.7433996154785156	-0.2813186950683594	2.38037109375	-4.81414794921875	-2.262115478515625	
278	1.112	0.0	0.0	0.0	0.0	4.641	4.671	0.006	0.003	9.756371765136718	0.2166752502441406	0.04369418029785156	0.797271728515625	-2.834320068359375	-0.8392333984375	9.501987838745116	0.15263035583496093	0.36212300109863277	0.5340576171875	-4.726409912109375	-3.71551513671875	9.564237081909178	0.4950011932373047	0.1867477294921875	2.368927001953125	-4.741668701171875	-2.445220947265625	
279	1.116	0.0	0.0	0.0	0.0	0.003	0.003	0.006	0.006	9.820416659545899	0.2723404388427734	0.037110125732421874	1.644134521484375	-3.25775146484375	-0.5035400390625	9.771934075927733	-0.07781155395507812	0.1592144104003906	0.6561279296875	-5.3253173828125	-3.19671630859375	9.689932669067382	0.7613561279296874	0.06404489440917968	2.532958984375	-4.894256591796875	-2.185821533203125	
280	1.12	0.0	0.0	0.0	0.0	0.003	0.006	0.003	0.006	9.931148486328125	0.18734627990722655	-0.03172317199707031	2.246856689453125	-3.56292724609375	-0.72479248046875	9.668983404541015	0.15682020874023436	0.21248539733886718	0.720977783203125	-4.917144775390625	-3.520965576171875	9.742605105590819	0.46148236999511716	0.07841010437011718	2.0751953125	-4.6844482421875	-2.117156982421875	
281	1.124	0.0	0.0	0.0	0.0	0.003	0.003	0.003	0.003	9.861118087768554	0.229843359375	-0.023343466186523436	0.64849853515625	-2.8839111328125	-0.55694580078125	9.708487731933593	-0.2292448089599609	0.2166752502441406	0.576019287109375	-4.638671875	-2.994537353515625	9.872490545654296	0.5853823059082031	-0.07900865478515624	2.338409423828125	-4.596710205078125	-2.1514892578125	
282	1.1280000000000001	0.0	0.0	0.0	0.0	0.006	0.003	0.006	0.003	9.88266590270996	0.49320554199218747	0.08080430603027343	3.4637451171875	-4.138946533203125	-0.949859619140625	9.551667523193359	0.2663549346923828	0.3130418670654297	0.762939453125	-4.886627197265625	-3.3721923828125	9.564835632324218	0.6200982299804687	0.17776947326660156	2.597808837890625	-4.451751708984375	-2.76947021484375	
283	1.1320000000000001	0.0	0.0	0.0	0.0	0.003	0.003	0.006	0.006	9.928155734252929	0.41958384094238277	-0.16280571289062498	2.170562744140625	-3.391265869140625	-0.873565673828125	9.74799205932617	-0.22385785522460935	0.14604630126953125	0.86212158203125	-5.13458251953125	-2.986907958984375	9.842563024902343	0.6428431457519531	-0.06823474731445311	2.70843505859375	-5.123138427734375	-2.262115478515625	
284	1.1360000000000001	0.0	0.0	0.0	0.0	0.006	0.006	0.003	0.009000000000000001	10.00955859069824	0.3333925811767578	-0.07062894897460938	4.5013427734375	-4.364013671875	-1.255035400390625	9.900023864746093	-0.076614453125	0.04967968444824218	0.568389892578125	-4.9896240234375	-2.994537353515625	10.050858569335936	0.5967547637939453	-0.3082534637451172	2.849578857421875	-4.3487548828125	-1.918792724609375	
285	1.1400000000000001	0.0	0.0	0.0	0.0	0.006	0.006	0.003	0.006	10.053252770996092	0.11013327636718749	-0.181959326171875	4.947662353515625	-5.214691162109375	-1.60980224609375	9.619303720092773	-0.12689268798828124	0.30346506042480464	0.69427490234375	-5.31005859375	-3.02886962890625	9.73602105102539	0.7116764434814453	-0.07422025146484375	2.513885498046875	-4.787445068359375	-2.1514892578125	
286	1.1440000000000001	0.0	0.0	0.0	0.0	0.006	0.003	0.006	0.006	10.025719451904296	0.4112041351318359	-0.1406593475341797	4.940032958984375	-5.237579345703125	-1.476287841796875	9.822810861206055	-0.018555062866210937	-0.04129997863769531	0.423431396484375	-4.87518310546875	-3.009796142578125	9.890447058105469	0.7050923889160156	-0.21428104858398436	2.716064453125	-4.6539306640625	-1.6021728515625	
287	1.1480000000000001	0.0	0.0	0.0	0.0	0.006	0.003	0.006	0.003	10.067617980957031	0.011372457885742187	-0.17178396911621094	5.5389404296875	-5.680084228515625	-1.4190673828125	9.928754284667969	-0.02693476867675781	0.06284779357910156	0.25177001953125	-5.046844482421875	-2.681732177734375	10.083778842163085	0.4800374328613281	-0.25797522888183594	2.849578857421875	-4.608154296875	-1.895904541015625	
288	1.1520000000000001	0.0	0.0	0.0	0.0	0.006	0.003	0.006	0.006	10.034099157714843	0.48063598327636714	-0.12030863342285156	2.399444580078125	-3.925323486328125	-0.759124755859375	9.880271701049804	0.011971008300781249	-0.08559270935058594	0.492095947265625	-4.787445068359375	-2.895355224609375	9.955090502929687	0.699705435180664	-0.25438392639160157	2.7313232421875	-4.314422607421875	-2.002716064453125	
289	1.156	0.0	0.0	0.0	0.0	0.003	0.003	0.003	0.006	9.963470208740233	-0.06763619689941405	-0.09816226806640624	5.0506591796875	-5.451202392578125	-1.506805419921875	9.783905084228515	0.025737667846679687	0.11671733093261719	0.42724609375	-5.4168701171875	-2.5482177734375	9.906009368896484	0.6470329986572265	-0.12808978881835936	2.712249755859375	-4.6539306640625	-1.89971923828125	
290	1.16	0.0	0.0	0.0	0.0	0.006	0.006	0.003	0.006	9.82520506286621	-0.36152445068359373	0.2136824981689453	0.629425048828125	-2.742767333984375	0.156402587890625	9.949104998779296	-0.00718260498046875	0.03591302490234375	1.373291015625	-5.100250244140625	-3.143310546875	10.254365710449218	0.8098387115478515	-0.4159925384521484	2.960205078125	-4.634857177734375	-1.705169677734375	
291	1.164	0.0	0.0	0.0	0.0	0.006	0.006	0.006	0.003	9.912593423461914	-0.45669396667480466	0.013766659545898436	3.330230712890625	-4.47845458984375	-0.667572021484375	9.883264453125	-0.04249707946777344	0.001197100830078125	0.553131103515625	-5.18798828125	-2.960205078125	10.077194787597655	0.4800374328613281	-0.2041056915283203	2.99072265625	-4.7454833984375	-1.728057861328125	
292	1.168	0.0	0.0	0.0	0.0	0.003	0.006	0.006	0.006	9.698910925292969	-0.2154781494140625	0.36571430358886714	-0.942230224609375	-2.00653076171875	0.553131103515625	9.80066449584961	0.08738836059570312	0.21607669982910155	1.3275146484375	-5.138397216796875	-3.208160400390625	10.158597644042969	0.8511386901855468	-0.4082113830566406	2.880096435546875	-4.573822021484375	-1.8310546875	
293	1.172	0.0	0.0	0.0	0.0	0.003	0.006	0.003	0.003	9.475053070068359	0.4207809417724609	0.6272808349609375	-1.247406005859375	-1.6326904296875	0.54931640625	9.85692823486328	0.03531447448730469	0.6404489440917969	1.102447509765625	-4.573822021484375	-3.0059814453125	10.053252770996092	0.5716156463623047	-0.16519991455078123	2.84576416015625	-4.795074462890625	-1.77001953125	
294	1.176	0.0	0.0	0.0	0.0	0.006	0.003	0.003	0.006	9.765948571777344	-0.181959326171875	0.3315969299316406	-1.194000244140625	-1.71661376953125	0.484466552734375	9.975441217041014	-0.044292730712890624	0.020350714111328123	1.31988525390625	-4.680633544921875	-3.131866455078125	10.37467434387207	0.6769605194091797	-0.5566518859863281	2.925872802734375	-4.32586669921875	-1.80816650390625	
295	1.18	0.0	0.0	0.0	0.0	0.006	0.006	0.006	0.003	9.588777648925781	0.5979518646240234	0.40402153015136716	-0.331878662109375	-1.720428466796875	-0.1983642578125	9.591171850585937	0.14425065002441406	0.5351040710449219	0.885009765625	-5.0506591796875	-3.215789794921875	9.92755718383789	0.6416460449218749	0.00718260498046875	2.719879150390625	-4.81414794921875	-1.62506103515625	
296	1.184	0.0	0.0	0.0	0.0	0.006	0.006	0.006	0.003	9.834183319091796	0.14784195251464843	0.21906945190429686	-0.858306884765625	-1.850128173828125	0.3509521484375	9.92217023010254	0.1131260284423828	0.02633621826171875	0.873565673828125	-5.001068115234375	-3.047943115234375	10.196904870605469	0.7559691741943358	-0.5045779998779296	3.101348876953125	-4.566192626953125	-1.644134521484375	
297	1.188	0.0	0.0	0.0	0.0	0.006	0.003	0.003	0.003	9.718064538574218	0.6111199737548828	0.11731588134765625	2.338409423828125	-3.3416748046875	-0.83160400390625	9.677363110351562	0.030526071166992186	0.41539398803710936	0.629425048828125	-4.886627197265625	-3.08990478515625	9.993996279907225	0.6392518432617187	-0.007781155395507812	2.6702880859375	-4.84466552734375	-2.208709716796875	
298	1.192	0.0	0.0	0.0	0.0	0.003	0.003	0.003	0.003	9.849745629882811	0.34656069030761716	-0.03890577697753906	3.261566162109375	-4.0740966796875	-1.22833251953125	9.906009368896484	0.023343466186523436	-0.03411737365722656	0.55694580078125	-4.75311279296875	-3.21197509765625	10.081983190917969	0.7080851409912109	-0.32620997619628905	2.4871826171875	-4.82940673828125	-1.861572265625	
299	1.196	0.0	0.0	0.0	0.0	0.003	0.003	0.006	0.006	9.616310968017578	0.48722003784179685	0.24779987182617186	3.05938720703125	-4.131317138671875	-0.972747802734375	9.593566052246093	0.11731588134765625	0.4207809417724609	0.499725341796875	-5.069732666015625	-2.857208251953125	9.867702142333984	0.7900865478515624	-0.002992752075195312	2.5787353515625	-3.986358642578125	-2.353668212890625	
300	1.2	0.0	0.0	0.0	0.0	0.006	0.006	0.003	0.006	9.762955819702148	0.3968389251708984	0.11611878051757812	1.617431640625	-3.070831298828125	-0.736236572265625	9.941922393798828	0.12090718383789062	0.0053869537353515625	0.644683837890625	-4.856109619140625	-3.139495849609375	10.09335564880371	0.7529764221191406	-0.3585316986083984	2.5482177734375	-4.848480224609375	-1.739501953125	
301	1.204	0.0	0.0	0.0	0.0	0.003	0.003	0.006	0.006	9.57620809020996	0.3327940307617187	0.2867056488037109	1.12152099609375	-2.9296875	-0.83160400390625	9.673771807861328	-0.00718260498046875	0.3573345977783203	0.49591064453125	-4.932403564453125	-3.383636474609375	9.758167416381836	0.5003881469726562	-0.01975216369628906	2.58636474609375	-4.886627197265625	-2.712249755859375	
302	1.208	0.0	0.0	0.0	0.0	0.003	0.003	0.003	0.003	9.688735568237304	0.297479556274414	0.2232593048095703	-0.37384033203125	-2.010345458984375	-0.255584716796875	9.89583401184082	0.10594342346191406	-0.0017956512451171875	0.72479248046875	-5.077362060546875	-3.265380859375	9.967660061645507	0.881664761352539	-0.30346506042480464	2.498626708984375	-4.940032958984375	-2.040863037109375	
303	1.212	0.0	0.0	0.0	0.0	0.003	0.006	0.003	0.006	9.811438403320311	0.46806642456054687	-0.06284779357910156	1.39617919921875	-3.04412841796875	-0.743865966796875	9.540295065307618	0.09636661682128905	0.517746109008789	0.31280517578125	-4.913330078125	-3.475189208984375	9.609128363037108	0.5201403106689453	0.16340426330566404	2.590179443359375	-4.94384765625	-2.277374267578125	
304	1.216	0.0	0.0	0.0	0.0	0.003	0.006	0.006	0.003	9.90122096557617	0.2807201446533203	-0.05686228942871093	-0.698089599609375	-1.773834228515625	0.011444091796875	9.805452899169921	-0.08918401184082031	0.016759411621093748	0.5950927734375	-4.718780517578125	-2.78472900390625	10.140641131591796	0.8259995727539062	-0.37828386230468747	2.529144287109375	-4.878997802734375	-2.086639404296875	
305	1.22	0.0	0.0	0.0	0.0	0.003	0.003	0.003	4.62	9.920374578857421	0.4004302276611328	-0.13766659545898435	3.47900390625	-4.062652587890625	-1.16729736328125	9.559448678588867	0.14724340209960937	0.4782417816162109	0.545501708984375	-4.650115966796875	-3.421783447265625	9.60194575805664	0.43574470214843747	0.06703764648437499	2.38800048828125	-4.650115966796875	-2.25067138671875	
306	1.224	0.0	0.0	0.0	0.0	4.635	4.665	4.665	4.623	9.9215716796875	0.5973533142089843	-0.14784195251464843	5.237579345703125	-5.626678466796875	-1.5869140625	9.72285294189453	-0.09277531433105468	0.15382745666503905	0.385284423828125	-4.955291748046875	-2.7313232421875	9.76774422302246	0.9403227020263671	-0.047884033203124995	2.5634765625	-4.69970703125	-1.7852783203125	
307	1.228	0.0	0.0	0.0	0.0	4.647	4.665	4.665	4.623	9.819219558715819	0.5135562561035156	0.020949264526367185	4.062652587890625	-4.24957275390625	-1.300811767578125	9.785102185058593	-0.007781155395507812	0.1005564697265625	0.186920166015625	-4.60052490234375	-3.093719482421875	9.707889181518555	0.3333925811767578	0.013168109130859374	2.285003662109375	-4.489898681640625	-2.105712890625	
