	time	dac1	dac2	dac3	dac4	adc1.3	adc2.3	adc3.3	adc4.3	imu1accx	imu1accy	imu1accz	imu1gyrox	imu1gyroy	imu1gyroz	imu2accx	imu2accy	imu2accz	imu2gyrox	imu2gyroy	imu2gyroz	imu3accx	imu3accy	imu3accz	imu3gyrox	imu3gyroy	imu3gyroz	log
0	0.0	0.0	0.0	0.0	0.0	0.003	0.003	0.006	0.003	9.886855755615233	0.15562310791015624	0.012569558715820313	2.5634765625	-3.726959228515625	-1.0528564453125	9.79408044128418	-0.002992752075195312	0.14963760375976562	0.431060791015625	-4.947662353515625	-3.0364990234375	9.980229620361328	0.5351040710449219	-0.20470424194335937	2.712249755859375	-4.444122314453125	-1.796722412109375	Estabizou em 5s, 902 rpm
1	0.004	0.0	0.0	0.0	0.0	0.003	0.003	0.003	0.003	9.889249957275391	0.17836802368164062	0.001197100830078125	2.4871826171875	-3.814697265625	-0.87738037109375	9.794678991699218	0.032920272827148434	0.13347674255371092	0.51116943359375	-4.99725341796875	-3.009796142578125	9.964667309570311	0.5596446380615234	-0.21308394775390624	2.674102783203125	-4.79888916015625	-1.659393310546875	Started
2	0.008	0.0	0.0	0.0	0.0	0.006	0.006	0.003	0.006	9.87009634399414	0.18315642700195311	0.018555062866210937	2.5634765625	-3.955841064453125	-0.972747802734375	9.7683427734375	0.0383072265625	0.16340426330566404	0.518798828125	-5.1116943359375	-3.070831298828125	9.93294413757324	0.5608417388916015	-0.1867477294921875	2.69317626953125	-4.6234130859375	-1.56402587890625	IMU1|LSM6DS3|0x6A|I2C-1|±2g (±19,6m/s²)|±125º/s|400Hz
3	0.012	0.0	0.0	0.0	0.0	0.003	0.006	0.003	0.0	9.868899243164062	0.16280571289062498	0.04249707946777344	2.368927001953125	-3.66973876953125	-0.89263916015625	9.787496386718749	-0.003591302490234375	0.181959326171875	0.518798828125	-5.157470703125	-3.162384033203125	9.958681805419921	0.5488707305908203	-0.16699556579589842	2.803802490234375	-4.66156005859375	-1.789093017578125	IMU2|LSM6DS3|0x6B|I2C-1|±2g (±19,6m/s²)|±125º/s|400Hz
4	0.016	0.0	0.0	0.0	0.0	0.006	0.003	0.003	0.003	9.866505041503906	0.1227028350830078	0.04668693237304687	2.353668212890625	-3.70025634765625	-0.72479248046875	9.78629928588867	-0.027533319091796873	0.18914193115234373	0.736236572265625	-4.9896240234375	-3.2196044921875	9.97843396911621	0.5135562561035156	-0.15562310791015624	2.628326416015625	-4.6539306640625	-1.7547607421875	IMU3|LSM6DS3|0x6B|I2C-2|±2g (±19,6m/s²)|±125º/s|400Hz
5	0.02	0.0	0.0	0.0	0.0	0.006	0.006	0.003	0.003	9.867702142333984	0.13467384338378904	0.06045359191894531	2.46429443359375	-3.803253173828125	-1.0833740234375	9.785102185058593	-0.018555062866210937	0.19991583862304688	0.293731689453125	-4.863739013671875	-3.025054931640625	9.98501802368164	0.4991910461425781	-0.13646949462890623	2.880096435546875	-4.817962646484375	-1.796722412109375	ADC|ADS1015|0|0|1|0|±6,144 V|2400 SPS
6	0.024	0.0	0.0	0.0	0.0	0.003	0.003	0.003	0.006	9.862315188598632	0.17178396911621094	0.058657940673828124	2.593994140625	-3.57818603515625	-0.720977783203125	9.782707983398437	0.01915361328125	0.1897404815673828	0.579833984375	-5.115509033203125	-2.941131591796875	9.948506448364258	0.556053335571289	-0.1352723937988281	2.89154052734375	-4.84466552734375	-1.842498779296875	Gen1|Disabled
7	0.028	0.0	0.0	0.0	0.0	0.003	0.003	0.003	0.006	9.87009634399414	0.16460136413574217	0.04967968444824218	2.61688232421875	-3.92913818359375	-0.6256103515625	9.783905084228515	0.014963760375976562	0.18255787658691405	0.453948974609375	-5.13458251953125	-3.124237060546875	9.962273107910155	0.5428852264404297	-0.1640028137207031	2.8228759765625	-4.7607421875	-1.62506103515625	Gen2|Enabled|Noise|0.0|10.0|1668
8	0.032	0.0	0.0	0.0	0.0	0.006	0.003	0.006	0.006	9.868899243164062	0.13407529296874998	0.06105214233398437	2.55584716796875	-3.971099853515625	-0.865936279296875	9.787496386718749	-0.025737667846679687	0.19333178405761717	0.69427490234375	-5.08880615234375	-3.078460693359375	9.961076007080077	0.5033808990478515	-0.15263035583496093	2.742767333984375	-4.4708251953125	-1.76239013671875	Gen3|Enabled|Noise|0.0|10.0|128
9	0.036000000000000004	0.0	0.0	0.0	0.0	0.0	0.003	0.003	0.009000000000000001	9.874286196899414	0.143652099609375	0.086191259765625	2.574920654296875	-3.856658935546875	-0.74005126953125	9.78031378173828	-0.012569558715820313	0.20829554443359374	0.545501708984375	-4.81414794921875	-2.9296875	9.957484704589843	0.5195417602539062	-0.13587094421386717	2.613067626953125	-4.619598388671875	-1.77764892578125	Gen4|Enabled|Noise|0.0|10.0|128
10	0.04	0.0	0.0	0.0	0.0	0.003	0.006	0.003	0.006	9.881468801879882	0.15741875915527342	0.08559270935058594	2.3040771484375	-3.757476806640625	-0.743865966796875	9.789292037963866	0.013168109130859374	0.21188684692382811	0.286102294921875	-5.0048828125	-3.08990478515625	9.97903251953125	0.5440823272705078	-0.13407529296874998	2.73895263671875	-4.75311279296875	-1.934051513671875	Ctrl|Disabled
11	0.044	0.0	0.0	0.0	0.0	0.003	0.003	0.003	0.003	9.880870251464843	0.1388636962890625	0.08379705810546874	2.41851806640625	-3.932952880859375	-0.77056884765625	9.79946739501953	-0.011971008300781249	0.2059013427734375	0.75531005859375	-5.096435546875	-3.4027099609375	9.986215124511718	0.5141548065185546	-0.13587094421386717	2.788543701171875	-4.787445068359375	-1.8157958984375	
12	0.048	0.0	0.0	0.0	0.0	0.006	0.006	0.003	0.006	9.88386300354004	0.14185644836425781	0.08499415893554688	2.3193359375	-3.696441650390625	-0.888824462890625	9.78629928588867	-0.011971008300781249	0.21787235107421873	0.49591064453125	-5.2032470703125	-3.131866455078125	9.977236868286132	0.5231330627441406	-0.12868833923339842	2.52532958984375	-4.7149658203125	-1.865386962890625	
13	0.052000000000000005	0.0	0.0	0.0	0.0	0.006	0.003	0.003	0.006	9.846752877807617	0.12988544006347655	0.10175357055664062	2.23541259765625	-3.73077392578125	-0.705718994140625	9.776722479248047	-0.011971008300781249	0.23642741394042968	0.423431396484375	-5.245208740234375	-3.200531005859375	9.956886154174803	0.5129577056884765	-0.11372457885742186	2.872467041015625	-4.772186279296875	-1.583099365234375	
14	0.056	0.0	0.0	0.0	0.0	0.003	0.003	0.003	0.006	9.843760125732421	0.1083376251220703	0.09038111267089843	2.536773681640625	-3.8299560546875	-1.129150390625	9.78031378173828	-0.03591302490234375	0.2280477081298828	0.652313232421875	-4.96673583984375	-3.078460693359375	9.965265859985351	0.49320554199218747	-0.1083376251220703	2.6092529296875	-4.5623779296875	-1.6937255859375	
15	0.06	0.0	0.0	0.0	0.0	0.006	0.006	0.003	0.006	9.862315188598632	0.14784195251464843	0.09636661682128905	2.307891845703125	-3.704071044921875	-1.09100341796875	9.784503634643555	-0.016759411621093748	0.21188684692382811	0.522613525390625	-4.9285888671875	-3.215789794921875	9.977236868286132	0.5063736511230469	-0.1131260284423828	2.64739990234375	-4.726409912109375	-1.983642578125	
16	0.064	0.0	0.0	0.0	0.0	0.006	0.006	0.003	0.003	9.872490545654296	0.15322890625	0.09516951599121093	2.445220947265625	-3.658294677734375	-0.980377197265625	9.784503634643555	0.008379705810546874	0.20949264526367187	0.8544921875	-5.329132080078125	-3.292083740234375	9.967660061645507	0.5500678314208984	-0.12689268798828124	2.605438232421875	-4.543304443359375	-1.850128173828125	
17	0.068	0.0	0.0	0.0	0.0	0.006	0.003	0.003	0.003	9.87668039855957	0.143652099609375	0.0939724151611328	2.46429443359375	-3.742218017578125	-0.92315673828125	9.78689783630371	-0.011971008300781249	0.2184709014892578	0.67901611328125	-5.161285400390625	-3.154754638671875	9.967660061645507	0.5291185668945312	-0.11731588134765625	2.7923583984375	-4.92095947265625	-1.93023681640625	
18	0.07200000000000001	0.0	0.0	0.0	0.0	0.003	0.006	0.003	0.003	9.871891995239258	0.13467384338378904	0.076614453125	2.574920654296875	-3.8909912109375	-0.885009765625	9.789890588378906	-0.022146365356445312	0.20530279235839843	0.453948974609375	-4.81414794921875	-3.04412841796875	9.984419473266602	0.5057751007080078	-0.1274912384033203	2.704620361328125	-4.5318603515625	-1.93023681640625	
19	0.076	0.0	0.0	0.0	0.0	0.0	0.006	0.006	0.003	9.866505041503906	0.15322890625	0.07003039855957031	2.445220947265625	-3.60870361328125	-0.77056884765625	9.789890588378906	0.0047884033203125	0.19512743530273435	0.762939453125	-5.21087646484375	-3.154754638671875	9.967660061645507	0.5267243652343749	-0.14245499877929688	2.6702880859375	-4.749298095703125	-1.739501953125	
20	0.08	0.0	0.0	0.0	0.0	0.003	0.006	0.003	0.006	9.86411083984375	0.18136077575683593	0.06344634399414062	2.826690673828125	-3.80706787109375	-0.732421875	9.784503634643555	0.020949264526367185	0.19153613281249998	0.545501708984375	-5.168914794921875	-3.047943115234375	9.956287603759765	0.5500678314208984	-0.1610100616455078	2.582550048828125	-4.810333251953125	-1.773834228515625	
21	0.084	0.0	0.0	0.0	0.0	0.006	0.006	0.003	0.003	9.867702142333984	0.181959326171875	0.055066638183593745	2.55584716796875	-3.76129150390625	-0.7171630859375	9.789890588378906	0.01975216369628906	0.16998831787109375	0.560760498046875	-5.008697509765625	-3.2196044921875	9.970652813720703	0.546476528930664	-0.16819266662597654	2.62451171875	-4.45556640625	-1.56402587890625	
22	0.088	0.0	0.0	0.0	0.0	-0.006	0.003	0.003	0.003	9.87009634399414	0.17238251953125	0.0383072265625	2.57110595703125	-3.662109375	-0.682830810546875	9.787496386718749	0.007781155395507812	0.17238251953125	0.518798828125	-5.031585693359375	-3.116607666015625	9.97843396911621	0.5398924743652344	-0.17477672119140625	2.64739990234375	-4.749298095703125	-1.7852783203125	
23	0.092	0.0	0.0	0.0	0.0	0.006	0.003	0.003	0.006	9.860519537353515	0.16879121704101563	0.03651157531738281	2.50244140625	-3.917694091796875	-0.934600830078125	9.791087689208984	0.023343466186523436	0.17058686828613281	0.720977783203125	-5.115509033203125	-3.0670166015625	9.97244846496582	0.5578489868164063	-0.17417817077636719	2.655029296875	-4.589080810546875	-1.739501953125	
24	0.096	0.0	0.0	0.0	0.0	0.006	0.003	0.003	0.0	9.867702142333984	0.18136077575683593	0.016759411621093748	2.3345947265625	-3.7994384765625	-0.843048095703125	9.785102185058593	0.025737667846679687	0.15562310791015624	0.469207763671875	-5.214691162109375	-3.1585693359375	9.973645565795898	0.565031591796875	-0.18854338073730467	2.780914306640625	-4.82940673828125	-1.918792724609375	
25	0.1	0.0	0.0	0.0	0.0	0.003	0.006	0.003	0.009000000000000001	9.880870251464843	0.19991583862304688	0.012569558715820313	2.269744873046875	-3.719329833984375	-0.751495361328125	9.78629928588867	0.04189852905273437	0.13587094421386717	0.896453857421875	-4.947662353515625	-3.12042236328125	9.968857162475585	0.5716156463623047	-0.21248539733886718	2.857208251953125	-4.604339599609375	-1.842498779296875	
26	0.10400000000000001	0.0	0.0	0.0	0.0	0.006	0.006	0.003	0.006	9.868899243164062	0.201112939453125	0.0017956512451171875	2.7923583984375	-3.818511962890625	-0.61798095703125	9.779116680908203	0.054468087768554684	0.13766659545898435	0.377655029296875	-4.886627197265625	-2.899169921875	9.950900650024414	0.5835866546630859	-0.21188684692382811	2.750396728515625	-4.825592041015625	-1.819610595703125	
27	0.108	0.0	0.0	0.0	0.0	0.006	0.003	0.003	0.003	9.86411083984375	0.20530279235839843	0.004189852905273437	2.532958984375	-3.978729248046875	-0.8392333984375	9.78031378173828	0.05805939025878906	0.14245499877929688	0.606536865234375	-5.161285400390625	-3.1585693359375	9.947907897949218	0.5793968017578125	-0.21248539733886718	2.69317626953125	-4.756927490234375	-1.86920166015625	
28	0.112	0.0	0.0	0.0	0.0	0.003	0.003	0.006	0.003	9.867702142333984	0.19572598571777342	0.0017956512451171875	2.620697021484375	-3.849029541015625	-0.614166259765625	9.788094937133788	0.051475335693359374	0.14245499877929688	0.74005126953125	-5.077362060546875	-3.162384033203125	9.962273107910155	0.5764040496826172	-0.22565350646972654	2.5634765625	-4.497528076171875	-1.6632080078125	
29	0.116	0.0	0.0	0.0	0.0	0.006	0.006	0.003	0.003	9.867702142333984	0.20829554443359374	-0.017956512451171875	2.5787353515625	-3.95965576171875	-0.89263916015625	9.78629928588867	0.05027823486328125	0.1352723937988281	0.621795654296875	-5.07354736328125	-3.047943115234375	9.967660061645507	0.575206948852539	-0.2232593048095703	2.70843505859375	-4.734039306640625	-1.819610595703125	
30	0.12	0.0	0.0	0.0	0.0	0.003	0.006	0.006	0.006	9.872490545654296	0.2232593048095703	-0.008978256225585938	2.26593017578125	-3.658294677734375	-0.79345703125	9.782707983398437	0.062249243164062495	0.12868833923339842	0.598907470703125	-4.886627197265625	-3.28826904296875	9.958083255004881	0.5943605621337891	-0.2232593048095703	2.521514892578125	-4.52423095703125	-1.689910888671875	
31	0.124	0.0	0.0	0.0	0.0	0.006	0.006	0.003	0.006	9.8694977935791	0.21727380065917967	-0.009576806640625	2.696990966796875	-3.749847412109375	-0.8392333984375	9.783905084228515	0.05626373901367187	0.1304839904785156	0.591278076171875	-5.08880615234375	-3.192901611328125	9.959280355834961	0.5943605621337891	-0.21009119567871093	2.880096435546875	-4.734039306640625	-1.8157958984375	
32	0.128	0.0	0.0	0.0	0.0	0.003	0.006	0.003	0.003	9.861118087768554	0.1927332336425781	-0.009576806640625	2.40325927734375	-3.72314453125	-0.728607177734375	9.785102185058593	0.040102877807617184	0.12689268798828124	0.45013427734375	-4.8980712890625	-3.0059814453125	9.975441217041014	0.5686228942871093	-0.2232593048095703	2.880096435546875	-4.711151123046875	-1.857757568359375	
33	0.132	0.0	0.0	0.0	0.0	0.003	0.006	0.003	0.003	9.854534033203125	0.20530279235839843	-0.013168109130859374	2.208709716796875	-3.631591796875	-0.926971435546875	9.784503634643555	0.04189852905273437	0.12330138549804687	0.438690185546875	-5.054473876953125	-3.19671630859375	9.964667309570311	0.5728127471923827	-0.22505495605468748	2.750396728515625	-4.718780517578125	-1.5106201171875	
34	0.136	0.0	0.0	0.0	0.0	0.003	0.003	0.006	0.006	9.868899243164062	0.21009119567871093	-0.012569558715820313	2.567291259765625	-4.016876220703125	-0.858306884765625	9.782707983398437	0.044292730712890624	0.1466448516845703	0.45013427734375	-5.153656005859375	-3.017425537109375	9.956287603759765	0.5781997009277343	-0.21428104858398436	2.689361572265625	-4.665374755859375	-1.758575439453125	
35	0.14	0.0	0.0	0.0	0.0	0.003	0.003	0.003	0.003	9.87727894897461	0.19692308654785154	-0.0005985504150390625	2.532958984375	-3.704071044921875	-0.701904296875	9.78629928588867	0.029927520751953124	0.143652099609375	0.774383544921875	-5.008697509765625	-3.08990478515625	9.975441217041014	0.5740098480224609	-0.21009119567871093	2.613067626953125	-4.566192626953125	-1.80816650390625	
36	0.14400000000000002	0.0	0.0	0.0	0.0	0.003	0.006	0.003	0.003	9.873089096069336	0.18614917907714842	0.013766659545898436	2.4566650390625	-3.76129150390625	-0.919342041015625	9.794678991699218	0.029927520751953124	0.143652099609375	0.644683837890625	-4.871368408203125	-3.02886962890625	9.968258612060547	0.5710170959472656	-0.19213468322753904	2.70843505859375	-4.7607421875	-1.758575439453125	
37	0.148	0.0	0.0	0.0	0.0	0.003	0.003	0.003	0.003	9.867702142333984	0.18555062866210936	0.034715924072265626	2.620697021484375	-3.7384033203125	-0.6866455078125	9.7928833404541	0.029328970336914062	0.16519991455078123	0.6103515625	-5.092620849609375	-3.143310546875	9.963470208740233	0.565031591796875	-0.19333178405761717	2.788543701171875	-4.726409912109375	-1.865386962890625	
38	0.152	0.0	0.0	0.0	0.0	0.009000000000000001	0.003	0.003	0.003	9.874286196899414	0.18136077575683593	0.028730419921875	2.422332763671875	-3.6773681640625	-0.759124755859375	9.794678991699218	0.02693476867675781	0.1592144104003906	0.782012939453125	-5.0811767578125	-3.269195556640625	9.96586441040039	0.55545478515625	-0.17776947326660156	2.69317626953125	-4.33349609375	-1.64794921875	
39	0.156	0.0	0.0	0.0	0.0	0.006	0.006	0.006	0.003	9.87727894897461	0.17776947326660156	0.025737667846679687	2.429962158203125	-3.780364990234375	-0.843048095703125	9.783306533813477	0.015562310791015624	0.16759411621093748	0.713348388671875	-4.82177734375	-3.116607666015625	9.967660061645507	0.5536591339111328	-0.1897404815673828	2.841949462890625	-4.6234130859375	-1.7242431640625	
40	0.16	0.0	0.0	0.0	0.0	0.009000000000000001	0.006	0.003	0.003	9.873687646484374	0.16879121704101563	0.04249707946777344	2.51007080078125	-3.650665283203125	-0.949859619140625	9.784503634643555	0.018555062866210937	0.18255787658691405	0.530242919921875	-4.96673583984375	-3.185272216796875	9.957484704589843	0.5512649322509765	-0.17657237243652343	2.8839111328125	-4.375457763671875	-1.71661376953125	
41	0.164	0.0	0.0	0.0	0.0	0.003	0.003	0.003	0.006	9.865906491088866	0.14963760375976562	0.051475335693359374	2.498626708984375	-3.7078857421875	-0.911712646484375	9.781510882568359	0.016160861206054686	0.2041056915283203	0.38909912109375	-5.01251220703125	-3.16619873046875	9.963470208740233	0.5333084197998047	-0.15502455749511718	2.6702880859375	-4.734039306640625	-1.743316650390625	
42	0.168	0.0	0.0	0.0	0.0	0.006	0.003	0.003	0.006	9.872490545654296	0.1352723937988281	0.06284779357910156	2.46429443359375	-3.7689208984375	-0.87738037109375	9.790489138793944	-0.011971008300781249	0.18854338073730467	0.58746337890625	-5.146026611328125	-3.200531005859375	9.969455712890625	0.5243301635742187	-0.15562310791015624	2.674102783203125	-4.63104248046875	-1.8310546875	
43	0.17200000000000001	0.0	0.0	0.0	0.0	0.006	0.003	0.003	0.006	9.87009634399414	0.14185644836425781	0.0652419952392578	2.349853515625	-3.59344482421875	-0.89263916015625	9.791686239624022	-0.015562310791015624	0.19153613281249998	0.63323974609375	-4.795074462890625	-3.0975341796875	9.957484704589843	0.517746109008789	-0.143652099609375	2.780914306640625	-4.802703857421875	-1.758575439453125	
44	0.176	0.0	0.0	0.0	0.0	0.006	0.003	0.003	0.003	9.87608184814453	0.15682020874023436	0.09157821350097656	2.475738525390625	-3.570556640625	-0.86212158203125	9.792284790039062	-0.011971008300781249	0.2059013427734375	0.732421875	-5.130767822265625	-3.1280517578125	9.957484704589843	0.5219359619140624	-0.13407529296874998	2.41851806640625	-4.57763671875	-1.972198486328125	
45	0.18	0.0	0.0	0.0	0.0	0.003	0.003	0.006	0.006	9.874286196899414	0.14484920043945312	0.086191259765625	2.460479736328125	-3.89862060546875	-0.804901123046875	9.780912332153319	-0.020949264526367185	0.2136824981689453	0.60272216796875	-5.0811767578125	-3.131866455078125	9.958681805419921	0.5159504577636719	-0.12509703674316405	2.55584716796875	-4.72259521484375	-1.758575439453125	
46	0.184	0.0	0.0	0.0	0.0	0.006	0.006	0.003	0.003	9.867702142333984	0.10773907470703124	0.09277531433105468	2.483367919921875	-3.7994384765625	-1.04522705078125	9.788693487548828	-0.03531447448730469	0.21308394775390624	0.61798095703125	-5.0506591796875	-2.948760986328125	9.973047015380859	0.49679684448242184	-0.11013327636718749	2.5482177734375	-4.5013427734375	-1.79290771484375	
47	0.188	0.0	0.0	0.0	0.0	0.006	0.003	0.003	0.006	9.8694977935791	0.1083376251220703	0.10594342346191406	2.3651123046875	-3.841400146484375	-0.957489013671875	9.787496386718749	-0.033518823242187495	0.22445640563964842	0.79345703125	-5.21087646484375	-3.223419189453125	9.968258612060547	0.49799394531249996	-0.1131260284423828	2.67791748046875	-4.756927490234375	-1.8157958984375	
48	0.192	0.0	0.0	0.0	0.0	0.006	0.006	0.003	0.006	9.880870251464843	0.11252747802734374	0.105344873046875	2.574920654296875	-3.955841064453125	-1.0223388671875	9.789890588378906	-0.03172317199707031	0.22565350646972654	0.698089599609375	-4.9285888671875	-3.19671630859375	9.976638317871092	0.49021278991699213	-0.11552023010253906	2.918243408203125	-4.608154296875	-1.65557861328125	
49	0.196	0.0	0.0	0.0	0.0	0.006	0.003	0.006	0.003	9.883264453125	0.11013327636718749	0.08978256225585937	2.605438232421875	-3.84521484375	-0.946044921875	9.78629928588867	-0.04369418029785156	0.23642741394042968	0.423431396484375	-5.207061767578125	-3.139495849609375	9.974842666625976	0.4860229370117187	-0.11671733093261719	2.872467041015625	-4.833221435546875	-1.861572265625	
50	0.2	0.0	0.0	0.0	0.0	0.003	0.003	0.006	0.006	9.873089096069336	0.1131260284423828	0.09756371765136718	2.620697021484375	-3.6773681640625	-0.774383544921875	9.785102185058593	-0.05027823486328125	0.2328361114501953	0.52642822265625	-4.901885986328125	-3.040313720703125	9.96047745666504	0.49260699157714843	-0.11671733093261719	2.8228759765625	-4.76837158203125	-1.6326904296875	
51	0.20400000000000001	0.0	0.0	0.0	0.0	0.006	0.003	0.003	0.006	9.861716638183593	0.11611878051757812	0.09696516723632811	2.57110595703125	-3.631591796875	-0.919342041015625	9.775525378417969	-0.03172317199707031	0.2154781494140625	0.591278076171875	-4.9285888671875	-3.0975341796875	9.969455712890625	0.49380409240722656	-0.11671733093261719	2.8076171875	-4.619598388671875	-1.644134521484375	
52	0.20800000000000002	0.0	0.0	0.0	0.0	0.003	0.003	0.003	0.003	9.867103591918944	0.1131260284423828	0.086191259765625	2.651214599609375	-3.89862060546875	-0.946044921875	9.782707983398437	-0.030526071166992186	0.2166752502441406	0.55694580078125	-4.772186279296875	-2.93731689453125	9.961674557495117	0.48722003784179685	-0.12090718383789062	2.716064453125	-4.833221435546875	-1.949310302734375	
53	0.212	0.0	0.0	0.0	0.0	0.003	0.006	0.003	0.006	9.86291373901367	0.11611878051757812	0.07601590270996093	2.8839111328125	-3.887176513671875	-0.736236572265625	9.78629928588867	-0.030526071166992186	0.20051438903808594	0.7781982421875	-5.138397216796875	-3.192901611328125	9.970054263305663	0.4997895965576172	-0.12509703674316405	2.765655517578125	-4.730224609375	-1.74713134765625	
54	0.216	0.0	0.0	0.0	0.0	0.003	0.003	0.003	0.003	9.88386300354004	0.12988544006347655	0.06703764648437499	2.3345947265625	-3.856658935546875	-0.637054443359375	9.78629928588867	-0.025139117431640625	0.20231004028320312	0.202178955078125	-4.85992431640625	-2.98309326171875	9.970054263305663	0.5123591552734374	-0.14245499877929688	2.666473388671875	-4.70733642578125	-1.728057861328125	
55	0.22	0.0	0.0	0.0	0.0	0.003	0.006	0.003	0.003	9.875483297729492	0.1370680450439453	0.06464344482421874	2.536773681640625	-3.79180908203125	-0.820159912109375	9.789890588378906	-0.014963760375976562	0.19572598571777342	0.438690185546875	-4.756927490234375	-3.16619873046875	9.97125136413574	0.5141548065185546	-0.14784195251464843	2.79998779296875	-4.95147705078125	-1.97601318359375	
56	0.224	0.0	0.0	0.0	0.0	0.006	0.003	0.006	0.003	9.868300692749022	0.1406593475341797	0.054468087768554684	2.46429443359375	-4.001617431640625	-0.972747802734375	9.78629928588867	-0.012569558715820313	0.17298106994628906	0.579833984375	-5.062103271484375	-3.021240234375	9.973047015380859	0.5135562561035156	-0.16879121704101563	2.803802490234375	-4.72259521484375	-1.708984375	
57	0.228	0.0	0.0	0.0	0.0	0.006	0.003	0.003	0.003	9.85632968444824	0.1484405029296875	0.044292730712890624	2.727508544921875	-3.650665283203125	-0.873565673828125	9.785102185058593	-0.0005985504150390625	0.15682020874023436	0.560760498046875	-4.932403564453125	-3.162384033203125	9.959280355834961	0.536899722290039	-0.18315642700195311	2.83050537109375	-4.558563232421875	-2.0294189453125	
58	0.232	0.0	0.0	0.0	0.0	0.003	0.003	0.003	0.006	9.865307940673828	0.16041151123046873	0.040102877807617184	2.750396728515625	-4.055023193359375	-0.980377197265625	9.782707983398437	0.0143652099609375	0.15562310791015624	0.49591064453125	-5.062103271484375	-2.994537353515625	9.95389340209961	0.5470750793457031	-0.1975216369628906	2.78472900390625	-4.92095947265625	-1.739501953125	
59	0.23600000000000002	0.0	0.0	0.0	0.0	0.006	0.003	0.006	0.006	9.874884747314452	0.16998831787109375	0.020350714111328123	2.376556396484375	-3.780364990234375	-0.6103515625	9.78629928588867	0.011372457885742187	0.15083470458984374	0.560760498046875	-5.27191162109375	-3.253936767578125	9.973645565795898	0.5512649322509765	-0.20530279235839843	2.4566650390625	-4.64630126953125	-1.8157958984375	
60	0.24	0.0	0.0	0.0	0.0	0.003	0.006	0.006	0.006	9.865906491088866	0.1693897674560547	0.017357962036132813	2.5787353515625	-3.635406494140625	-0.843048095703125	9.796474642944336	0.022744915771484374	0.14125789794921875	0.54931640625	-5.008697509765625	-2.887725830078125	9.976638317871092	0.5590460876464843	-0.2059013427734375	2.696990966796875	-4.6844482421875	-1.705169677734375	
61	0.244	0.0	0.0	0.0	0.0	0.0	0.003	0.006	0.006	9.87069489440918	0.18255787658691405	0.010773907470703125	2.590179443359375	-3.681182861328125	-0.919342041015625	9.792284790039062	0.031124621582031248	0.13946224670410157	0.72479248046875	-4.940032958984375	-3.33404541015625	9.97903251953125	0.5626373901367188	-0.20470424194335937	2.712249755859375	-4.680633544921875	-1.949310302734375	
62	0.248	0.0	0.0	0.0	0.0	0.006	0.003	0.003	0.006	9.871293444824218	0.1945288848876953	0.0017956512451171875	2.498626708984375	-3.7384033203125	-0.614166259765625	9.784503634643555	0.040102877807617184	0.12330138549804687	0.392913818359375	-5.0201416015625	-2.971649169921875	9.973047015380859	0.5734112976074218	-0.22445640563964842	2.593994140625	-4.69207763671875	-1.720428466796875	
63	0.252	0.0	0.0	0.0	0.0	0.003	0.006	0.003	0.003	9.867103591918944	0.2041056915283203	-0.011971008300781249	2.5634765625	-4.032135009765625	-0.87738037109375	9.787496386718749	0.04189852905273437	0.1083376251220703	0.522613525390625	-4.791259765625	-3.04412841796875	9.969455712890625	0.5692214447021484	-0.2232593048095703	2.651214599609375	-4.634857177734375	-1.834869384765625	
64	0.256	0.0	0.0	0.0	0.0	0.006	0.003	0.003	0.003	9.86411083984375	0.201112939453125	-0.009576806640625	2.590179443359375	-3.4332275390625	-0.7171630859375	9.784503634643555	0.04548983154296875	0.10714052429199218	0.579833984375	-4.993438720703125	-3.261566162109375	9.96047745666504	0.5692214447021484	-0.23642741394042968	2.658843994140625	-4.711151123046875	-1.83868408203125	
65	0.26	0.0	0.0	0.0	0.0	0.006	0.003	0.006	0.003	9.864709390258788	0.2059013427734375	-0.008379705810546874	2.384185791015625	-3.795623779296875	-0.751495361328125	9.783905084228515	0.05087678527832031	0.12629413757324218	0.843048095703125	-5.27191162109375	-3.093719482421875	9.969455712890625	0.5740098480224609	-0.22685060729980466	2.64739990234375	-4.817962646484375	-1.750946044921875	
66	0.264	0.0	0.0	0.0	0.0	0.003	0.003	0.006	0.006	9.861716638183593	0.20470424194335937	0.0005985504150390625	2.559661865234375	-3.73077392578125	-0.75531005859375	9.789890588378906	0.047884033203124995	0.12090718383789062	0.6256103515625	-4.8828125	-3.143310546875	9.97184991455078	0.5811924530029297	-0.22505495605468748	2.6702880859375	-4.608154296875	-1.483917236328125	
67	0.268	0.0	0.0	0.0	0.0	0.003	0.003	0.003	0.006	9.87608184814453	0.20949264526367187	-0.010773907470703125	2.50244140625	-3.6773681640625	-0.93841552734375	9.785102185058593	0.047884033203124995	0.11552023010253906	0.51116943359375	-4.99725341796875	-3.08990478515625	9.970652813720703	0.5799953521728515	-0.21128829650878905	2.5787353515625	-4.64630126953125	-1.789093017578125	
68	0.272	0.0	0.0	0.0	0.0	0.006	0.006	0.003	0.003	9.865906491088866	0.20051438903808594	-0.008379705810546874	2.323150634765625	-3.612518310546875	-0.80108642578125	9.785700735473633	0.051475335693359374	0.13347674255371092	0.518798828125	-5.130767822265625	-3.16619873046875	9.955689053344726	0.5877765075683593	-0.21428104858398436	2.5787353515625	-4.787445068359375	-1.651763916015625	
69	0.276	0.0	0.0	0.0	0.0	0.003	0.003	0.003	0.003	9.868899243164062	0.20350714111328125	0.0005985504150390625	2.5482177734375	-3.887176513671875	-0.762939453125	9.785102185058593	0.04548983154296875	0.14006079711914063	0.591278076171875	-4.852294921875	-3.078460693359375	9.974244116210937	0.5829881042480468	-0.20171148986816406	2.613067626953125	-4.505157470703125	-1.678466796875	
70	0.28	0.0	0.0	0.0	0.0	0.0	0.006	0.006	0.006	9.866505041503906	0.19213468322753904	0.0047884033203125	2.513885498046875	-3.673553466796875	-0.537872314453125	9.78629928588867	0.0383072265625	0.14425065002441406	0.629425048828125	-5.130767822265625	-3.017425537109375	9.97244846496582	0.5770026000976562	-0.19931728820800781	2.658843994140625	-4.791259765625	-1.674652099609375	
71	0.28400000000000003	0.0	0.0	0.0	0.0	0.009000000000000001	0.003	0.006	0.003	9.87608184814453	0.19871873779296872	0.013168109130859374	2.620697021484375	-3.681182861328125	-0.812530517578125	9.785700735473633	0.04668693237304687	0.1514332550048828	0.324249267578125	-4.772186279296875	-3.314971923828125	9.967061511230469	0.5817910034179687	-0.1897404815673828	2.66265869140625	-4.741668701171875	-1.62506103515625	
72	0.28800000000000003	0.0	0.0	0.0	0.0	0.003	0.003	0.003	0.003	9.874884747314452	0.19871873779296872	0.029328970336914062	2.47955322265625	-3.673553466796875	-0.743865966796875	9.788094937133788	0.032920272827148434	0.16639701538085935	0.61798095703125	-4.940032958984375	-3.139495849609375	9.958083255004881	0.5853823059082031	-0.1927332336425781	2.696990966796875	-4.901885986328125	-1.819610595703125	
73	0.292	0.0	0.0	0.0	0.0	0.003	0.006	0.003	0.006	9.878476049804688	0.1927332336425781	0.029328970336914062	2.50244140625	-3.910064697265625	-0.90789794921875	9.79348189086914	0.03651157531738281	0.17058686828613281	0.54168701171875	-5.100250244140625	-3.1280517578125	9.975441217041014	0.5716156463623047	-0.18375497741699218	2.635955810546875	-4.680633544921875	-1.766204833984375	
74	0.296	0.0	0.0	0.0	0.0	0.006	0.006	0.003	0.006	9.87608184814453	0.17896657409667968	0.04608838195800781	2.590179443359375	-3.97491455078125	-0.83160400390625	9.78629928588867	0.022744915771484374	0.16280571289062498	0.888824462890625	-5.0811767578125	-3.07464599609375	9.958083255004881	0.5590460876464843	-0.1693897674560547	2.773284912109375	-4.665374755859375	-1.6632080078125	
75	0.3	0.0	0.0	0.0	0.0	0.003	0.003	0.006	0.003	9.87069489440918	0.17477672119140625	0.04967968444824218	2.536773681640625	-3.8909912109375	-0.80108642578125	9.785102185058593	0.018555062866210937	0.17417817077636719	0.423431396484375	-4.917144775390625	-3.13568115234375	9.961674557495117	0.5572504364013672	-0.15322890625	2.44140625	-4.69207763671875	-1.76239013671875	
76	0.304	0.0	0.0	0.0	0.0	0.003	0.006	0.003	0.003	9.861118087768554	0.17298106994628906	0.05805939025878906	2.529144287109375	-3.74603271484375	-0.732421875	9.772532626342773	0.015562310791015624	0.19632453613281248	0.48828125	-4.92095947265625	-3.086090087890625	9.958681805419921	0.5494692810058593	-0.14724340209960937	2.64739990234375	-4.40216064453125	-1.6326904296875	
77	0.308	0.0	0.0	0.0	0.0	0.003	0.003	0.006	0.003	9.86411083984375	0.1610100616455078	0.07302315063476562	2.613067626953125	-3.787994384765625	-0.96893310546875	9.78629928588867	0.011372457885742187	0.21068974609375	0.354766845703125	-4.6844482421875	-2.960205078125	9.97244846496582	0.5374982727050781	-0.14125789794921875	2.7618408203125	-4.764556884765625	-1.842498779296875	
78	0.312	0.0	0.0	0.0	0.0	0.006	0.003	0.006	0.003	9.8694977935791	0.15682020874023436	0.07781155395507812	2.4566650390625	-3.772735595703125	-0.70953369140625	9.785102185058593	0.006584054565429687	0.20530279235839843	0.598907470703125	-4.970550537109375	-3.009796142578125	9.964667309570311	0.5392939239501953	-0.12389993591308593	2.834320068359375	-4.69970703125	-1.71661376953125	
79	0.316	0.0	0.0	0.0	0.0	0.006	0.003	0.003	0.006	9.880870251464843	0.15263035583496093	0.07302315063476562	2.471923828125	-3.7384033203125	-0.888824462890625	9.78031378173828	0.002992752075195312	0.2166752502441406	0.957489013671875	-5.153656005859375	-3.22723388671875	9.974842666625976	0.5183446594238281	-0.1304839904785156	2.78472900390625	-4.810333251953125	-1.71661376953125	
80	0.32	0.0	0.0	0.0	0.0	0.003	0.003	0.003	0.006	9.867103591918944	0.14604630126953125	0.09457096557617187	2.307891845703125	-3.8299560546875	-0.8697509765625	9.785102185058593	-0.011971008300781249	0.22086510314941404	0.49591064453125	-5.084991455078125	-3.108978271484375	9.969455712890625	0.5189432098388671	-0.12030863342285156	2.67791748046875	-4.802703857421875	-1.575469970703125	
81	0.324	0.0	0.0	0.0	0.0	0.006	0.003	0.006	0.003	9.87727894897461	0.13766659545898435	0.09636661682128905	2.223968505859375	-3.6163330078125	-0.91552734375	9.785700735473633	-0.016160861206054686	0.21787235107421873	0.4730224609375	-4.99725341796875	-3.131866455078125	9.97184991455078	0.5153519073486328	-0.1149216796875	2.7313232421875	-4.856109619140625	-1.7242431640625	
82	0.328	0.0	0.0	0.0	0.0	0.0	0.003	0.003	0.003	9.865906491088866	0.14245499877929688	0.09756371765136718	2.685546875	-3.9520263671875	-0.774383544921875	9.78629928588867	-0.025139117431640625	0.23702596435546874	0.45013427734375	-4.985809326171875	-3.810882568359375	9.968258612060547	0.51714755859375	-0.09576806640624999	2.826690673828125	-4.878997802734375	-1.70135498046875	
83	0.332	0.0	0.0	0.0	0.0	0.003	0.003	0.006	0.003	9.865906491088866	0.1322796417236328	0.10474632263183593	2.414703369140625	-3.63922119140625	-0.86212158203125	9.78629928588867	-0.017956512451171875	0.24001871643066405	0.35858154296875	-5.008697509765625	-3.27301025390625	9.970652813720703	0.508169302368164	-0.11432312927246092	2.658843994140625	-4.734039306640625	-1.52587890625	
84	0.336	0.0	0.0	0.0	0.0	0.009000000000000001	0.003	0.006	0.0	9.86291373901367	0.1227028350830078	0.09756371765136718	2.361297607421875	-3.570556640625	-0.81634521484375	9.78629928588867	-0.029927520751953124	0.23582886352539062	0.537872314453125	-5.077362060546875	-2.99072265625	9.97184991455078	0.5039794494628906	-0.10953472595214843	2.655029296875	-4.72259521484375	-1.880645751953125	
85	0.34	0.0	0.0	0.0	0.0	0.006	0.003	0.006	0.006	9.879673150634765	0.11671733093261719	0.08798691101074219	2.3956298828125	-4.69207763671875	-0.545501708984375	9.783905084228515	-0.028730419921875	0.2166752502441406	0.32806396484375	-5.168914794921875	-3.101348876953125	9.97843396911621	0.5051765502929687	-0.11611878051757812	2.719879150390625	-4.486083984375	-1.953125	
86	0.34400000000000003	0.0	0.0	0.0	0.0	0.003	0.006	0.006	0.006	9.874884747314452	0.12389993591308593	0.08200140686035155	2.44903564453125	-3.936767578125	-1.07574462890625	9.78629928588867	-0.02633621826171875	0.2214636535644531	0.499725341796875	-5.218505859375	-3.276824951171875	9.969455712890625	0.5009866973876953	-0.11911153259277343	2.54058837890625	-4.425048828125	-1.766204833984375	
87	0.34800000000000003	0.0	0.0	0.0	0.0	0.003	0.006	0.003	0.006	9.865307940673828	0.1322796417236328	0.076614453125	2.38037109375	-3.742218017578125	-0.98419189453125	9.785102185058593	-0.023942016601562498	0.21727380065917967	0.26702880859375	-4.99725341796875	-3.017425537109375	9.958681805419921	0.5045779998779296	-0.12389993591308593	2.574920654296875	-4.795074462890625	-1.71661376953125	
88	0.352	0.0	0.0	0.0	0.0	0.006	0.003	0.003	0.006	9.867702142333984	0.12689268798828124	0.08259995727539061	2.582550048828125	-3.57818603515625	-0.77056884765625	9.784503634643555	-0.029927520751953124	0.20350714111328125	0.804901123046875	-4.9591064453125	-3.15093994140625	9.973047015380859	0.49679684448242184	-0.1304839904785156	2.76947021484375	-4.711151123046875	-1.8310546875	
89	0.356	0.0	0.0	0.0	0.0	0.003	0.006	0.006	0.003	9.867103591918944	0.12689268798828124	0.08020575561523437	2.44903564453125	-3.90625	-0.92315673828125	9.78031378173828	-0.02154781494140625	0.19692308654785154	0.83160400390625	-5.13458251953125	-3.086090087890625	9.970652813720703	0.5003881469726562	-0.1322796417236328	2.79998779296875	-4.642486572265625	-1.617431640625	
90	0.36	0.0	0.0	0.0	0.0	0.003	0.003	0.006	0.009000000000000001	9.867103591918944	0.13347674255371092	0.06763619689941405	2.689361572265625	-3.742218017578125	-0.762939453125	9.783905084228515	-0.014963760375976562	0.19512743530273435	0.37384033203125	-5.001068115234375	-3.017425537109375	9.969455712890625	0.5147533569335937	-0.15861585998535155	2.651214599609375	-4.66156005859375	-1.789093017578125	
91	0.364	0.0	0.0	0.0	0.0	0.003	0.003	0.006	0.003	9.86291373901367	0.14963760375976562	0.047285482788085934	2.4261474609375	-3.8909912109375	-0.66375732421875	9.788693487548828	-0.011971008300781249	0.1610100616455078	0.682830810546875	-4.99725341796875	-2.933502197265625	9.97184991455078	0.5195417602539062	-0.16879121704101563	2.559661865234375	-4.543304443359375	-1.850128173828125	
92	0.368	0.0	0.0	0.0	0.0	0.003	0.003	0.006	0.006	9.871293444824218	0.14305354919433594	0.034715924072265626	2.685546875	-3.742218017578125	-0.789642333984375	9.784503634643555	-0.011971008300781249	0.15442600708007811	0.553131103515625	-4.924774169921875	-3.15093994140625	9.964068759155273	0.5225345123291015	-0.1771709228515625	2.689361572265625	-4.63104248046875	-1.94549560546875	
93	0.372	0.0	0.0	0.0	0.0	0.009000000000000001	0.003	0.003	0.003	9.872490545654296	0.15382745666503905	0.029328970336914062	2.620697021484375	-3.910064697265625	-0.79345703125	9.787496386718749	-0.003591302490234375	0.1580173095703125	0.7476806640625	-5.11932373046875	-3.101348876953125	9.962871658325195	0.5153519073486328	-0.19812018737792966	2.841949462890625	-4.680633544921875	-1.56402587890625	
94	0.376	0.0	0.0	0.0	0.0	0.003	0.006	0.003	0.006	9.871293444824218	0.15981296081542967	0.02154781494140625	2.471923828125	-3.57818603515625	-0.843048095703125	9.788693487548828	0.004189852905273437	0.1304839904785156	0.6866455078125	-5.115509033203125	-3.101348876953125	9.957484704589843	0.5243301635742187	-0.19991583862304688	2.841949462890625	-4.589080810546875	-1.766204833984375	
95	0.38	0.0	0.0	0.0	0.0	0.003	0.006	0.003	0.003	9.88266590270996	0.16160861206054686	0.012569558715820313	2.506256103515625	-3.90625	-0.75531005859375	9.788693487548828	0.015562310791015624	0.12389993591308593	0.54168701171875	-5.01251220703125	-3.2501220703125	9.957484704589843	0.5392939239501953	-0.21487959899902342	2.712249755859375	-4.5928955078125	-1.903533935546875	
96	0.384	0.0	0.0	0.0	0.0	0.006	0.006	0.006	0.006	9.879074600219726	0.1693897674560547	0.013766659545898436	2.513885498046875	-4.070281982421875	-0.72479248046875	9.792284790039062	0.014963760375976562	0.11552023010253906	0.461578369140625	-4.985809326171875	-3.063201904296875	9.956287603759765	0.5494692810058593	-0.22744915771484372	2.445220947265625	-4.58526611328125	-1.605987548828125	
97	0.388	0.0	0.0	0.0	0.0	0.006	0.003	0.003	0.009000000000000001	9.871293444824218	0.17776947326660156	-0.00239420166015625	2.52532958984375	-3.70025634765625	-0.75531005859375	9.78629928588867	0.02154781494140625	0.10474632263183593	0.38909912109375	-4.924774169921875	-3.0059814453125	9.958083255004881	0.5530605834960938	-0.2328361114501953	2.5787353515625	-4.81414794921875	-1.8463134765625	
98	0.392	0.0	0.0	0.0	0.0	0.003	0.003	0.003	0.003	9.86351228942871	0.18435352783203124	-0.011372457885742187	2.666473388671875	-3.83758544921875	-0.812530517578125	9.784503634643555	0.017357962036132813	0.11731588134765625	0.408172607421875	-5.092620849609375	-3.11279296875	9.97184991455078	0.5494692810058593	-0.2424129180908203	2.605438232421875	-4.73785400390625	-1.86920166015625	
99	0.396	0.0	0.0	0.0	0.0	0.003	0.003	0.006	0.006	9.859322436523437	0.18435352783203124	-0.012569558715820313	2.47955322265625	-3.72314453125	-0.8087158203125	9.777919580078125	0.037110125732421874	0.12330138549804687	0.629425048828125	-4.909515380859375	-2.98309326171875	9.956287603759765	0.55545478515625	-0.23822306518554687	2.69317626953125	-4.7607421875	-1.65557861328125	
100	0.4	0.0	0.0	0.0	0.0	0.003	0.006	0.003	0.003	9.873089096069336	0.18255787658691405	-0.017956512451171875	2.5787353515625	-3.749847412109375	-0.8544921875	9.785102185058593	0.03591302490234375	0.11851298217773437	0.7476806640625	-5.008697509765625	-3.101348876953125	9.961076007080077	0.5740098480224609	-0.2376245147705078	2.6397705078125	-4.45556640625	-1.89971923828125	
101	0.404	0.0	0.0	0.0	0.0	0.009000000000000001	0.006	0.003	0.006	9.859920986938477	0.20051438903808594	-0.018555062866210937	2.582550048828125	-3.71551513671875	-0.7476806640625	9.79348189086914	0.034715924072265626	0.12509703674316405	0.652313232421875	-4.913330078125	-3.055572509765625	9.967061511230469	0.5728127471923827	-0.229843359375	2.758026123046875	-4.57000732421875	-1.64794921875	
102	0.40800000000000003	0.0	0.0	0.0	0.0	0.006	0.006	0.006	0.003	9.865307940673828	0.1975216369628906	-0.029927520751953124	2.52532958984375	-3.88336181640625	-0.9002685546875	9.785102185058593	0.037110125732421874	0.11851298217773437	0.476837158203125	-4.92095947265625	-3.192901611328125	9.968857162475585	0.5716156463623047	-0.24061726684570311	2.7618408203125	-4.711151123046875	-1.96075439453125	
103	0.41200000000000003	0.0	0.0	0.0	0.0	0.003	0.003	0.003	0.006	9.861118087768554	0.1945288848876953	-0.008379705810546874	2.4871826171875	-3.57818603515625	-0.812530517578125	9.785700735473633	0.04129997863769531	0.12090718383789062	0.835418701171875	-5.0506591796875	-3.04412841796875	9.968857162475585	0.5746083984375	-0.22385785522460935	2.4261474609375	-4.5166015625	-1.50299072265625	
104	0.41600000000000004	0.0	0.0	0.0	0.0	0.006	0.003	0.003	0.006	9.87009634399414	0.18854338073730467	-0.005985504150390624	2.66265869140625	-3.856658935546875	-0.762939453125	9.785102185058593	0.034715924072265626	0.1304839904785156	0.659942626953125	-5.023956298828125	-3.18145751953125	9.969455712890625	0.5734112976074218	-0.21009119567871093	2.6092529296875	-4.673004150390625	-1.8157958984375	
105	0.42	0.0	0.0	0.0	0.0	0.006	0.003	0.006	0.006	9.867702142333984	0.18734627990722655	-0.0017956512451171875	2.384185791015625	-3.765106201171875	-0.9918212890625	9.78629928588867	0.04129997863769531	0.13766659545898435	0.774383544921875	-5.123138427734375	-3.200531005859375	9.962273107910155	0.5740098480224609	-0.21308394775390624	2.87628173828125	-4.573822021484375	-1.82342529296875	
106	0.424	0.0	0.0	0.0	0.0	0.006	0.003	0.003	0.003	9.875483297729492	0.19213468322753904	0.0143652099609375	2.475738525390625	-3.73077392578125	-0.774383544921875	9.785102185058593	0.04608838195800781	0.14006079711914063	0.2899169921875	-5.07354736328125	-3.009796142578125	9.964667309570311	0.5710170959472656	-0.20530279235839843	2.902984619140625	-4.726409912109375	-1.77764892578125	
107	0.428	0.0	0.0	0.0	0.0	0.003	0.006	0.006	0.003	9.872490545654296	0.19692308654785154	0.01975216369628906	2.429962158203125	-3.681182861328125	-0.606536865234375	9.78629928588867	0.03651157531738281	0.15263035583496093	0.396728515625	-5.0811767578125	-3.147125244140625	9.974244116210937	0.5692214447021484	-0.1927332336425781	2.681732177734375	-4.39453125	-1.522064208984375	
108	0.432	0.0	0.0	0.0	0.0	0.003	0.003	0.003	0.006	9.878476049804688	0.1897404815673828	0.05566518859863281	2.593994140625	-4.0130615234375	-0.83160400390625	9.781510882568359	-0.011971008300781249	0.19153613281249998	0.70953369140625	-4.917144775390625	-3.22723388671875	9.983820922851562	0.5524620330810547	-0.1927332336425781	2.960205078125	-4.61578369140625	-1.720428466796875	
109	0.436	0.0	0.0	0.0	0.0	0.003	0.003	0.003	0.003	9.897629663085937	0.19931728820800781	0.016759411621093748	2.54058837890625	-3.871917724609375	-1.094818115234375	9.811438403320311	0.04848258361816406	0.14125789794921875	0.51116943359375	-5.069732666015625	-3.147125244140625	10.020931048583984	0.6105214233398437	-0.24181436767578124	2.49481201171875	-4.878997802734375	-1.689910888671875	
110	0.44	0.0	0.0	0.0	0.0	0.003	0.003	0.003	0.003	9.859322436523437	0.2657563842773437	0.08858546142578125	2.61688232421875	-3.753662109375	-0.652313232421875	9.759963067626952	0.1197100830078125	0.21248539733886718	0.52642822265625	-5.16510009765625	-2.979278564453125	9.955689053344726	0.6464344482421874	-0.16460136413574217	2.819061279296875	-4.657745361328125	-1.583099365234375	
111	0.444	0.0	0.0	0.0	0.0	0.003	0.003	0.003	0.006	9.88386300354004	0.07900865478515624	0.040701428222656245	2.685546875	-3.74603271484375	-0.86212158203125	9.830592016601562	-0.1197100830078125	0.1406593475341797	0.621795654296875	-5.1727294921875	-3.13568115234375	9.9981861328125	0.3746925598144531	-0.20649989318847656	2.89154052734375	-4.73785400390625	-1.73187255859375	
112	0.448	0.0	0.0	0.0	0.0	0.006	0.006	0.003	0.003	9.87069489440918	0.26755203552246093	0.08678981018066406	2.78472900390625	-3.60107421875	-0.87738037109375	9.780912332153319	0.1580173095703125	0.21188684692382811	0.30517578125	-4.84466552734375	-3.108978271484375	9.970652813720703	0.7170633972167968	-0.14784195251464843	2.819061279296875	-4.73785400390625	-1.73187255859375	
113	0.452	0.0	0.0	0.0	0.0	0.003	0.003	0.003	0.003	9.877877499389648	0.17896657409667968	0.10414777221679687	2.544403076171875	-3.80706787109375	-0.644683837890625	9.80066449584961	-0.001197100830078125	0.1897404815673828	0.637054443359375	-5.008697509765625	-2.87628173828125	9.994594830322265	0.5201403106689453	-0.18255787658691405	2.681732177734375	-4.673004150390625	-1.583099365234375	
114	0.456	0.0	0.0	0.0	0.0	0.006	0.003	0.003	0.006	9.858125335693359	0.16160861206054686	0.1083376251220703	2.9754638671875	-3.681182861328125	-0.8697509765625	9.76235726928711	-0.011971008300781249	0.24301146850585936	0.728607177734375	-4.9591064453125	-3.131866455078125	9.906009368896484	0.5141548065185546	-0.09038111267089843	2.75421142578125	-4.84466552734375	-1.70135498046875	
115	0.46	0.0	0.0	0.0	0.0	0.003	0.006	0.006	0.003	9.896432562255859	0.14784195251464843	0.09636661682128905	2.452850341796875	-3.88336181640625	-0.78582763671875	9.828796365356444	-0.054468087768554684	0.19692308654785154	0.732421875	-5.001068115234375	-3.253936767578125	10.037091909790039	0.48123453369140623	-0.19393033447265623	2.64739990234375	-4.642486572265625	-1.888275146484375	
116	0.464	0.0	0.0	0.0	0.0	0.003	0.003	0.006	0.003	9.86351228942871	0.20829554443359374	0.08020575561523437	2.3193359375	-3.63922119140625	-0.79345703125	9.735422500610351	0.16519991455078123	0.23223756103515625	0.415802001953125	-4.665374755859375	-3.173828125	9.890447058105469	0.7122749938964843	-0.055066638183593745	2.61688232421875	-4.638671875	-1.827239990234375	
117	0.468	0.0	0.0	0.0	0.0	0.006	0.003	0.003	0.006	9.878476049804688	0.06464344482421874	0.143652099609375	2.73895263671875	-3.65447998046875	-0.705718994140625	9.81263550415039	-0.20949264526367187	0.21248539733886718	0.492095947265625	-5.039215087890625	-3.0059814453125	9.91438907470703	0.36152445068359373	-0.05626373901367187	2.58636474609375	-4.604339599609375	-1.705169677734375	
118	0.47200000000000003	0.0	0.0	0.0	0.0	0.006	0.003	0.003	0.003	9.853336932373047	0.1580173095703125	0.07362170104980469	2.73895263671875	-4.032135009765625	-1.010894775390625	9.730035546875	0.08798691101074219	0.2376245147705078	0.7476806640625	-4.974365234375	-3.47900390625	9.89463691101074	0.6416460449218749	-0.044891281127929686	2.834320068359375	-4.764556884765625	-1.972198486328125	
119	0.47600000000000003	0.0	0.0	0.0	0.0	0.003	0.003	0.003	0.003	9.882067352294921	0.19213468322753904	0.14006079711914063	2.62451171875	-4.11224365234375	-0.743865966796875	9.750386260986328	0.08020575561523437	0.23822306518554687	0.583648681640625	-5.008697509765625	-3.15093994140625	9.926360083007811	0.5380968231201172	-0.05087678527832031	2.689361572265625	-4.833221435546875	-1.6021728515625	
120	0.48	0.0	0.0	0.0	0.0	0.006	0.003	0.003	0.006	9.829394915771484	0.1227028350830078	0.1005564697265625	2.66265869140625	-3.83758544921875	-0.743865966796875	9.698910925292969	0.010175357055664061	0.2609679809570312	0.98419189453125	-5.16510009765625	-3.23486328125	9.865307940673828	0.535702621459961	-0.030526071166992186	2.468109130859375	-4.57763671875	-1.865386962890625	
121	0.484	0.0	0.0	0.0	0.0	0.006	0.006	0.006	0.006	9.892841259765625	0.11911153259277343	0.002992752075195312	2.353668212890625	-3.63922119140625	-0.850677490234375	9.742605105590819	-0.02693476867675781	0.22385785522460935	0.675201416015625	-4.878997802734375	-3.30352783203125	9.919177478027343	0.42796354675292964	-0.05626373901367187	2.4261474609375	-4.45556640625	-1.708984375	
122	0.488	0.0	0.0	0.0	0.0	0.009000000000000001	0.003	0.006	0.006	9.851541281127929	0.17597382202148437	0.04967968444824218	2.58636474609375	-3.7384033203125	-0.7781982421875	9.732429748535155	0.12689268798828124	0.23822306518554687	0.873565673828125	-5.046844482421875	-3.3721923828125	9.944316595458984	0.5859808563232421	-0.08918401184082031	2.513885498046875	-4.344940185546875	-1.93023681640625	
123	0.492	0.0	0.0	0.0	0.0	0.003	0.003	0.003	0.003	9.88386300354004	0.12150573425292968	-0.0017956512451171875	2.231597900390625	-3.692626953125	-1.018524169921875	9.712079034423828	-0.05386953735351562	0.2376245147705078	0.518798828125	-4.940032958984375	-3.078460693359375	9.897629663085937	0.4016273284912109	-0.05327098693847656	2.5634765625	-4.817962646484375	-1.804351806640625	
124	0.496	0.0	0.0	0.0	0.0	0.003	0.003	0.006	0.006	9.83897172241211	0.15442600708007811	0.044292730712890624	2.83050537109375	-3.864288330078125	-0.99945068359375	9.791686239624022	-0.027533319091796873	0.20709844360351562	0.598907470703125	-4.84466552734375	-3.41796875	9.923965881347655	0.48183308410644526	-0.08858546142578125	2.552032470703125	-4.7454833984375	-2.08282470703125	
125	0.5	0.0	0.0	0.0	0.0	0.006	0.003	0.006	0.003	9.917980377197265	0.13407529296874998	-0.06823474731445311	2.201080322265625	-3.80706787109375	-0.96893310546875	9.73602105102539	0.008379705810546874	0.19393033447265623	0.49591064453125	-4.947662353515625	-2.765655517578125	9.926958633422851	0.6781576202392577	-0.06404489440917968	2.819061279296875	-4.741668701171875	-1.605987548828125	
126	0.504	0.0	0.0	0.0	0.0	0.003	0.003	0.006	0.003	9.874884747314452	0.07601590270996093	0.07721300354003906	2.532958984375	-3.826141357421875	-0.858306884765625	9.785102185058593	-0.03591302490234375	0.1867477294921875	0.637054443359375	-5.069732666015625	-3.284454345703125	9.904812268066406	0.4752490295410156	-0.11192892761230468	2.483367919921875	-4.60052490234375	-2.0751953125	
127	0.508	0.0	0.0	0.0	0.0	0.006	0.003	0.006	0.003	9.891644158935547	0.10773907470703124	-0.07003039855957031	2.14385986328125	-3.917694091796875	-0.949859619140625	9.797671743774414	0.07781155395507812	0.18076222534179687	0.507354736328125	-5.046844482421875	-2.979278564453125	9.891644158935547	0.6314706878662109	-0.06284779357910156	2.7923583984375	-4.6844482421875	-1.39617919921875	
128	0.512	0.0	0.0	0.0	0.0	0.003	0.003	0.006	0.003	9.879673150634765	0.09816226806640624	0.04668693237304687	2.5787353515625	-3.925323486328125	-0.843048095703125	9.816226806640625	-0.0047884033203125	0.16220716247558592	0.640869140625	-4.772186279296875	-3.421783447265625	10.137049829101562	0.4327519500732422	-0.4112041351318359	2.79998779296875	-4.547119140625	-1.712799072265625	
129	0.516	0.0	0.0	0.0	0.0	0.0	0.006	0.006	0.006	9.889249957275391	0.11911153259277343	-0.1406593475341797	2.98309326171875	-4.08172607421875	-0.568389892578125	9.807847100830077	0.07422025146484375	0.1370680450439453	0.23651123046875	-5.031585693359375	-3.021240234375	9.907206469726562	0.6183025787353515	-0.08918401184082031	2.887725830078125	-4.7149658203125	-1.430511474609375	
130	0.52	0.0	0.0	0.0	0.0	0.006	0.006	0.003	0.006	9.879673150634765	0.08738836059570312	0.025737667846679687	2.532958984375	-3.726959228515625	-0.9002685546875	9.893439810180663	-0.16160861206054686	0.001197100830078125	0.5645751953125	-5.100250244140625	-3.16619873046875	10.110713610839843	0.33578678283691404	-0.39264907226562495	2.95257568359375	-4.711151123046875	-1.8310546875	
131	0.524	0.0	0.0	0.0	0.0	0.003	0.003	0.006	0.006	9.81263550415039	0.316034619140625	0.17597382202148437	2.979278564453125	-4.17327880859375	-0.51116943359375	9.808445651245117	0.13826514587402344	0.08200140686035155	0.164031982421875	-5.2490234375	-2.857208251953125	9.89523546142578	0.6859387756347656	-0.08379705810546874	2.803802490234375	-4.512786865234375	-1.293182373046875	
132	0.528	0.0	0.0	0.0	0.0	0.006	0.006	0.006	0.006	9.899425314331054	0.04668693237304687	-0.018555062866210937	2.51007080078125	-3.7994384765625	-0.8544921875	9.898826763916015	-0.1514332550048828	-0.04189852905273437	0.732421875	-4.924774169921875	-3.16619873046875	10.160991845703125	0.3387795349121094	-0.43933600463867184	3.021240234375	-4.57000732421875	-1.9073486328125	
133	0.532	0.0	0.0	0.0	0.0	0.006	0.003	0.003	0.006	9.78629928588867	0.3028665100097656	0.18555062866210936	3.368377685546875	-4.18853759765625	-0.55694580078125	9.701903677368163	0.2059013427734375	0.25258827514648435	0.5645751953125	-4.94384765625	-3.13568115234375	9.96586441040039	0.7463923675537109	-0.21906945190429686	2.712249755859375	-4.657745361328125	-1.59454345703125	
134	0.536	0.0	0.0	0.0	0.0	0.003	0.003	0.003	0.003	9.931747036743163	-0.027533319091796873	-0.10235212097167969	0.823974609375	-3.047943115234375	-0.919342041015625	9.885658654785155	-0.07900865478515624	-0.014963760375976562	0.957489013671875	-5.1727294921875	-3.10516357421875	10.158597644042969	0.39923312683105466	-0.44891281127929683	2.96783447265625	-4.459381103515625	-1.708984375	
135	0.54	0.0	0.0	0.0	0.0	0.003	0.003	0.003	0.006	9.790489138793944	0.3028665100097656	0.1897404815673828	3.0517578125	-3.9825439453125	-0.560760498046875	9.707889181518555	0.21487959899902342	0.27892449340820313	0.701904296875	-5.115509033203125	-2.872467041015625	10.00417163696289	0.7697358337402344	-0.23822306518554687	2.86865234375	-4.7454833984375	-1.47247314453125	
136	0.544	0.0	0.0	0.0	0.0	0.006	0.006	0.006	0.003	9.930549935913085	-0.07481880187988281	-0.07122749938964844	0.83160400390625	-2.7923583984375	-0.972747802734375	9.860519537353515	-0.25318682556152344	0.11851298217773437	0.453948974609375	-4.970550537109375	-3.082275390625	10.060435375976562	0.23882161560058593	-0.35134909362792965	2.79998779296875	-4.909515380859375	-1.77001953125	
137	0.548	0.0	0.0	0.0	0.0	0.006	0.003	0.006	0.003	9.77432827758789	0.35015199279785153	0.22565350646972654	3.326416015625	-4.138946533203125	-0.3662109375	9.683947164916992	0.297479556274414	0.3190273712158203	0.49591064453125	-5.283355712890625	-2.8076171875	9.989806427001952	0.8732850555419921	-0.21727380065917967	2.841949462890625	-4.8370361328125	-1.552581787109375	
138	0.552	0.0	0.0	0.0	0.0	0.009000000000000001	0.003	0.006	0.006	9.931148486328125	-0.07062894897460938	-0.07721300354003906	0.766754150390625	-2.8839111328125	-0.957489013671875	9.86291373901367	-0.2519897247314453	0.1322796417236328	0.766754150390625	-5.313873291015625	-3.009796142578125	10.06163247680664	0.2501940734863281	-0.3363853332519531	2.803802490234375	-4.802703857421875	-1.750946044921875	
139	0.556	0.0	0.0	0.0	0.0	0.006	0.006	0.006	0.003	9.843161575317382	0.2232593048095703	-0.07062894897460938	3.2196044921875	-4.131317138671875	-0.934600830078125	9.73602105102539	0.17118541870117188	0.19512743530273435	0.75531005859375	-4.894256591796875	-3.322601318359375	9.822212310791015	0.7009025360107421	-0.05027823486328125	2.460479736328125	-4.76837158203125	-2.246856689453125	
140	0.56	0.0	0.0	0.0	0.0	0.006	0.006	0.006	0.003	9.93354268798828	-0.07721300354003906	-0.058657940673828124	0.83160400390625	-2.857208251953125	-0.9307861328125	9.853336932373047	-0.23702596435546874	0.14425065002441406	0.583648681640625	-5.008697509765625	-2.910614013671875	10.058639724731444	0.28730419921875	-0.31064766540527344	2.7313232421875	-4.856109619140625	-1.857757568359375	
141	0.5640000000000001	0.0	0.0	0.0	0.0	0.003	0.006	0.006	0.003	9.841365924072266	0.2154781494140625	-0.05087678527832031	3.15093994140625	-4.138946533203125	-0.995635986328125	9.715071786499022	0.17477672119140625	0.2561795776367187	0.6866455078125	-4.848480224609375	-3.536224365234375	9.798868844604492	0.7230489013671875	-0.028131869506835935	2.559661865234375	-4.63104248046875	-1.995086669921875	
142	0.5680000000000001	0.0	0.0	0.0	0.0	0.006	0.003	0.006	0.003	9.944316595458984	-0.09636661682128905	-0.04908113403320312	3.5400390625	-4.428863525390625	-0.57220458984375	9.878476049804688	-0.2980781066894531	0.16699556579589842	0.22125244140625	-5.046844482421875	-2.704620361328125	10.065223779296874	0.2232593048095703	-0.3064578125	2.529144287109375	-4.90570068359375	-1.67083740234375	
143	0.5720000000000001	0.0	0.0	0.0	0.0	0.006	0.006	0.003	0.003	9.847351428222655	0.1657984649658203	-0.06284779357910156	3.276824951171875	-3.86810302734375	-1.094818115234375	9.713874685668944	0.20709844360351562	0.316034619140625	0.5035400390625	-4.78363037109375	-3.170013427734375	9.783306533813477	0.7326257080078125	0.00239420166015625	2.410888671875	-4.772186279296875	-2.25830078125	
144	0.5760000000000001	0.0	0.0	0.0	0.0	0.006	0.003	0.003	0.003	9.809044201660155	0.469263525390625	0.047884033203124995	3.48663330078125	-4.383087158203125	-0.652313232421875	9.732429748535155	-0.08978256225585937	0.14006079711914063	0.476837158203125	-4.93621826171875	-2.685546875	9.835380419921874	0.46627077331542965	-0.09516951599121093	2.5482177734375	-4.810333251953125	-1.6937255859375	
145	0.58	0.0	0.0	0.0	0.0	0.009000000000000001	0.003	0.003	0.006	9.846752877807617	0.13467384338378904	-0.059256491088867186	3.51715087890625	-4.322052001953125	-0.79345703125	9.713276135253906	0.1693897674560547	0.3591302490234375	0.286102294921875	-4.8675537109375	-3.253936767578125	9.775525378417969	0.7032967376708984	0.040102877807617184	2.437591552734375	-4.61578369140625	-2.063751220703125	
146	0.584	0.0	0.0	0.0	0.0	0.006	0.003	0.006	0.006	9.813832604980469	0.4525041137695312	0.05087678527832031	3.5247802734375	-4.322052001953125	-0.743865966796875	9.732429748535155	-0.10175357055664062	0.15682020874023436	0.32806396484375	-5.153656005859375	-2.826690673828125	9.861716638183593	0.4321533996582031	-0.09277531433105468	2.593994140625	-4.810333251953125	-1.918792724609375	
147	0.588	0.0	0.0	0.0	0.0	0.003	0.006	0.006	0.006	9.884461553955077	0.11013327636718749	0.07003039855957031	2.346038818359375	-3.662109375	-0.988006591796875	9.757568865966796	0.033518823242187495	0.11432312927246092	0.32806396484375	-5.023956298828125	-3.482818603515625	9.916783276367187	0.5147533569335937	-0.14305354919433594	2.368927001953125	-4.37164306640625	-2.010345458984375	
148	0.592	0.0	0.0	0.0	0.0	0.003	0.006	0.006	0.003	9.814431155395507	0.4590881683349609	0.08499415893554688	3.5400390625	-4.12750244140625	-0.57220458984375	9.724050042724608	-0.1466448516845703	0.1849520782470703	0.209808349609375	-5.2032470703125	-2.933502197265625	9.843760125732421	0.39145197143554683	-0.062249243164062495	2.28118896484375	-4.95147705078125	-1.697540283203125	
149	0.596	0.0	0.0	0.0	0.0	0.003	0.006	0.003	0.003	9.88386300354004	0.08798691101074219	0.09995791931152344	2.3193359375	-3.765106201171875	-1.148223876953125	9.749189160156249	-0.013766659545898436	0.13347674255371092	0.4119873046875	-4.787445068359375	-3.5552978515625	9.94072529296875	0.46686932373046874	-0.14125789794921875	2.719879150390625	-4.520416259765625	-2.0904541015625	
150	0.6	0.0	0.0	0.0	0.0	0.003	0.006	0.003	0.006	9.824007962036132	0.4752490295410156	0.06105214233398437	3.265380859375	-4.2877197265625	-0.446319580078125	9.739612353515625	0.14245499877929688	0.1879448303222656	0.2593994140625	-4.947662353515625	-2.849578857421875	9.898228213500976	0.7841010437011718	0.006584054565429687	2.750396728515625	-4.49371337890625	-1.232147216796875	
151	0.604	0.0	0.0	0.0	0.0	0.006	0.006	0.006	0.003	9.867702142333984	0.11372457885742186	0.14484920043945312	2.323150634765625	-3.8299560546875	-0.9613037109375	9.718663088989258	-0.0005985504150390625	0.1514332550048828	0.4730224609375	-4.894256591796875	-3.54766845703125	9.918578927612304	0.45489831542968745	-0.10714052429199218	2.57110595703125	-4.20379638671875	-1.88446044921875	
152	0.608	0.0	0.0	0.0	0.0	0.003	0.006	0.003	0.006	9.956886154174803	0.11013327636718749	0.034715924072265626	2.109527587890625	-3.36456298828125	-0.934600830078125	9.731831198120117	0.10893617553710937	0.20769699401855468	0.43487548828125	-4.99725341796875	-2.735137939453125	9.890447058105469	0.7481880187988281	0.01915361328125	2.841949462890625	-4.688262939453125	-1.079559326171875	
153	0.612	0.0	0.0	0.0	0.0	0.006	0.006	0.006	0.003	9.86411083984375	0.12569558715820311	0.14604630126953125	2.11334228515625	-3.73077392578125	-1.178741455078125	9.9215716796875	-0.0939724151611328	0.0796072052001953	0.8544921875	-5.16510009765625	-3.330230712890625	9.925162982177733	0.4531026641845703	-0.04548983154296875	2.9754638671875	-4.63104248046875	-2.033233642578125	
154	0.616	0.0	0.0	0.0	0.0	0.006	0.003	0.003	0.006	9.94671079711914	0.1514332550048828	0.0718260498046875	2.29644775390625	-3.787994384765625	-0.843048095703125	9.714473236083984	0.09756371765136718	0.21607669982910155	0.5645751953125	-5.21087646484375	-2.62451171875	9.879673150634765	0.7505822204589844	0.029328970336914062	2.899169921875	-4.6234130859375	-1.216888427734375	
155	0.62	0.0	0.0	0.0	0.0	0.003	0.006	0.003	0.003	9.843760125732421	0.12150573425292968	0.18734627990722655	-0.255584716796875	-2.5787353515625	-1.190185546875	9.920374578857421	-0.12629413757324218	0.08080430603027343	0.8087158203125	-5.10406494140625	-3.51715087890625	10.26035121459961	0.3280056274414062	-0.4860229370117187	2.90679931640625	-4.589080810546875	-1.865386962890625	
156	0.624	0.0	0.0	0.0	0.0	0.003	0.006	0.006	0.006	9.942520944213866	0.18255787658691405	0.09277531433105468	2.52532958984375	-3.711700439453125	-0.93841552734375	9.764751470947266	0.29448680419921874	0.36691140441894526	0.42724609375	-4.93621826171875	-2.8533935546875	9.875483297729492	0.7392097625732421	0.03890577697753906	2.887725830078125	-4.67681884765625	-1.25885009765625	
157	0.628	0.0	0.0	0.0	0.0	0.003	0.003	0.006	0.0	10.025719451904296	-0.24181436767578124	-0.07003039855957031	-0.156402587890625	-2.574920654296875	-1.13677978515625	9.923965881347655	-0.09038111267089843	0.06763619689941405	0.87738037109375	-5.06591796875	-3.36456298828125	10.275913525390624	0.3525461944580078	-0.508169302368164	2.70843505859375	-4.82177734375	-1.953125	
158	0.632	0.0	0.0	0.0	0.0	0.006	0.006	0.003	0.003	9.919776028442381	0.2454056701660156	0.14963760375976562	2.6702880859375	-4.0130615234375	-0.84686279296875	9.74859060974121	0.34536358947753903	0.38187516479492184	0.476837158203125	-5.039215087890625	-2.925872802734375	9.982623822021484	1.0749965454101562	-0.12509703674316405	3.055572509765625	-4.688262939453125	-1.59454345703125	
159	0.636	0.0	0.0	0.0	0.0	0.003	0.003	0.006	0.003	10.037690460205077	-0.2855085479736328	-0.1083376251220703	-0.25177001953125	-2.506256103515625	-1.02996826171875	9.999981784057617	-0.4513070129394531	0.00239420166015625	0.965118408203125	-4.9285888671875	-2.994537353515625	10.305841046142577	0.2663549346923828	-0.5500678314208984	2.89154052734375	-4.467010498046875	-1.83868408203125	
160	0.64	0.0	0.0	0.0	0.0	0.003	0.003	0.003	0.003	9.759963067626952	0.20769699401855468	0.17836802368164062	4.69970703125	-4.6844482421875	-0.469207763671875	9.776123928833007	0.3459621398925781	0.36272155151367186	0.48065185546875	-5.1116943359375	-2.971649169921875	10.008960040283203	1.0654197387695312	-0.17597382202148437	2.99072265625	-4.49371337890625	-1.537322998046875	
161	0.644	0.0	0.0	0.0	0.0	0.006	0.006	0.003	0.003	10.032902056884765	-0.22685060729980466	-0.10295067138671875	-0.61798095703125	-2.529144287109375	-1.373291015625	10.020332498168944	-0.37409400939941406	-0.02454056701660156	0.873565673828125	-5.123138427734375	-2.90679931640625	10.070012182617187	0.22744915771484372	-0.2567781280517578	2.872467041015625	-4.63104248046875	-1.796722412109375	
162	0.648	0.0	0.0	0.0	0.0	0.006	0.006	0.003	0.003	9.756371765136718	0.1657984649658203	0.12150573425292968	4.688262939453125	-5.0048828125	-0.331878662109375	9.7683427734375	0.3022679595947265	0.3507505432128906	0.530242919921875	-4.8675537109375	-3.093719482421875	9.982623822021484	0.9864110839843749	-0.1562216583251953	2.902984619140625	-4.810333251953125	-1.361846923828125	
163	0.652	0.0	0.0	0.0	0.0	0.006	0.003	0.006	0.006	10.064026678466796	-0.21128829650878905	-0.13287819213867186	-0.54168701171875	-2.346038818359375	-1.190185546875	10.05504842224121	-0.45010991210937495	-0.06943184814453125	0.995635986328125	-4.833221435546875	-3.032684326171875	10.089165795898436	0.1466448516845703	-0.28371289672851563	2.90679931640625	-4.791259765625	-1.682281494140625	
164	0.656	0.0	0.0	0.0	0.0	0.003	0.003	0.006	0.003	9.766547122192382	0.18734627990722655	0.07122749938964844	4.53948974609375	-4.7760009765625	-0.453948974609375	9.642647186279296	0.3274070770263672	0.43574470214843747	0.5645751953125	-5.035400390625	-3.28826904296875	10.053252770996092	0.7709329345703124	0.044891281127929686	2.353668212890625	-4.7760009765625	-2.49481201171875	
165	0.66	0.0	0.0	0.0	0.0	0.006	0.006	0.006	0.006	9.891045608520507	0.26874913635253905	0.08858546142578125	3.078460693359375	-3.948211669921875	-0.30517578125	10.044873065185547	-0.43634325256347656	-0.05686228942871093	0.06103515625	-5.1116943359375	-3.101348876953125	10.070012182617187	0.15741875915527342	-0.28490999755859375	2.87628173828125	-4.863739013671875	-1.575469970703125	
166	0.664	0.0	0.0	0.0	0.0	0.009000000000000001	0.006	0.003	0.006	9.787496386718749	0.20290859069824219	0.029927520751953124	4.726409912109375	-4.64630126953125	-0.583648681640625	9.639055883789062	0.3286041778564453	0.4387374542236328	0.48828125	-4.947662353515625	-3.0975341796875	9.741408004760741	0.7601590270996094	0.031124621582031248	2.582550048828125	-4.688262939453125	-2.31170654296875	
167	0.668	0.0	0.0	0.0	0.0	0.006	0.006	0.006	0.009000000000000001	9.90181951599121	0.3094505645751953	0.047285482788085934	3.284454345703125	-3.753662109375	-0.3509521484375	9.7928833404541	-0.3495534423828125	0.10295067138671875	0.40435791015625	-4.9896240234375	-2.8076171875	10.089165795898436	0.14724340209960937	-0.3172317199707031	3.021240234375	-4.425048828125	-1.4801025390625	
168	0.672	0.0	0.0	0.0	0.0	0.006	0.003	0.003	0.003	9.79348189086914	0.16460136413574217	0.028730419921875	3.192901611328125	-4.032135009765625	-0.972747802734375	9.616909518432617	0.30047230834960936	0.4333505004882812	0.274658203125	-4.8065185546875	-3.070831298828125	9.726444244384766	0.6937199310302734	0.04189852905273437	2.25067138671875	-4.619598388671875	-2.346038818359375	
169	0.676	0.0	0.0	0.0	0.0	0.006	0.006	0.003	0.003	9.918578927612304	0.2771288421630859	0.02693476867675781	3.215789794921875	-4.0130615234375	-0.25177001953125	9.80066449584961	-0.373495458984375	0.11013327636718749	0.400543212890625	-5.161285400390625	-2.593994140625	9.832986218261718	0.4225765930175781	-0.1322796417236328	2.407073974609375	-4.970550537109375	-1.64031982421875	
170	0.68	0.0	0.0	0.0	0.0	0.006	0.003	0.006	0.006	9.776722479248047	-0.006584054565429687	-0.0047884033203125	3.589630126953125	-4.34112548828125	-0.640869140625	9.625289224243163	0.1514332550048828	0.14425065002441406	0.78582763671875	-5.0048828125	-3.597259521484375	9.732429748535155	0.6691793640136718	0.05985504150390625	2.4566650390625	-4.596710205078125	-2.155303955078125	
171	0.684	0.0	0.0	0.0	0.0	0.003	0.006	0.003	0.003	9.967061511230469	0.19512743530273435	-0.014963760375976562	3.3111572265625	-4.20379638671875	-0.423431396484375	9.795876092529296	-0.45968671875	0.1227028350830078	0.213623046875	-5.008697509765625	-2.685546875	9.803058697509766	0.5572504364013672	-0.07003039855957031	2.3651123046875	-4.96673583984375	-1.922607421875	
172	0.6880000000000001	0.0	0.0	0.0	0.0	0.003	0.003	0.006	0.006	9.764152920532226	-0.0526724365234375	0.04668693237304687	3.9825439453125	-4.41741943359375	-0.75531005859375	9.598953005981445	0.26755203552246093	0.16519991455078123	0.728607177734375	-4.64630126953125	-3.9215087890625	9.9461122467041	0.3872621185302734	-0.25258827514648435	2.72369384765625	-4.47845458984375	-2.14385986328125	
173	0.6920000000000001	0.0	0.0	0.0	0.0	0.003	0.003	0.006	0.006	9.89583401184082	0.2825157958984375	-0.21188684692382811	2.880096435546875	-4.291534423828125	-0.598907470703125	9.717465988159178	0.04189852905273437	0.028131869506835935	0.301361083984375	-5.39398193359375	-2.63214111328125	9.80605144958496	0.6500257507324219	-0.05327098693847656	2.54058837890625	-4.75311279296875	-1.735687255859375	
174	0.6960000000000001	0.0	0.0	0.0	0.0	0.006	0.003	0.003	0.006	9.78629928588867	-0.11552023010253906	0.06464344482421874	3.910064697265625	-4.31060791015625	-0.75531005859375	9.60852981262207	0.27952304382324217	0.2166752502441406	0.42724609375	-4.665374755859375	-3.70025634765625	9.95987890625	0.27174188842773433	-0.2424129180908203	2.674102783203125	-4.558563232421875	-2.11334228515625	
175	0.7000000000000001	0.0	0.0	0.0	0.0	0.003	0.006	0.003	0.006	9.904812268066406	0.1975216369628906	-0.19033903198242186	3.05938720703125	-4.337310791015625	-0.42724609375	9.708487731933593	-0.14125789794921875	0.047884033203124995	0.2899169921875	-5.08880615234375	-2.70843505859375	9.840168823242188	0.8553285430908203	0.011372457885742187	2.933502197265625	-4.72259521484375	-1.5869140625	
176	0.704	0.0	0.0	0.0	0.0	0.003	0.003	0.003	0.003	9.814431155395507	-0.0383072265625	0.07422025146484375	3.849029541015625	-4.543304443359375	-0.69427490234375	9.86291373901367	0.07601590270996093	0.025737667846679687	1.22833251953125	-4.85992431640625	-3.4027099609375	9.969455712890625	0.20769699401855468	-0.2088940948486328	2.60162353515625	-4.486083984375	-1.8768310546875	
177	0.708	0.0	0.0	0.0	0.0	0.0	0.006	0.006	0.003	9.898228213500976	0.11611878051757812	-0.17058686828613281	3.154754638671875	-4.299163818359375	-0.732421875	9.708487731933593	-0.3112462158203125	0.06643909606933593	0.274658203125	-5.214691162109375	-2.87628173828125	9.842563024902343	0.8379705810546875	0.03411737365722656	2.62451171875	-4.512786865234375	-1.384735107421875	
178	0.712	0.0	0.0	0.0	0.0	0.006	0.006	0.006	0.003	9.862315188598632	-0.07362170104980469	-0.08020575561523437	-1.19781494140625	-2.105712890625	-1.434326171875	9.842563024902343	0.21308394775390624	0.0430956298828125	0.812530517578125	-4.76837158203125	-2.986907958984375	9.95987890625	0.20829554443359374	-0.18914193115234373	2.87628173828125	-4.364013671875	-1.74713134765625	
179	0.716	0.0	0.0	0.0	0.0	0.003	0.003	0.006	0.003	9.93354268798828	0.20769699401855468	-0.143652099609375	4.085540771484375	-4.451751708984375	-0.0762939453125	9.832986218261718	-0.20649989318847656	0.316034619140625	0.179290771484375	-5.146026611328125	-2.735137939453125	9.846752877807617	0.7727285858154297	0.03531447448730469	2.788543701171875	-4.673004150390625	-1.735687255859375	
180	0.72	0.0	0.0	0.0	0.0	0.003	0.006	0.006	0.003	9.868899243164062	-0.24660277099609373	-0.08020575561523437	-1.97601318359375	-1.995086669921875	-1.31988525390625	9.834183319091796	0.15083470458984374	0.044292730712890624	0.865936279296875	-4.8980712890625	-2.79998779296875	10.295067138671874	0.4261678955078125	-0.5805939025878906	3.11279296875	-4.8370361328125	-1.373291015625	
181	0.724	0.0	0.0	0.0	0.0	0.003	0.003	0.003	0.003	10.001777435302733	-0.09756371765136718	-0.12988544006347655	5.98907470703125	-5.443572998046875	-0.16021728515625	9.8449572265625	-0.10235212097167969	0.27174188842773433	0.308990478515625	-5.22613525390625	-3.1585693359375	9.87608184814453	0.7428010650634765	0.02154781494140625	2.735137939453125	-4.543304443359375	-1.71661376953125	
182	0.728	0.0	0.0	0.0	0.0	0.003	0.006	0.006	0.009000000000000001	9.967660061645507	-0.15203180541992187	-0.12030863342285156	-0.16021728515625	-2.5482177734375	-0.7171630859375	9.864709390258788	-0.03411737365722656	0.09696516723632811	1.39617919921875	-4.99725341796875	-2.86865234375	10.292672937011718	0.48722003784179685	-0.5506663818359374	2.857208251953125	-4.520416259765625	-1.19781494140625	
183	0.732	0.0	0.0	0.0	0.0	0.006	0.006	0.003	0.003	9.587580548095703	0.32620997619628905	0.39324762268066404	4.2724609375	-4.52423095703125	-0.54931640625	9.818022457885741	0.020949264526367185	0.3345896820068359	0.431060791015625	-5.542755126953125	-3.19671630859375	9.996989031982421	0.45190556335449217	-0.12210428466796874	2.75421142578125	-4.665374755859375	-2.048492431640625	
184	0.736	0.0	0.0	0.0	0.0	0.003	0.006	0.003	0.003	9.949104998779296	-0.0017956512451171875	-0.12629413757324218	-2.67791748046875	-1.651763916015625	-1.33514404296875	10.049661468505859	-0.009576806640625	-0.1131260284423828	1.232147216796875	-5.100250244140625	-2.899169921875	10.306439596557617	0.5698199951171875	-0.575206948852539	2.9296875	-4.428863525390625	-1.1138916015625	
185	0.74	0.0	0.0	0.0	0.0	0.006	0.003	0.003	0.003	9.635464581298828	0.15682020874023436	0.3286041778564453	4.619598388671875	-4.650115966796875	-0.640869140625	9.84435867614746	0.07003039855957031	0.28311434631347654	0.545501708984375	-4.9591064453125	-3.009796142578125	10.01015714111328	0.37888241271972656	-0.11671733093261719	2.727508544921875	-4.5928955078125	-1.804351806640625	
186	0.744	0.0	0.0	0.0	0.0	0.003	0.006	0.003	0.003	10.005368737792969	0.5291185668945312	0.11731588134765625	0.545501708984375	-2.880096435546875	-0.74005126953125	10.016142645263672	-0.11731588134765625	-0.08259995727539061	1.277923583984375	-4.89044189453125	-2.99835205078125	10.034099157714843	0.7607575775146483	-0.19812018737792966	2.834320068359375	-4.90570068359375	-1.522064208984375	
187	0.748	0.0	0.0	0.0	0.0	0.006	0.003	0.003	0.006	9.542090716552734	0.15322890625	0.373495458984375	5.5389404296875	-5.084991455078125	-0.57220458984375	9.546879119873047	0.22744915771484372	0.5213374114990235	0.659942626953125	-5.084991455078125	-3.265380859375	10.007762939453125	0.354341845703125	-0.08918401184082031	3.021240234375	-4.69207763671875	-1.85394287109375	
188	0.752	0.0	0.0	0.0	0.0	0.006	0.006	0.003	0.003	9.991003527832031	0.6015431671142578	0.0909796630859375	-0.6866455078125	-2.277374267578125	-1.1444091796875	10.078391888427733	-0.10654197387695312	-0.1370680450439453	1.40380859375	-5.107879638671875	-3.11279296875	10.079588989257813	0.757166275024414	-0.22026655273437498	2.841949462890625	-4.985809326171875	-1.67083740234375	
189	0.756	0.0	0.0	0.0	0.0	0.003	0.006	0.003	0.006	9.557653027343749	0.08858546142578125	0.3082534637451172	4.039764404296875	-4.398345947265625	-1.04522705078125	9.549871871948241	0.21009119567871093	0.5099649536132812	0.91552734375	-5.199432373046875	-3.082275390625	9.980229620361328	0.3298012786865234	-0.08858546142578125	2.15911865234375	-4.505157470703125	-1.743316650390625	
190	0.76	0.0	0.0	0.0	0.0	0.003	0.006	0.006	0.006	10.005368737792969	0.5859808563232421	0.11671733093261719	0.415802001953125	-2.89154052734375	-1.0986328125	9.84555577697754	-0.10893617553710937	0.15562310791015624	0.629425048828125	-5.22613525390625	-3.124237060546875	10.01674119567871	0.785896694946289	-0.23582886352539062	2.74658203125	-5.0201416015625	-1.5869140625	
191	0.764	0.0	0.0	0.0	0.0	0.003	0.003	0.006	0.006	9.7683427734375	0.008379705810546874	0.15203180541992187	2.750396728515625	-3.734588623046875	-1.194000244140625	9.564835632324218	0.16280571289062498	0.4632780212402344	0.606536865234375	-5.069732666015625	-3.0364990234375	9.744400756835937	0.25318682556152344	0.11372457885742186	2.34222412109375	-4.67681884765625	-2.0904541015625	
192	0.768	0.0	0.0	0.0	0.0	0.0	0.006	0.003	0.003	9.97184991455078	0.6380547424316406	0.05566518859863281	0.640869140625	-2.7923583984375	-1.251220703125	9.867103591918944	-0.06045359191894531	0.14185644836425781	0.762939453125	-4.840850830078125	-3.086090087890625	10.069413632202147	0.718260498046875	-0.2442085693359375	2.376556396484375	-4.9285888671875	-1.712799072265625	
193	0.772	0.0	0.0	0.0	0.0	0.006	0.006	0.006	4.62	9.743203656005859	-0.011971008300781249	0.16699556579589842	2.11334228515625	-3.246307373046875	-1.434326171875	9.553463174438477	0.05686228942871093	0.49021278991699213	0.598907470703125	-4.756927490234375	-3.437042236328125	9.665392102050781	0.316034619140625	0.15263035583496093	2.460479736328125	-4.67681884765625	-2.1820068359375	
194	0.776	0.0	0.0	0.0	0.0	4.632	4.665	4.668	4.644	10.014945544433592	0.6398503936767578	0.016759411621093748	6.32476806640625	-5.748748779296875	-0.408172607421875	9.882067352294921	0.01915361328125	0.09217676391601562	0.49591064453125	-4.756927490234375	-3.124237060546875	9.764751470947266	0.7655459808349608	0.05087678527832031	2.338409423828125	-4.947662353515625	-2.00653076171875	
195	0.78	0.0	0.0	0.0	0.0	4.644	4.668	4.665	4.647	9.780912332153319	-0.027533319091796873	0.10414777221679687	2.338409423828125	-3.688812255859375	-1.140594482421875	9.612719665527344	0.047884033203124995	0.4381389038085937	0.518798828125	-4.93621826171875	-3.482818603515625	9.739612353515625	0.31483751831054685	0.08858546142578125	2.2125244140625	-4.72259521484375	-1.979827880859375	
196	0.784	0.0	0.0	0.0	0.0	4.647	4.671	4.671	4.632	9.943718045043944	0.5291185668945312	-0.051475335693359374	6.061553955078125	-5.4931640625	-0.354766845703125	9.739013803100585	0.013766659545898436	0.08499415893554688	0.52642822265625	-5.428314208984375	-3.204345703125	9.816226806640625	0.7356184600830078	0.031124621582031248	2.471923828125	-4.657745361328125	-2.201080322265625	
197	0.788	0.0	0.0	0.0	0.0	4.65	4.671	4.671	4.6290000000000004	9.692326870727538	0.06883329772949218	0.23343466186523437	2.841949462890625	-3.7994384765625	-1.09100341796875	9.55645592651367	0.11133037719726561	0.488417138671875	0.301361083984375	-5.08880615234375	-3.475189208984375	9.931148486328125	0.4734533782958984	-0.2292448089599609	2.796173095703125	-4.421234130859375	-1.514434814453125	
198	0.792	0.0	0.0	0.0	0.0	4.65	4.668	4.671	4.635	9.964068759155273	0.49739539489746093	-0.11731588134765625	5.42449951171875	-5.50079345703125	-0.5340576171875	9.718064538574218	-0.020350714111328123	0.08559270935058594	0.48828125	-5.07354736328125	-2.811431884765625	9.820416659545899	0.7589619262695312	-0.016160861206054686	2.2735595703125	-4.589080810546875	-2.00653076171875	
199	0.796	0.0	0.0	0.0	0.0	4.647	4.671	4.671	4.635	9.94072529296875	-0.15382745666503905	-0.17477672119140625	1.003265380859375	-3.2958984375	-1.224517822265625	9.868899243164062	-0.04129997863769531	0.016759411621093748	0.362396240234375	-4.543304443359375	-3.1280517578125	10.002974536132811	0.4638765716552734	-0.32620997619628905	2.574920654296875	-4.360198974609375	-1.720428466796875	
200	0.8	0.0	0.0	0.0	0.0	4.6530000000000005	4.674	4.674	4.647	9.892841259765625	0.34536358947753903	-0.022146365356445312	5.130767822265625	-5.31005859375	-0.49591064453125	9.651026892089844	-0.06045359191894531	0.1592144104003906	0.2288818359375	-4.974365234375	-3.021240234375	9.77432827758789	0.7314286071777343	0.029927520751953124	2.819061279296875	-4.764556884765625	-2.7923583984375	
201	0.804	0.0	0.0	0.0	0.0	4.644	4.671	4.671	4.644	9.890447058105469	-0.027533319091796873	-0.07781155395507812	1.27410888671875	-3.200531005859375	-0.713348388671875	9.834183319091796	-0.025737667846679687	0.061650692749023434	0.270843505859375	-4.8828125	-3.326416015625	9.958083255004881	0.4848258361816406	-0.2657563842773437	2.468109130859375	-4.4708251953125	-1.51824951171875	
202	0.808	0.0	0.0	0.0	0.0	4.644	4.671	4.668	4.647	9.949104998779296	0.24121581726074218	-0.11851298217773437	4.5318603515625	-4.886627197265625	-0.6103515625	9.765948571777344	-0.12629413757324218	0.09995791931152344	0.125885009765625	-5.19561767578125	-2.76947021484375	10.002974536132811	0.4830301849365234	-0.15263035583496093	2.956390380859375	-4.543304443359375	-1.70135498046875	
203	0.812	0.0	0.0	0.0	0.0	4.647	4.674	4.674	4.632	9.90122096557617	-0.002992752075195312	-0.16220716247558592	1.514434814453125	-3.330230712890625	-0.904083251953125	9.801861596679688	-0.03950432739257812	0.11791443176269531	0.40435791015625	-4.703521728515625	-3.246307373046875	9.934739788818359	0.4572925170898437	-0.2609679809570312	2.559661865234375	-4.352569580078125	-1.377105712890625	
204	0.8160000000000001	0.0	0.0	0.0	0.0	4.65	4.671	4.671	4.626	9.809642752075195	-0.04908113403320312	0.24001871643066405	4.02069091796875	-4.608154296875	-0.240325927734375	9.840168823242188	0.04189852905273437	0.17238251953125	0.049591064453125	-5.218505859375	-2.674102783203125	9.874884747314452	0.5297171173095703	-0.10235212097167969	2.994537353515625	-4.772186279296875	-1.9073486328125	
205	0.8200000000000001	0.0	0.0	0.0	0.0	4.644	4.668	4.671	4.6290000000000004	9.979631069946288	0.0053869537353515625	-0.21009119567871093	1.651763916015625	-3.536224365234375	-0.5950927734375	9.852139831542969	-0.029328970336914062	0.03950432739257812	0.980377197265625	-4.9285888671875	-3.15093994140625	10.357316381835936	0.6859387756347656	-0.7032967376708984	3.147125244140625	-4.4708251953125	-1.35040283203125	
206	0.8240000000000001	0.0	0.0	0.0	0.0	4.647	4.671	4.671	4.635	9.779116680908203	-0.05686228942871093	0.15981296081542967	4.39453125	-4.695892333984375	-0.438690185546875	9.90840357055664	-0.0005985504150390625	0.052073886108398436	0.308990478515625	-5.374908447265625	-2.758026123046875	9.961076007080077	0.469263525390625	-0.14425065002441406	3.040313720703125	-4.791259765625	-1.842498779296875	
207	0.8280000000000001	0.0	0.0	0.0	0.0	4.644	4.674	4.674	4.641	9.873687646484374	0.06404489440917968	-0.03950432739257812	-1.514434814453125	-1.6326904296875	-1.071929931640625	10.002375985717773	-0.047285482788085934	-0.15682020874023436	0.74005126953125	-5.146026611328125	-2.9296875	10.293870037841796	0.6667851623535156	-0.6619967590332031	3.009796142578125	-4.60052490234375	-1.186370849609375	
208	0.8320000000000001	0.0	0.0	0.0	0.0	4.641	4.671	4.671	4.644	9.798270294189452	0.12689268798828124	0.22445640563964842	6.28662109375	-5.710601806640625	-0.270843505859375	9.897629663085937	0.08319850769042968	0.07900865478515624	0.46539306640625	-5.237579345703125	-2.902984619140625	9.941323843383788	0.4327519500732422	-0.10115502014160156	3.0517578125	-4.901885986328125	-1.64031982421875	
209	0.836	0.0	0.0	0.0	0.0	4.638	4.671	4.668	4.647	10.149020837402343	0.12449848632812499	-0.21787235107421873	-2.31170654296875	-1.476287841796875	-1.42669677734375	10.102333905029296	-0.07721300354003906	-0.27832594299316404	0.6561279296875	-4.772186279296875	-2.971649169921875	10.40041201171875	0.6691793640136718	-0.7212532501220703	2.979278564453125	-4.53948974609375	-1.346588134765625	
210	0.84	0.0	0.0	0.0	0.0	4.647	4.674	4.674	4.6290000000000004	9.813832604980469	0.04668693237304687	0.15741875915527342	4.650115966796875	-4.89044189453125	-0.5340576171875	9.631274728393555	0.17776947326660156	0.31483751831054685	0.591278076171875	-5.08880615234375	-2.8228759765625	9.951499200439452	0.3220201232910156	-0.025737667846679687	2.819061279296875	-4.512786865234375	-1.697540283203125	
211	0.844	0.0	0.0	0.0	0.0	4.65	4.671	4.671	4.626	9.989806427001952	0.18734627990722655	-0.11851298217773437	-0.308990478515625	-2.300262451171875	-1.155853271484375	9.963470208740233	-0.011971008300781249	-0.11611878051757812	0.72479248046875	-4.878997802734375	-2.7008056640625	10.29805989074707	0.7439981658935546	-0.6727706665039062	2.513885498046875	-4.840850830078125	-1.750946044921875	
212	0.848	0.0	0.0	0.0	0.0	4.644	4.671	4.671	4.635	9.730035546875	0.08200140686035155	0.16041151123046873	0.522613525390625	-2.79998779296875	-1.369476318359375	9.694122521972655	0.1753752716064453	0.2855085479736328	0.560760498046875	-5.22613525390625	-2.590179443359375	10.018536846923828	0.3842693664550781	-0.11791443176269531	2.98309326171875	-4.840850830078125	-1.781463623046875	
213	0.852	0.0	0.0	0.0	0.0	4.647	4.665	4.671	4.641	10.171765753173828	0.05027823486328125	-0.2280477081298828	-0.93841552734375	-2.170562744140625	-1.277923583984375	9.906607919311522	-0.11611878051757812	0.04908113403320312	0.5950927734375	-4.878997802734375	-3.15093994140625	10.097545501708984	0.70868369140625	-0.2549824768066406	2.44903564453125	-4.73785400390625	-1.804351806640625	
214	0.856	0.0	0.0	0.0	0.0	4.65	4.674	4.674	4.641	9.603741409301758	0.21428104858398436	0.29867665710449215	2.2125244140625	-3.978729248046875	-0.9613037109375	9.586981997680663	0.23044190979003906	0.3872621185302734	0.9307861328125	-4.92095947265625	-3.025054931640625	9.905410818481444	0.39803602600097654	-0.0143652099609375	2.910614013671875	-5.001068115234375	-1.7852783203125	
215	0.86	0.0	0.0	0.0	0.0	4.641	4.671	4.671	4.647	10.025719451904296	0.08798691101074219	-0.11851298217773437	-1.499176025390625	-2.44903564453125	-1.46484375	9.881468801879882	-0.10893617553710937	0.11851298217773437	0.926971435546875	-5.130767822265625	-3.19671630859375	10.081983190917969	0.7876923461914062	-0.24061726684570311	2.55584716796875	-4.8065185546875	-1.77001953125	
216	0.864	0.0	0.0	0.0	0.0	4.638	4.671	4.668	1.164	9.835978970336914	0.05566518859863281	0.12629413757324218	1.407623291015625	-3.173828125	-1.10626220703125	9.674968908691406	0.04189852905273437	0.4082113830566406	0.873565673828125	-4.871368408203125	-3.597259521484375	9.746794958496093	0.2807201446533203	0.18076222534179687	2.178192138671875	-4.467010498046875	-2.162933349609375	
217	0.868	0.0	0.0	0.0	0.0	1.164	0.003	0.006	0.003	9.813832604980469	0.535702621459961	0.16879121704101563	4.581451416015625	-4.58526611328125	-0.637054443359375	9.849147079467773	-0.12569558715820311	0.1484405029296875	0.8697509765625	-5.229949951171875	-3.063201904296875	10.005368737792969	0.74699091796875	-0.1352723937988281	2.60162353515625	-4.894256591796875	-1.995086669921875	
218	0.872	0.0	0.0	0.0	0.0	0.003	0.006	0.003	0.003	9.698910925292969	0.1657984649658203	0.2867056488037109	-0.514984130859375	-2.410888671875	-1.483917236328125	9.620500820922851	0.17417817077636719	0.4010287780761719	0.67901611328125	-4.543304443359375	-3.314971923828125	9.564835632324218	0.4010287780761719	0.2555810272216797	2.239227294921875	-4.550933837890625	-1.804351806640625	
219	0.876	0.0	0.0	0.0	0.0	0.003	0.003	0.003	0.003	10.001178884887695	0.32022447204589843	0.018555062866210937	4.98199462890625	-4.974365234375	-0.66375732421875	9.70968483276367	-0.1514332550048828	0.36930560607910157	0.293731689453125	-4.99725341796875	-2.895355224609375	9.891045608520507	0.527322915649414	-0.09816226806640624	2.3193359375	-5.176544189453125	-2.002716064453125	
220	0.88	0.0	0.0	0.0	0.0	0.003	0.006	0.003	0.006	9.84435867614746	0.086191259765625	0.19033903198242186	3.009796142578125	-3.765106201171875	-0.54931640625	9.616909518432617	0.10893617553710937	0.46806642456054687	0.7171630859375	-4.833221435546875	-3.566741943359375	9.657012396240233	0.34656069030761716	0.24061726684570311	2.1209716796875	-4.550933837890625	-1.880645751953125	
221	0.884	0.0	0.0	0.0	0.0	0.006	0.006	0.006	0.006	9.732429748535155	0.5805939025878906	0.2741360900878906	4.955291748046875	-5.115509033203125	-0.96893310546875	9.616909518432617	-0.06883329772949218	0.38187516479492184	0.347137451171875	-5.313873291015625	-3.185272216796875	9.744999307250977	0.6057330200195312	-0.0053869537353515625	2.315521240234375	-4.81414794921875	-2.201080322265625	
222	0.888	0.0	0.0	0.0	0.0	0.003	0.006	0.006	0.006	9.967660061645507	0.09277531433105468	0.0017956512451171875	0.89263916015625	-2.765655517578125	-1.220703125	9.737218151855469	-0.003591302490234375	0.2166752502441406	0.579833984375	-4.82177734375	-3.284454345703125	9.69771382446289	0.3872621185302734	0.17477672119140625	2.960205078125	-4.512786865234375	-1.4801025390625	
223	0.892	0.0	0.0	0.0	0.0	0.003	0.003	0.003	0.006	9.996989031982421	0.23582886352539062	0.061650692749023434	6.046295166015625	-5.096435546875	-0.576019287109375	9.698910925292969	-0.09935936889648436	0.4112041351318359	0.118255615234375	-4.7760009765625	-3.017425537109375	9.867702142333984	0.5135562561035156	-0.054468087768554684	2.155303955078125	-4.82940673828125	-2.231597900390625	
224	0.896	0.0	0.0	0.0	0.0	0.006	0.003	0.006	0.003	9.819219558715819	0.3280056274414062	0.14305354919433594	4.4403076171875	-4.459381103515625	-0.255584716796875	9.696516723632811	-0.05027823486328125	0.20949264526367187	0.316619873046875	-4.932403564453125	-3.421783447265625	9.956287603759765	0.6272808349609375	-0.296881005859375	2.773284912109375	-4.4403076171875	-1.373291015625	
225	0.9	0.0	0.0	0.0	0.0	0.003	0.006	0.003	0.006	9.815029705810547	-0.11192892761230468	-0.013168109130859374	1.499176025390625	-3.692626953125	-1.22833251953125	9.64683703918457	-0.07601590270996093	0.3842693664550781	0.30517578125	-5.146026611328125	-3.017425537109375	9.74799205932617	0.556053335571289	0.0652419952392578	2.178192138671875	-4.940032958984375	-2.2125244140625	
226	0.904	0.0	0.0	0.0	0.0	0.003	0.003	0.003	0.003	9.983820922851562	0.17357962036132812	0.059256491088867186	0.96893310546875	-2.74658203125	-1.22833251953125	9.770736975097655	-0.022146365356445312	0.15562310791015624	0.446319580078125	-5.077362060546875	-3.37982177734375	10.053851321411132	0.5704185455322265	-0.34117373657226563	2.605438232421875	-4.444122314453125	-1.613616943359375	
227	0.908	0.0	0.0	0.0	0.0	0.003	0.003	0.003	0.006	9.991003527832031	-0.40222587890625	-0.12389993591308593	4.35638427734375	-4.96673583984375	-0.125885009765625	9.769539874267577	0.016759411621093748	0.10235212097167969	0.301361083984375	-4.993438720703125	-2.96783447265625	9.996989031982421	0.4477157104492187	-0.14245499877929688	3.04412841796875	-4.482269287109375	-1.5716552734375	
228	0.912	0.0	0.0	0.0	0.0	0.006	0.003	0.003	0.009000000000000001	9.991003527832031	0.45968671875	0.19871873779296872	6.72149658203125	-5.512237548828125	0.438690185546875	9.658209497070311	0.05746083984375	0.19512743530273435	0.55694580078125	-4.95147705078125	-3.551483154296875	9.89523546142578	0.6254851837158203	-0.3489548919677734	2.384185791015625	-4.596710205078125	-1.56402587890625	
229	0.916	0.0	0.0	0.0	0.0	0.003	0.003	0.006	0.003	9.717465988159178	-0.07601590270996093	-0.027533319091796873	0.980377197265625	-3.383636474609375	-1.110076904296875	9.813832604980469	0.0005985504150390625	-0.07841010437011718	0.22125244140625	-5.168914794921875	-2.99072265625	10.077194787597655	0.5003881469726562	-0.29448680419921874	3.0364990234375	-4.669189453125	-1.2054443359375	
230	0.92	0.0	0.0	0.0	0.0	0.009000000000000001	0.003	0.003	0.003	10.122086068725585	-0.1610100616455078	-0.34237083740234375	-0.850677490234375	-2.330780029296875	-1.39617919921875	10.03050785522461	-0.12689268798828124	-0.18375497741699218	0.751495361328125	-4.95147705078125	-3.143310546875	10.395025057983398	0.6015431671142578	-0.7080851409912109	3.437042236328125	-4.611968994140625	-1.2359619140625	
231	0.924	0.0	0.0	0.0	0.0	0.003	0.003	0.006	0.006	9.958083255004881	-0.5853823059082031	-0.011971008300781249	0.7781982421875	-3.0670166015625	-0.888824462890625	9.721655841064452	-0.010773907470703125	0.0987608184814453	0.14495849609375	-5.100250244140625	-2.407073974609375	9.917980377197265	0.489015689086914	-0.14963760375976562	2.84576416015625	-4.81414794921875	-1.76239013671875	
232	0.928	0.0	0.0	0.0	0.0	0.0	0.003	0.003	0.006	10.037690460205077	-0.003591302490234375	-0.2615665313720703	6.28662109375	-5.710601806640625	0.514984130859375	9.970652813720703	-0.04369418029785156	-0.011971008300781249	0.83160400390625	-5.2490234375	-3.02886962890625	10.244788903808594	0.6787561706542968	-0.49320554199218747	2.92205810546875	-4.6539306640625	-1.323699951171875	
233	0.932	0.0	0.0	0.0	0.0	0.003	0.006	0.006	0.003	9.827599264526366	-0.3190273712158203	-0.0526724365234375	-1.82342529296875	-1.73187255859375	0.415802001953125	9.75517466430664	0.14245499877929688	0.3800795135498047	0.8697509765625	-4.802703857421875	-2.696990966796875	9.987412225341796	0.4608838195800781	-0.15322890625	2.704620361328125	-4.61578369140625	-1.56402587890625	
234	0.936	0.0	0.0	0.0	0.0	0.006	0.003	0.003	0.003	9.847351428222655	0.3525461944580078	-0.16639701538085935	-1.186370849609375	-1.888275146484375	-2.0751953125	9.934739788818359	-0.08798691101074219	-0.08080430603027343	1.13677978515625	-5.22613525390625	-3.0670166015625	10.256161361694335	0.650624301147461	-0.48662148742675776	2.986907958984375	-4.5623779296875	-1.750946044921875	
235	0.9400000000000001	0.0	0.0	0.0	0.0	-0.003	0.003	0.003	0.006	9.651026892089844	0.31064766540527344	0.5183446594238281	-0.827789306640625	-2.017974853515625	-1.24359130859375	9.679757312011718	0.2519897247314453	0.42018239135742186	0.93841552734375	-4.962921142578125	-2.742767333984375	9.90241806640625	0.536899722290039	0.11611878051757812	2.582550048828125	-4.749298095703125	-1.53350830078125	
236	0.9440000000000001	0.0	0.0	0.0	0.0	0.006	0.003	0.003	0.003	10.110115060424803	-0.1610100616455078	-0.2154781494140625	1.087188720703125	-3.265380859375	-1.068115234375	9.944316595458984	-0.09576806640624999	0.1514332550048828	0.713348388671875	-5.04302978515625	-3.398895263671875	10.33636711730957	0.6159083770751953	-0.63206923828125	3.070831298828125	-4.5623779296875	-1.560211181640625	
237	0.9480000000000001	0.0	0.0	0.0	0.0	0.009000000000000001	0.003	0.003	0.003	9.648632690429688	0.5674257934570313	0.4381389038085937	3.41033935546875	-3.681182861328125	0.0152587890625	9.70369932861328	0.27353753967285155	0.4010287780761719	1.10626220703125	-5.2032470703125	-2.910614013671875	10.044274514770507	0.4908113403320312	-0.04608838195800781	2.84576416015625	-4.7149658203125	-1.6937255859375	
238	0.9520000000000001	0.0	0.0	0.0	0.0	0.003	0.003	0.006	0.006	9.743802206420899	0.6200982299804687	0.21727380065917967	4.18853759765625	-4.45556640625	-1.07574462890625	9.89463691101074	-0.08439560852050781	0.229843359375	0.83160400390625	-5.054473876953125	-3.47900390625	10.047267266845703	0.6643909606933593	-0.34715924072265625	2.506256103515625	-5.016326904296875	-2.13623046875	
239	0.9560000000000001	0.0	0.0	0.0	0.0	0.003	0.003	0.003	0.006	9.54508346862793	0.7529764221191406	0.5153519073486328	-1.09100341796875	-1.972198486328125	-1.5106201171875	9.680355862426758	0.24959552307128904	0.33758243408203126	0.6866455078125	-5.06591796875	-3.570556640625	10.03050785522461	0.46627077331542965	-0.009576806640625	2.93731689453125	-4.909515380859375	-1.689910888671875	
240	0.96	0.0	0.0	0.0	0.0	0.006	0.006	0.006	0.006	9.957484704589843	0.3429693878173828	0.08020575561523437	5.0506591796875	-4.718780517578125	-1.079559326171875	9.962273107910155	-0.1580173095703125	0.24121581726074218	0.400543212890625	-5.08880615234375	-3.62396240234375	10.159196194458007	0.5452794281005859	-0.4537012145996093	2.49481201171875	-4.66156005859375	-2.170562744140625	
241	0.964	0.0	0.0	0.0	0.0	0.003	0.003	0.003	0.003	9.661800799560547	0.824203921508789	0.5452794281005859	1.262664794921875	-3.0059814453125	-1.03759765625	9.674968908691406	0.2549824768066406	0.36092590026855464	0.492095947265625	-4.718780517578125	-3.34930419921875	9.647435589599608	0.6117185241699218	0.086191259765625	2.376556396484375	-4.611968994140625	-2.017974853515625	
242	0.968	0.0	0.0	0.0	0.0	0.006	0.006	0.003	0.003	9.83777462158203	0.5799953521728515	0.0796072052001953	7.045745849609375	-5.275726318359375	-0.675201416015625	9.71028338317871	-0.09576806640624999	0.22445640563964842	-0.225067138671875	-4.993438720703125	-2.838134765625	10.036493359375	0.6296750366210937	-0.38845921936035155	2.72369384765625	-4.695892333984375	-1.926422119140625	
243	0.972	0.0	0.0	0.0	0.0	0.003	0.003	0.003	0.006	9.998784683227539	0.11731588134765625	-0.421978042602539	1.750946044921875	-3.330230712890625	-1.277923583984375	9.753379013061522	0.1484405029296875	0.3112462158203125	-0.141143798828125	-4.558563232421875	-3.025054931640625	9.724050042724608	0.5440823272705078	0.023942016601562498	2.643585205078125	-4.795074462890625	-1.880645751953125	
244	0.976	0.0	0.0	0.0	0.0	0.006	0.003	0.003	0.003	9.94730934753418	0.2537853759765625	-0.08379705810546874	6.336212158203125	-5.21087646484375	-1.10626220703125	9.792284790039062	-0.14724340209960937	0.1149216796875	-0.308990478515625	-5.21087646484375	-2.8076171875	10.047267266845703	0.5776011505126952	-0.31483751831054685	2.506256103515625	-4.955291748046875	-1.949310302734375	
245	0.98	0.0	0.0	0.0	0.0	0.003	0.006	0.003	0.003	9.982623822021484	-0.12030863342285156	-0.3800795135498047	3.620147705078125	-4.2877197265625	-0.457763671875	9.681552963256836	0.2136824981689453	0.32142157287597656	0.072479248046875	-4.985809326171875	-2.9296875	9.616909518432617	0.5865794067382812	0.0718260498046875	2.54058837890625	-4.852294921875	-1.743316650390625	
246	0.984	0.0	0.0	0.0	0.0	0.003	0.006	0.006	0.003	10.016142645263672	0.08559270935058594	-0.2753331909179687	2.399444580078125	-6.481170654296875	-0.209808349609375	9.813234054565429	-0.15861585998535155	-0.04129997863769531	-0.57220458984375	-5.062103271484375	-2.796173095703125	9.758765966796874	0.556053335571289	-0.10354922180175781	2.471923828125	-4.89044189453125	-1.9378662109375	
247	0.988	0.0	0.0	0.0	0.0	0.006	0.003	0.003	0.003	9.952696301269532	-0.20231004028320312	-0.40880993347167965	1.415252685546875	-3.322601318359375	-0.67901611328125	9.727641345214844	-0.004189852905273437	-0.1149216796875	0.41961669921875	-5.023956298828125	-3.101348876953125	9.65940659790039	0.47764323120117186	0.05566518859863281	2.445220947265625	-4.79888916015625	-2.017974853515625	
248	0.992	0.0	0.0	0.0	0.0	0.006	0.003	0.003	0.006	9.7545761138916	-0.3507505432128906	-0.076614453125	0.690460205078125	-3.452301025390625	-0.7781982421875	9.769539874267577	-0.15023615417480468	-0.004189852905273437	-0.2593994140625	-4.779815673828125	-2.78472900390625	9.77492682800293	0.5500678314208984	-0.05626373901367187	2.34222412109375	-4.87518310546875	-1.99127197265625	
249	0.996	0.0	0.0	0.0	0.0	0.006	0.006	0.003	0.003	9.862315188598632	-0.20470424194335937	-0.19512743530273435	0.904083251953125	-3.44085693359375	-0.720977783203125	9.629479077148437	0.10654197387695312	0.01975216369628906	0.461578369140625	-5.039215087890625	-2.979278564453125	9.966462960815429	0.535702621459961	-0.14185644836425781	2.559661865234375	-4.37164306640625	-1.65557861328125	
250	1.0	0.0	0.0	0.0	0.0	0.0	0.003	0.003	0.006	9.822212310791015	-0.011971008300781249	0.020949264526367185	1.0223388671875	-3.574371337890625	-0.67901611328125	9.724648593139648	-0.09816226806640624	0.17298106994628906	1.232147216796875	-5.37872314453125	-3.208160400390625	9.843760125732421	0.5392939239501953	-0.07003039855957031	2.54058837890625	-4.856109619140625	-2.2735595703125	
251	1.004	0.0	0.0	0.0	0.0	0.003	0.003	0.003	0.006	9.897031112670899	0.5069722015380859	0.22385785522460935	2.132415771484375	-3.414154052734375	-0.865936279296875	9.60793126220703	0.09756371765136718	0.12868833923339842	0.701904296875	-5.123138427734375	-3.475189208984375	10.01075569152832	0.5153519073486328	-0.19512743530273435	2.8076171875	-4.18853759765625	-1.5869140625	
252	1.008	0.0	0.0	0.0	0.0	0.006	0.003	0.003	0.006	9.812036953735351	0.07841010437011718	0.09816226806640624	1.9073486328125	-3.82232666015625	-1.064300537109375	9.674370358276366	-0.04129997863769531	0.24480711975097655	0.732421875	-5.45501708984375	-3.360748291015625	9.931148486328125	0.5117606048583984	0.028131869506835935	3.0670166015625	-4.638671875	-1.399993896484375	
253	1.012	0.0	0.0	0.0	0.0	0.006	0.006	0.003	0.003	9.974244116210937	0.28311434631347654	0.07003039855957031	3.284454345703125	-4.032135009765625	-0.690460205078125	9.944316595458984	-0.06045359191894531	0.07362170104980469	0.732421875	-4.772186279296875	-3.07464599609375	10.028113653564452	0.4273649963378906	-0.22744915771484372	2.8533935546875	-4.451751708984375	-1.6937255859375	
254	1.016	0.0	0.0	0.0	0.0	0.0	0.003	0.003	0.006	9.98561657409668	-0.06284779357910156	-0.13168109130859373	4.150390625	-4.634857177734375	-0.4730224609375	9.749189160156249	-0.001197100830078125	0.1322796417236328	0.614166259765625	-5.01251220703125	-3.025054931640625	10.005368737792969	0.5057751007080078	-0.09337386474609374	2.857208251953125	-4.73785400390625	-1.6021728515625	
255	1.02	0.0	0.0	0.0	0.0	0.0	0.003	0.003	0.006	9.922768780517577	0.09038111267089843	-0.006584054565429687	2.3345947265625	-3.6468505859375	-0.49591064453125	9.929951385498047	-0.0909796630859375	0.05087678527832031	0.812530517578125	-4.8828125	-2.8228759765625	9.97244846496582	0.4255693450927734	-0.612915625	2.74658203125	-4.61578369140625	-1.445770263671875	
256	1.024	0.0	0.0	0.0	0.0	0.003	0.003	0.006	0.003	9.636661682128906	0.37768531188964843	0.4213794921875	2.834320068359375	-3.665924072265625	-0.614166259765625	9.753977563476562	0.10893617553710937	0.44592005920410155	0.6103515625	-5.306243896484375	-3.032684326171875	9.987412225341796	0.5488707305908203	-0.016759411621093748	2.948760986328125	-4.436492919921875	-1.41143798828125	
257	1.028	0.0	0.0	0.0	0.0	0.003	0.003	0.006	0.003	9.896432562255859	-0.06045359191894531	-0.025737667846679687	0.28228759765625	-2.73895263671875	-0.789642333984375	9.958681805419921	-0.18555062866210936	0.0	0.61798095703125	-4.79888916015625	-2.826690673828125	10.370484490966795	0.5219359619140624	-0.5889736083984375	2.838134765625	-4.5013427734375	-1.40380859375	
258	1.032	0.0	0.0	0.0	0.0	0.003	0.006	0.006	0.003	9.612719665527344	0.6015431671142578	0.5213374114990235	3.4332275390625	-4.131317138671875	-0.72479248046875	9.798868844604492	0.17357962036132812	0.4010287780761719	0.9002685546875	-5.43975830078125	-2.960205078125	10.01075569152832	0.6590040069580078	-0.08020575561523437	3.15093994140625	-4.642486572265625	-1.644134521484375	
259	1.036	0.0	0.0	0.0	0.0	0.003	0.006	0.006	0.003	9.886257205200195	0.054468087768554684	0.018555062866210937	-0.58746337890625	-2.773284912109375	-0.736236572265625	10.081983190917969	-0.07242460021972656	-0.11252747802734374	1.12152099609375	-4.978179931640625	-3.223419189453125	10.269928021240235	0.5859808563232421	-0.5955576629638671	3.0364990234375	-4.53948974609375	-1.338958740234375	
260	1.04	0.0	0.0	0.0	0.0	0.006	0.003	0.003	0.006	9.636661682128906	0.5476736297607422	0.4417302062988281	3.60870361328125	-4.138946533203125	-0.751495361328125	9.7928833404541	0.05746083984375	0.46148236999511716	0.667572021484375	-4.8370361328125	-2.86102294921875	9.969455712890625	0.4746504791259765	-0.08020575561523437	2.841949462890625	-4.638671875	-1.873016357421875	
261	1.044	0.0	0.0	0.0	0.0	0.003	0.003	0.003	0.003	9.983222372436522	0.3950432739257812	0.055066638183593745	0.23651123046875	-2.838134765625	-1.514434814453125	10.045471615600585	-0.076614453125	-0.007781155395507812	1.220703125	-4.94384765625	-3.345489501953125	10.263942517089843	0.5351040710449219	-0.584185205078125	3.116607666015625	-4.856109619140625	-1.4801025390625	
262	1.048	0.0	0.0	0.0	0.0	0.003	0.003	0.006	0.003	9.679158761596678	0.3441664886474609	0.3082534637451172	4.50897216796875	-4.69970703125	-0.6256103515625	9.56363853149414	0.15442600708007811	0.5153519073486328	0.164031982421875	-4.840850830078125	-3.11279296875	9.898228213500976	0.48063598327636714	-0.023942016601562498	2.696990966796875	-4.669189453125	-1.911163330078125	
263	1.052	0.0	0.0	0.0	0.0	0.006	0.003	0.006	0.0	9.988609326171874	0.3274070770263672	0.016759411621093748	-0.31280517578125	-2.742767333984375	-1.331329345703125	10.0748005859375	-0.076614453125	-0.12030863342285156	1.010894775390625	-5.214691162109375	-3.231048583984375	9.968258612060547	0.7278373046875	-0.16759411621093748	2.49481201171875	-4.60052490234375	-1.85394287109375	
264	1.056	0.0	0.0	0.0	0.0	0.006	0.003	0.003	0.0	9.643245736694336	0.08978256225585937	0.04908113403320312	3.2806396484375	-3.841400146484375	-1.255035400390625	9.596558804321289	0.13826514587402344	0.45968671875	0.4425048828125	-5.0811767578125	-3.467559814453125	9.958083255004881	0.3752911102294922	-0.1005564697265625	2.8228759765625	-4.634857177734375	-2.086639404296875	
265	1.06	0.0	0.0	0.0	0.0	0.003	0.003	0.006	0.006	9.93952819213867	0.3962403747558593	0.10654197387695312	-0.244140625	-2.613067626953125	-1.308441162109375	10.020931048583984	-0.011971008300781249	-0.05087678527832031	0.247955322265625	-4.856109619140625	-3.1585693359375	9.980229620361328	0.8325836273193359	-0.2346317626953125	2.4566650390625	-4.993438720703125	-1.781463623046875	
266	1.064	0.0	0.0	0.0	0.0	0.006	0.006	0.006	0.006	9.813234054565429	0.13347674255371092	0.030526071166992186	3.62396240234375	-4.180908203125	-1.003265380859375	9.600748657226562	0.1388636962890625	0.5021837982177734	0.4425048828125	-4.955291748046875	-3.2196044921875	9.690531219482422	0.3633201019287109	0.04668693237304687	2.43377685546875	-4.749298095703125	-1.88446044921875	
267	1.068	0.0	0.0	0.0	0.0	0.003	0.006	0.006	0.003	10.002974536132811	0.4285620971679687	-0.0017956512451171875	0.1220703125	-2.31170654296875	-1.3275146484375	9.822810861206055	-0.06045359191894531	0.10594342346191406	0.774383544921875	-5.092620849609375	-3.18145751953125	10.031704956054687	0.7362170104980469	-0.2537853759765625	2.49481201171875	-4.791259765625	-1.819610595703125	
268	1.072	0.0	0.0	0.0	0.0	0.003	0.006	0.003	4.623	9.769539874267577	-0.05027823486328125	0.0718260498046875	4.058837890625	-4.688262939453125	-0.682830810546875	9.580996493530273	0.19213468322753904	0.43574470214843747	0.1068115234375	-4.817962646484375	-3.177642822265625	9.635464581298828	0.3363853332519531	0.03172317199707031	2.460479736328125	-4.608154296875	-1.99127197265625	
269	1.076	0.0	0.0	0.0	0.0	4.638	4.662	4.668	4.638	9.987412225341796	0.42497079467773435	-0.14185644836425781	4.955291748046875	-4.924774169921875	-0.392913818359375	9.813832604980469	0.0005985504150390625	0.07362170104980469	0.141143798828125	-5.207061767578125	-3.108978271484375	9.979631069946288	0.8475473876953125	-0.23104046020507812	2.52532958984375	-4.978179931640625	-1.964569091796875	
270	1.08	0.0	0.0	0.0	0.0	4.644	4.671	4.671	4.644	9.782707983398437	0.023942016601562498	0.02693476867675781	3.589630126953125	-3.936767578125	-1.06048583984375	9.572018237304688	-0.003591302490234375	0.31483751831054685	0.286102294921875	-4.57000732421875	-3.3111572265625	9.71028338317871	0.29568390502929687	-0.034715924072265626	2.376556396484375	-4.528045654296875	-1.949310302734375	
271	1.084	0.0	0.0	0.0	0.0	4.641	4.671	4.671	4.644	9.961076007080077	0.4560954162597656	-0.029328970336914062	5.329132080078125	-5.21087646484375	-0.476837158203125	9.77432827758789	-0.016160861206054686	0.12509703674316405	0.431060791015625	-5.039215087890625	-3.139495849609375	9.840767373657226	0.6751648681640625	-0.09576806640624999	2.63214111328125	-4.7149658203125	-1.9378662109375	
272	1.088	0.0	0.0	0.0	0.0	4.641	4.671	4.668	4.65	9.7162688873291	0.08439560852050781	0.08259995727539061	3.383636474609375	-4.474639892578125	-1.09100341796875	9.452906704711914	0.008978256225585938	0.3872621185302734	0.087738037109375	-4.8065185546875	-3.253936767578125	9.55106897277832	0.364517202758789	0.07721300354003906	2.31170654296875	-4.70733642578125	-1.89971923828125	
273	1.092	0.0	0.0	0.0	0.0	4.65	4.674	4.671	4.632	10.01075569152832	0.5847837554931641	-0.1592144104003906	5.19561767578125	-5.397796630859375	-0.522613525390625	9.795876092529296	0.04369418029785156	0.0053869537353515625	0.3814697265625	-4.96673583984375	-2.99835205078125	9.958681805419921	0.7613561279296874	-0.2136824981689453	2.64739990234375	-4.779815673828125	-1.880645751953125	
274	1.096	0.0	0.0	0.0	0.0	4.647	4.671	4.674	4.626	9.858723886108399	-0.059256491088867186	-0.034715924072265626	0.90789794921875	-2.994537353515625	-0.934600830078125	9.509170443725585	-0.022146365356445312	0.3848679168701172	0.66375732421875	-4.718780517578125	-3.559112548828125	10.134655627441406	0.4704606262207031	-0.3603273498535156	2.887725830078125	-4.261016845703125	-1.2969970703125	
275	1.1	0.0	0.0	0.0	0.0	4.644	4.671	4.671	4.632	9.90181951599121	0.4686649749755859	0.037708676147460936	4.4403076171875	-4.72259521484375	-0.5950927734375	9.6013472076416	0.08439560852050781	0.30047230834960936	0.568389892578125	-5.229949951171875	-3.162384033203125	9.7545761138916	0.729034405517578	0.06823474731445311	2.37274169921875	-4.78363037109375	-1.850128173828125	
276	1.104	0.0	0.0	0.0	0.0	4.647	4.665	4.671	4.638	9.90181951599121	-0.014963760375976562	0.06703764648437499	1.77001953125	-3.253936767578125	-0.7476806640625	9.847351428222655	-0.06344634399414062	0.14185644836425781	0.29754638671875	-4.878997802734375	-3.173828125	10.06821653137207	0.5704185455322265	-0.32441432495117184	3.093719482421875	-4.547119140625	-1.148223876953125	
277	1.108	0.0	0.0	0.0	0.0	4.644	4.674	4.674	4.641	10.012551342773437	0.42497079467773435	-0.14305354919433594	5.47027587890625	-5.283355712890625	-0.31280517578125	9.764751470947266	-0.08140285644531249	0.1005564697265625	0.682830810546875	-5.13458251953125	-2.964019775390625	10.13226142578125	0.47884033203125	-0.29269115295410153	3.12042236328125	-4.566192626953125	-1.5869140625	
278	1.112	0.0	0.0	0.0	0.0	4.641	4.671	4.674	4.644	9.824007962036132	0.0909796630859375	0.1484405029296875	2.407073974609375	-3.368377685546875	-0.61798095703125	9.769539874267577	-0.037708676147460936	0.22565350646972654	0.81634521484375	-4.72259521484375	-3.376007080078125	10.020332498168944	0.5410895751953124	-0.3327940307617187	2.69317626953125	-4.2572021484375	-1.3580322265625	
279	1.116	0.0	0.0	0.0	0.0	4.635	4.671	4.668	4.647	9.868300692749022	0.07781155395507812	0.18375497741699218	4.39453125	-4.550933837890625	-0.286102294921875	9.803058697509766	0.15861585998535155	0.3172317199707031	0.293731689453125	-5.092620849609375	-2.498626708984375	9.93952819213867	0.5392939239501953	-0.18136077575683593	2.758026123046875	-4.47845458984375	-1.67083740234375	
280	1.12	0.0	0.0	0.0	0.0	4.647	4.671	4.671	4.635	9.94012674255371	0.14484920043945312	-0.02633621826171875	1.8157958984375	-3.2501220703125	-0.728607177734375	9.897629663085937	-0.0430956298828125	0.0652419952392578	0.621795654296875	-4.909515380859375	-3.3416748046875	10.166977349853514	0.5584475372314452	-0.4908113403320312	2.96783447265625	-4.680633544921875	-1.3580322265625	
281	1.124	0.0	0.0	0.0	0.0	1.6260000000000001	0.006	0.003	0.003	9.878476049804688	-0.04548983154296875	0.10235212097167969	4.673004150390625	-4.878997802734375	-0.476837158203125	9.872490545654296	-0.032920272827148434	0.17417817077636719	0.308990478515625	-5.13458251953125	-2.803802490234375	10.096348400878906	0.3854664672851562	-0.30406361083984373	3.292083740234375	-4.64630126953125	-1.7547607421875	
282	1.1280000000000001	0.0	0.0	0.0	0.0	0.006	0.003	0.003	0.003	9.9461122467041	0.1370680450439453	-0.09457096557617187	-0.095367431640625	-2.6702880859375	-0.881195068359375	9.999981784057617	-0.0047884033203125	-0.029328970336914062	1.1138916015625	-5.2032470703125	-2.93731689453125	10.165780249023436	0.7350199096679687	-0.45070846252441404	3.070831298828125	-4.63104248046875	-1.50299072265625	
283	1.1320000000000001	0.0	0.0	0.0	0.0	0.0	0.006	0.003	0.006	9.85094273071289	-0.05626373901367187	0.10414777221679687	3.2196044921875	-4.21142578125	-0.461578369140625	9.967061511230469	0.029328970336914062	0.1227028350830078	0.4425048828125	-5.161285400390625	-2.84576416015625	10.147225186157225	0.4740519287109375	-0.34656069030761716	2.96783447265625	-4.749298095703125	-1.224517822265625	
284	1.1360000000000001	0.0	0.0	0.0	0.0	0.006	0.006	0.006	0.003	10.114304913330077	0.025737667846679687	-0.19632453613281248	-0.274658203125	-2.532958984375	-1.09100341796875	10.146028085327147	-0.11432312927246092	-0.16041151123046873	0.93841552734375	-4.84466552734375	-3.231048583984375	10.410587368774413	0.6386532928466796	-0.5877765075683593	3.1585693359375	-4.5623779296875	-1.39617919921875	
285	1.1400000000000001	0.0	0.0	0.0	0.0	0.003	0.006	0.003	0.003	9.73063409729004	-0.06404489440917968	0.2561795776367187	2.5634765625	-4.05120849609375	-0.72479248046875	9.7683427734375	0.0909796630859375	0.296881005859375	0.774383544921875	-5.08880615234375	-3.185272216796875	9.840767373657226	0.39863457641601563	0.09217676391601562	2.838134765625	-4.72259521484375	-1.834869384765625	
286	1.1440000000000001	0.0	0.0	0.0	0.0	0.009000000000000001	0.003	0.006	0.006	10.062829577636718	0.24181436767578124	-0.016759411621093748	0.54168701171875	-3.0517578125	-0.9613037109375	10.00417163696289	-0.05626373901367187	-0.004189852905273437	0.7171630859375	-5.0811767578125	-2.849578857421875	10.257957012939453	0.8068459594726562	-0.5039794494628906	2.960205078125	-4.47845458984375	-1.3580322265625	
287	1.1480000000000001	0.0	0.0	0.0	0.0	0.006	0.006	0.006	0.006	9.750984811401366	0.3280056274414062	0.19333178405761717	1.04522705078125	-2.948760986328125	-1.251220703125	9.769539874267577	0.28431144714355466	0.23044190979003906	0.919342041015625	-4.810333251953125	-3.093719482421875	10.062829577636718	0.3603273498535156	0.006584054565429687	2.78472900390625	-4.787445068359375	-1.57928466796875	
288	1.1520000000000001	0.0	0.0	0.0	0.0	0.006	0.006	0.006	0.003	9.962273107910155	0.11851298217773437	0.1005564697265625	0.690460205078125	-2.78472900390625	-1.064300537109375	9.982623822021484	-0.297479556274414	0.006584054565429687	0.4119873046875	-5.0048828125	-3.368377685546875	10.06163247680664	0.5524620330810547	-0.2651578338623047	2.25067138671875	-4.60052490234375	-2.315521240234375	
289	1.156	0.0	0.0	0.0	0.0	0.006	0.003	0.006	0.006	9.695319622802733	0.41359833679199215	0.41359833679199215	1.415252685546875	-3.101348876953125	-1.0528564453125	9.56962403564453	0.4950011932373047	0.33518823242187495	0.8544921875	-4.985809326171875	-2.84576416015625	9.82460651245117	0.5764040496826172	0.04249707946777344	2.643585205078125	-4.924774169921875	-1.514434814453125	
290	1.16	0.0	0.0	0.0	0.0	0.009000000000000001	0.003	0.003	0.003	10.065822329711914	0.15861585998535155	-0.076614453125	5.428314208984375	-5.123138427734375	-0.5645751953125	9.85094273071289	-0.2705447875976562	0.1945288848876953	0.3509521484375	-5.1727294921875	-3.10516357421875	10.120290417480469	0.6602011077880859	-0.39743747558593745	2.73895263671875	-4.810333251953125	-2.09808349609375	
291	1.164	0.0	0.0	0.0	0.0	0.006	0.006	0.006	0.0	9.803657247924804	0.30346506042480464	0.24061726684570311	-0.102996826171875	-2.105712890625	-1.468658447265625	9.67137760620117	0.22385785522460935	0.28490999755859375	0.885009765625	-4.608154296875	-2.86865234375	10.00417163696289	0.35613749694824215	0.06284779357910156	2.3193359375	-4.444122314453125	-1.720428466796875	
292	1.168	0.0	0.0	0.0	0.0	0.003	0.003	0.006	0.003	9.780912332153319	0.4052186309814453	0.20769699401855468	7.053375244140625	-5.725860595703125	-0.385284423828125	9.636661682128906	-0.14125789794921875	0.4578910675048828	0.42724609375	-5.2490234375	-3.42559814453125	9.848548529052733	0.6631938598632812	-0.1849520782470703	2.391815185546875	-5.096435546875	-2.3193359375	
293	1.172	0.0	0.0	0.0	0.0	0.003	0.006	0.006	0.003	9.850344180297851	0.4225765930175781	0.1867477294921875	0.049591064453125	-2.46429443359375	-1.461029052734375	9.636661682128906	0.29867665710449215	0.21607669982910155	0.232696533203125	-4.96673583984375	-3.24249267578125	9.622895022583007	0.6524199523925781	0.004189852905273437	2.55584716796875	-4.848480224609375	-1.8157958984375	
294	1.176	0.0	0.0	0.0	0.0	0.003	0.006	0.003	0.006	9.959280355834961	0.1406593475341797	-0.08319850769042968	5.79833984375	-5.2947998046875	-0.77056884765625	9.886855755615233	-0.33039982910156246	0.26216508178710934	0.396728515625	-4.833221435546875	-3.4332275390625	10.212467181396484	0.42975919799804685	-0.40402153015136716	2.292633056640625	-4.863739013671875	-2.15911865234375	
295	1.18	0.0	0.0	0.0	0.0	0.003	0.003	0.006	0.003	9.937133990478515	0.18734627990722655	-0.10714052429199218	2.70843505859375	-3.681182861328125	-0.7171630859375	9.564237081909178	0.18734627990722655	0.3333925811767578	0.339508056640625	-4.825592041015625	-3.376007080078125	9.589974749755859	0.4950011932373047	0.16699556579589842	2.5482177734375	-4.703521728515625	-2.08282470703125	
296	1.184	0.0	0.0	0.0	0.0	0.0	0.003	0.006	0.006	9.816226806640625	0.3298012786865234	0.062249243164062495	7.97271728515625	-6.298065185546875	-0.26702880859375	9.651026892089844	-0.10714052429199218	0.040102877807617184	0.118255615234375	-5.168914794921875	-3.04412841796875	9.651625442504882	0.6302735870361328	-0.05027823486328125	2.5482177734375	-4.848480224609375	-2.03704833984375	
297	1.188	0.0	0.0	0.0	0.0	0.003	0.003	0.003	0.006	10.070012182617187	0.07242460021972656	-0.25797522888183594	1.79290771484375	-3.429412841796875	-0.61798095703125	9.850344180297851	-0.07302315063476562	0.018555062866210937	0.362396240234375	-5.035400390625	-2.819061279296875	9.866505041503906	0.4339490509033203	-0.086191259765625	2.544403076171875	-4.756927490234375	-1.8310546875	
298	1.192	0.0	0.0	0.0	0.0	0.006	0.003	0.006	0.006	9.885658654785155	0.14903905334472656	-0.19393033447265623	7.7972412109375	-6.1798095703125	-0.52642822265625	9.738415252685547	-0.15861585998535155	-0.020949264526367185	0.278472900390625	-5.054473876953125	-3.086090087890625	9.875483297729492	0.3495534423828125	-0.1867477294921875	2.34222412109375	-4.741668701171875	-1.712799072265625	
299	1.196	0.0	0.0	0.0	0.0	0.003	0.003	0.003	0.006	9.841964474487304	0.1083376251220703	-0.028131869506835935	1.8463134765625	-3.582000732421875	-0.560760498046875	9.782707983398437	0.0	-0.08200140686035155	0.6256103515625	-5.19561767578125	-2.895355224609375	9.900023864746093	0.7254431030273437	-0.23582886352539062	2.87628173828125	-4.608154296875	-1.5411376953125	
300	1.2	0.0	0.0	0.0	0.0	0.009000000000000001	0.003	0.006	0.006	9.90181951599121	-0.3794809631347656	-0.086191259765625	0.957489013671875	-3.59344482421875	-0.55694580078125	9.795876092529296	-0.0796072052001953	-0.1149216796875	0.26702880859375	-5.43212890625	-2.727508544921875	9.878476049804688	0.5093664031982421	-0.1370680450439453	2.490997314453125	-4.82940673828125	-1.53350830078125	
301	1.204	0.0	0.0	0.0	0.0	0.006	0.006	0.003	0.006	10.019135397338866	-0.1897404815673828	-0.2615665313720703	1.758575439453125	-3.482818603515625	-0.66375732421875	9.937133990478515	-0.14963760375976562	-0.11552023010253906	0.8392333984375	-4.9896240234375	-3.330230712890625	10.266935269165039	0.4339490509033203	-0.3142389678955078	2.8533935546875	-4.474639892578125	-1.83868408203125	
302	1.208	0.0	0.0	0.0	0.0	0.003	0.003	0.003	0.006	9.753977563476562	-0.2867056488037109	0.11013327636718749	-0.1068115234375	-3.055572509765625	-1.087188720703125	9.72345149230957	0.09935936889648436	0.31184476623535157	1.16729736328125	-5.19561767578125	-3.299713134765625	9.636661682128906	0.6596025573730468	0.052073886108398436	2.83050537109375	-4.45556640625	-1.5411376953125	
303	1.212	0.0	0.0	0.0	0.0	0.003	0.006	0.006	0.006	9.93354268798828	0.13108254089355467	0.03651157531738281	1.712799072265625	-3.551483154296875	-0.972747802734375	9.771934075927733	0.08738836059570312	0.13946224670410157	0.64849853515625	-5.298614501953125	-3.009796142578125	10.050858569335936	0.6625953094482422	-0.2807201446533203	2.99835205078125	-4.367828369140625	-1.60980224609375	
304	1.216	0.0	0.0	0.0	0.0	0.003	0.003	0.006	0.003	9.992799179077148	-0.21787235107421873	0.0526724365234375	1.89971923828125	-3.620147705078125	-0.675201416015625	9.999981784057617	-0.1484405029296875	0.15502455749511718	0.843048095703125	-5.16510009765625	-3.231048583984375	10.273519323730468	0.4560954162597656	-0.33698388366699217	2.899169921875	-4.718780517578125	-1.461029052734375	
305	1.22	0.0	0.0	0.0	0.0	0.006	0.003	0.003	0.006	9.943119494628906	0.31184476623535157	0.11192892761230468	2.735137939453125	-3.520965576171875	-1.049041748046875	9.728838446044922	0.062249243164062495	0.059256491088867186	0.881195068359375	-4.79888916015625	-3.265380859375	10.064625228881836	0.5129577056884765	-0.2723404388427734	2.7923583984375	-4.4403076171875	-1.56402587890625	
306	1.224	0.0	0.0	0.0	0.0	0.006	0.003	0.003	0.006	9.87009634399414	0.10594342346191406	0.14125789794921875	2.643585205078125	-4.123687744140625	-0.499725341796875	9.758167416381836	0.005985504150390624	0.2861070983886719	0.530242919921875	-5.3863525390625	-2.918243408203125	9.885060104370117	0.7212532501220703	-0.23104046020507812	2.99835205078125	-4.650115966796875	-1.216888427734375	
307	1.228	0.0	0.0	0.0	0.0	0.003	0.003	0.003	0.006	10.103531005859374	-0.06763619689941405	-0.2136824981689453	1.8157958984375	-3.48663330078125	-0.6256103515625	10.110115060424803	0.06404489440917968	-0.10474632263183593	0.9307861328125	-4.87518310546875	-2.635955810546875	10.378265646362305	0.5279214660644531	-0.623090982055664	3.238677978515625	-4.581451416015625	-1.41143798828125	
