	time	dac1	dac2	dac3	dac4	adc1.3	adc2.3	adc3.3	adc4.3	imu1accx	imu1accy	imu1accz	imu1gyrox	imu1gyroy	imu1gyroz	imu2accx	imu2accy	imu2accz	imu2gyrox	imu2gyroy	imu2gyroz	imu3accx	imu3accy	imu3accz	imu3gyrox	imu3gyroy	imu3gyroz	log
0	0.0	0.0	0.0	0.0	0.0	0.006	0.006	0.003	0.003	9.852139831542969	0.1849520782470703	0.04189852905273437	2.468109130859375	-3.692626953125	-0.72479248046875	9.783905084228515	0.040701428222656245	0.14544775085449219	0.5340576171875	-5.062103271484375	-3.177642822265625	9.965265859985351	0.42018239135742186	-0.20290859069824219	2.5787353515625	-4.497528076171875	-1.659393310546875	Estabizou em 9s, 2207 rpm
1	0.004	0.0	0.0	0.0	0.0	0.003	0.006	0.003	0.006	9.85692823486328	0.17058686828613281	0.03591302490234375	2.52532958984375	-3.757476806640625	-0.7171630859375	9.78031378173828	0.030526071166992186	0.15023615417480468	0.690460205078125	-4.940032958984375	-3.124237060546875	9.956287603759765	0.41419688720703124	-0.19153613281249998	2.51007080078125	-4.894256591796875	-1.67083740234375	Started
2	0.008	0.0	0.0	0.0	0.0	0.006	0.006	0.006	0.009000000000000001	9.859322436523437	0.1592144104003906	0.033518823242187495	2.384185791015625	-3.5400390625	-0.9307861328125	9.78629928588867	0.010773907470703125	0.15502455749511718	0.316619873046875	-4.87518310546875	-2.918243408203125	9.962273107910155	0.38187516479492184	-0.20051438903808594	2.55584716796875	-4.726409912109375	-1.56402587890625	IMU1|LSM6DS3|0x6A|I2C-1|±2g (±19,6m/s²)|±125º/s|400Hz
3	0.012	0.0	0.0	0.0	0.0	0.003	0.003	0.003	0.003	9.848548529052733	0.1466448516845703	0.05386953735351562	2.353668212890625	-3.772735595703125	-0.823974609375	9.782707983398437	-0.0017956512451171875	0.16699556579589842	0.682830810546875	-5.023956298828125	-3.265380859375	9.97244846496582	0.37289690856933594	-0.17776947326660156	2.60162353515625	-4.5318603515625	-1.697540283203125	IMU2|LSM6DS3|0x6B|I2C-1|±2g (±19,6m/s²)|±125º/s|400Hz
4	0.016	0.0	0.0	0.0	0.0	0.006	0.006	0.006	0.003	9.846752877807617	0.1406593475341797	0.044891281127929686	2.483367919921875	-3.90625	-0.972747802734375	9.783306533813477	-0.011971008300781249	0.1640028137207031	0.576019287109375	-4.89044189453125	-3.101348876953125	9.975441217041014	0.3651157531738281	-0.16879121704101563	2.67791748046875	-4.69970703125	-1.739501953125	IMU3|LSM6DS3|0x6B|I2C-2|±2g (±19,6m/s²)|±125º/s|400Hz
5	0.02	0.0	0.0	0.0	0.0	0.003	0.003	0.003	0.003	9.86351228942871	0.12868833923339842	0.04189852905273437	2.26593017578125	-3.978729248046875	-0.568389892578125	9.794678991699218	-0.013168109130859374	0.15682020874023436	0.537872314453125	-4.978179931640625	-2.941131591796875	9.983820922851562	0.3573345977783203	-0.19153613281249998	2.777099609375	-4.60052490234375	-1.5716552734375	ADC|ADS1015|0|0|1|0|±6,144 V|2400 SPS
6	0.024	0.0	0.0	0.0	0.0	0.003	0.006	0.006	0.003	9.871891995239258	0.1274912384033203	0.04908113403320312	2.34222412109375	-3.814697265625	-0.858306884765625	9.789292037963866	-0.018555062866210937	0.15502455749511718	0.637054443359375	-5.092620849609375	-3.002166748046875	9.99220062866211	0.35015199279785153	-0.1771709228515625	2.655029296875	-4.711151123046875	-1.6937255859375	Gen1|Disabled
7	0.028	0.0	0.0	0.0	0.0	0.006	0.006	0.003	0.003	9.866505041503906	0.1227028350830078	0.04967968444824218	2.38037109375	-3.803253173828125	-0.713348388671875	9.787496386718749	-0.033518823242187495	0.15981296081542967	0.621795654296875	-4.96673583984375	-3.185272216796875	9.983820922851562	0.35613749694824215	-0.16879121704101563	2.506256103515625	-4.5166015625	-1.708984375	Gen2|Enabled|Noise|0.0|10.0|1668
8	0.032	0.0	0.0	0.0	0.0	0.006	0.003	0.003	0.006	9.858723886108399	0.10235212097167969	0.04848258361816406	2.43377685546875	-3.68499755859375	-0.67901611328125	9.787496386718749	-0.04668693237304687	0.16998831787109375	0.4730224609375	-5.04302978515625	-3.30352783203125	9.982025271606444	0.3333925811767578	-0.17417817077636719	2.67791748046875	-4.63104248046875	-1.567840576171875	Gen3|Enabled|Noise|0.0|10.0|128
9	0.036000000000000004	0.0	0.0	0.0	0.0	0.006	0.003	0.003	0.006	9.861118087768554	0.09516951599121093	0.047884033203124995	2.593994140625	-3.814697265625	-0.77056884765625	9.783905084228515	-0.05626373901367187	0.17178396911621094	0.6561279296875	-5.0201416015625	-3.170013427734375	9.980229620361328	0.32142157287597656	-0.17477672119140625	2.750396728515625	-4.543304443359375	-1.575469970703125	Gen4|Enabled|Noise|0.0|10.0|128
10	0.04	0.0	0.0	0.0	0.0	0.006	0.006	0.006	0.006	9.86291373901367	0.09337386474609374	0.054468087768554684	2.52532958984375	-3.77655029296875	-0.9918212890625	9.783905084228515	-0.052073886108398436	0.16699556579589842	0.72479248046875	-4.901885986328125	-3.04412841796875	9.965265859985351	0.32620997619628905	-0.16998831787109375	2.758026123046875	-4.871368408203125	-1.57928466796875	Ctrl|Disabled
11	0.044	0.0	0.0	0.0	0.0	0.006	0.003	0.006	0.003	9.855132583618163	0.09756371765136718	0.05327098693847656	2.506256103515625	-3.871917724609375	-0.659942626953125	9.780912332153319	-0.05087678527832031	0.16280571289062498	0.759124755859375	-5.30242919921875	-3.360748291015625	9.967660061645507	0.3232172241210937	-0.17178396911621094	2.5787353515625	-4.673004150390625	-1.590728759765625	
12	0.048	0.0	0.0	0.0	0.0	0.003	0.003	0.006	0.003	9.862315188598632	0.0909796630859375	0.05746083984375	2.574920654296875	-3.66973876953125	-0.9613037109375	9.788094937133788	-0.054468087768554684	0.16639701538085935	0.61798095703125	-5.02777099609375	-2.994537353515625	9.980229620361328	0.3238157745361328	-0.1771709228515625	2.69317626953125	-4.67681884765625	-1.62506103515625	
13	0.052000000000000005	0.0	0.0	0.0	0.0	0.003	0.006	0.006	0.003	9.860519537353515	0.08918401184082031	0.058657940673828124	2.582550048828125	-3.734588623046875	-1.026153564453125	9.791087689208984	-0.0652419952392578	0.18255787658691405	0.55694580078125	-4.94384765625	-3.27301025390625	9.968258612060547	0.3178302703857422	-0.17776947326660156	2.55584716796875	-4.81414794921875	-1.613616943359375	
14	0.056	0.0	0.0	0.0	0.0	0.003	0.003	0.006	0.003	9.859322436523437	0.09816226806640624	0.059256491088867186	2.6092529296875	-3.9215087890625	-0.652313232421875	9.783306533813477	-0.047884033203124995	0.16819266662597654	0.4730224609375	-4.909515380859375	-2.99835205078125	9.976039767456054	0.34057518615722654	-0.17657237243652343	2.8076171875	-4.909515380859375	-1.56402587890625	
15	0.06	0.0	0.0	0.0	0.0	0.003	0.006	0.003	0.006	9.871293444824218	0.0987608184814453	0.05386953735351562	2.490997314453125	-3.574371337890625	-0.820159912109375	9.782109432983399	-0.03411737365722656	0.17178396911621094	0.598907470703125	-4.924774169921875	-3.238677978515625	9.98501802368164	0.34835634155273437	-0.18255787658691405	2.498626708984375	-4.711151123046875	-1.468658447265625	
16	0.064	0.0	0.0	0.0	0.0	0.006	0.003	0.006	0.006	9.874884747314452	0.11073182678222655	0.062249243164062495	2.460479736328125	-3.673553466796875	-0.7476806640625	9.798868844604492	-0.03651157531738281	0.16879121704101563	0.5645751953125	-4.87518310546875	-3.108978271484375	9.987412225341796	0.3274070770263672	-0.18555062866210936	2.613067626953125	-4.6234130859375	-1.644134521484375	
17	0.068	0.0	0.0	0.0	0.0	0.006	0.006	0.003	0.003	9.864709390258788	0.11432312927246092	0.07541735229492187	2.50244140625	-3.77655029296875	-0.850677490234375	9.795876092529296	-0.028730419921875	0.16699556579589842	0.804901123046875	-4.96673583984375	-3.05938720703125	9.97783541870117	0.3399766357421875	-0.17896657409667968	2.777099609375	-4.589080810546875	-1.697540283203125	
18	0.07200000000000001	0.0	0.0	0.0	0.0	0.003	0.006	0.003	0.0	9.855731134033203	0.11252747802734374	0.06045359191894531	2.7923583984375	-3.810882568359375	-0.95367431640625	9.794678991699218	-0.02633621826171875	0.17357962036132812	0.698089599609375	-5.18035888671875	-3.200531005859375	9.97783541870117	0.3435679382324219	-0.17118541870117188	2.506256103515625	-4.688262939453125	-1.567840576171875	
19	0.076	0.0	0.0	0.0	0.0	0.009000000000000001	0.003	0.006	0.006	9.858125335693359	0.12389993591308593	0.06643909606933593	2.635955810546875	-4.009246826171875	-0.98419189453125	9.791087689208984	-0.020949264526367185	0.18255787658691405	0.644683837890625	-5.06591796875	-3.2196044921875	9.977236868286132	0.35613749694824215	-0.16998831787109375	2.719879150390625	-4.8065185546875	-1.865386962890625	
20	0.08	0.0	0.0	0.0	0.0	0.003	0.003	0.003	0.009000000000000001	9.855731134033203	0.13347674255371092	0.07122749938964844	2.475738525390625	-3.51715087890625	-0.728607177734375	9.788693487548828	-0.011971008300781249	0.18914193115234373	0.48828125	-5.13458251953125	-3.200531005859375	9.974244116210937	0.36750995483398435	-0.16220716247558592	2.9449462890625	-4.79888916015625	-1.47247314453125	
21	0.084	0.0	0.0	0.0	0.0	0.003	0.006	0.003	0.003	9.859322436523437	0.14784195251464843	0.07541735229492187	2.61688232421875	-3.810882568359375	-0.766754150390625	9.78629928588867	-0.010175357055664061	0.18375497741699218	0.6256103515625	-4.69207763671875	-3.12042236328125	9.970652813720703	0.38187516479492184	-0.15502455749511718	2.84576416015625	-4.642486572265625	-1.651763916015625	
22	0.088	0.0	0.0	0.0	0.0	0.003	0.006	0.006	0.006	9.858125335693359	0.1562216583251953	0.07541735229492187	2.536773681640625	-3.810882568359375	-0.980377197265625	9.78629928588867	0.001197100830078125	0.1867477294921875	0.64849853515625	-5.054473876953125	-3.139495849609375	9.97125136413574	0.37708676147460934	-0.15741875915527342	2.635955810546875	-4.4708251953125	-1.544952392578125	
23	0.092	0.0	0.0	0.0	0.0	0.006	0.006	0.006	0.003	9.862315188598632	0.16460136413574217	0.07781155395507812	2.529144287109375	-3.66973876953125	-0.759124755859375	9.79348189086914	0.010773907470703125	0.18734627990722655	0.659942626953125	-5.031585693359375	-3.21197509765625	9.969455712890625	0.3842693664550781	-0.13467384338378904	2.590179443359375	-4.82177734375	-1.5411376953125	
24	0.096	0.0	0.0	0.0	0.0	0.006	0.006	0.003	0.006	9.86291373901367	0.1753752716064453	0.06464344482421874	2.5177001953125	-3.96728515625	-0.568389892578125	9.788693487548828	0.027533319091796873	0.18136077575683593	0.7781982421875	-4.95147705078125	-3.246307373046875	9.97244846496582	0.41419688720703124	-0.14903905334472656	2.582550048828125	-4.60052490234375	-1.560211181640625	
25	0.1	0.0	0.0	0.0	0.0	0.006	0.006	0.006	0.003	9.861118087768554	0.19393033447265623	0.07003039855957031	2.47955322265625	-3.80706787109375	-0.782012939453125	9.782109432983399	0.04908113403320312	0.1975216369628906	0.4425048828125	-5.046844482421875	-3.1280517578125	9.967061511230469	0.43454760131835934	-0.15263035583496093	2.674102783203125	-4.802703857421875	-1.50299072265625	
26	0.10400000000000001	0.0	0.0	0.0	0.0	0.003	0.003	0.003	0.003	9.86411083984375	0.2041056915283203	0.07362170104980469	2.521514892578125	-3.63922119140625	-0.766754150390625	9.776722479248047	0.055066638183593745	0.1927332336425781	0.667572021484375	-5.146026611328125	-3.185272216796875	9.970652813720703	0.4339490509033203	-0.1640028137207031	2.613067626953125	-4.5623779296875	-1.71661376953125	
27	0.108	0.0	0.0	0.0	0.0	0.003	0.003	0.006	0.006	9.858125335693359	0.21188684692382811	0.06943184814453125	2.536773681640625	-3.83758544921875	-0.881195068359375	9.783905084228515	0.062249243164062495	0.1849520782470703	0.34332275390625	-4.67681884765625	-3.017425537109375	9.97184991455078	0.4477157104492187	-0.16280571289062498	2.841949462890625	-4.749298095703125	-1.4495849609375	
28	0.112	0.0	0.0	0.0	0.0	0.0	0.006	0.003	0.006	9.859920986938477	0.22385785522460935	0.06943184814453125	2.483367919921875	-3.910064697265625	-0.827789306640625	9.783905084228515	0.07362170104980469	0.19033903198242186	0.518798828125	-5.008697509765625	-3.08990478515625	9.968258612060547	0.45549686584472654	-0.16340426330566404	2.758026123046875	-4.69207763671875	-1.62506103515625	
29	0.116	0.0	0.0	0.0	0.0	0.006	0.003	0.006	0.003	9.85752678527832	0.22864625854492185	0.06404489440917968	2.54058837890625	-3.902435302734375	-0.751495361328125	9.789890588378906	0.08439560852050781	0.18854338073730467	0.86212158203125	-5.0811767578125	-3.21197509765625	9.968258612060547	0.46208092041015625	-0.15861585998535155	2.696990966796875	-4.673004150390625	-1.861572265625	
30	0.12	0.0	0.0	0.0	0.0	0.003	0.006	0.003	0.003	9.862315188598632	0.23223756103515625	0.06045359191894531	2.643585205078125	-3.551483154296875	-0.988006591796875	9.791087689208984	0.09636661682128905	0.16699556579589842	0.766754150390625	-5.28717041015625	-3.21197509765625	9.976039767456054	0.4674678741455078	-0.17238251953125	2.50244140625	-4.81414794921875	-1.73187255859375	
31	0.124	0.0	0.0	0.0	0.0	0.003	0.006	0.003	0.003	9.866505041503906	0.23582886352539062	0.055066638183593745	2.35748291015625	-3.841400146484375	-0.823974609375	9.78031378173828	0.10115502014160156	0.16759411621093748	0.591278076171875	-4.962921142578125	-3.002166748046875	9.969455712890625	0.47105917663574215	-0.1849520782470703	2.60162353515625	-4.57763671875	-1.522064208984375	
32	0.128	0.0	0.0	0.0	0.0	0.003	0.003	0.003	0.006	9.85094273071289	0.23882161560058593	0.05805939025878906	2.5482177734375	-3.50189208984375	-0.91552734375	9.785102185058593	0.09816226806640624	0.17058686828613281	0.5950927734375	-4.974365234375	-3.10516357421875	9.970652813720703	0.4782417816162109	-0.1801636749267578	2.70843505859375	-4.756927490234375	-1.6937255859375	
33	0.132	0.0	0.0	0.0	0.0	0.003	0.006	0.003	0.003	9.849147079467773	0.23882161560058593	0.05626373901367187	2.422332763671875	-3.879547119140625	-0.736236572265625	9.788693487548828	0.0909796630859375	0.17776947326660156	0.652313232421875	-4.886627197265625	-3.177642822265625	9.964667309570311	0.4752490295410156	-0.1693897674560547	2.643585205078125	-4.608154296875	-1.6937255859375	
34	0.136	0.0	0.0	0.0	0.0	0.003	0.006	0.006	0.003	9.859322436523437	0.2424129180908203	0.05985504150390625	2.349853515625	-3.936767578125	-0.80108642578125	9.78629928588867	0.08738836059570312	0.17417817077636719	0.72479248046875	-5.1727294921875	-3.231048583984375	9.965265859985351	0.4734533782958984	-0.17178396911621094	2.655029296875	-4.749298095703125	-1.64794921875	
35	0.14	0.0	0.0	0.0	0.0	0.003	0.006	0.006	0.003	9.859322436523437	0.24001871643066405	0.05686228942871093	2.47955322265625	-3.955841064453125	-0.827789306640625	9.783905084228515	0.09516951599121093	0.17357962036132812	0.5950927734375	-5.035400390625	-3.269195556640625	9.963470208740233	0.46507367248535153	-0.17657237243652343	2.70843505859375	-4.627227783203125	-1.552581787109375	
36	0.14400000000000002	0.0	0.0	0.0	0.0	0.006	0.006	0.006	0.006	9.859322436523437	0.22685060729980466	0.04608838195800781	2.399444580078125	-3.650665283203125	-0.980377197265625	9.791087689208984	0.08080430603027343	0.17118541870117188	0.48065185546875	-5.146026611328125	-3.208160400390625	9.97903251953125	0.4638765716552734	-0.17357962036132812	2.655029296875	-4.680633544921875	-1.5716552734375	
37	0.148	0.0	0.0	0.0	0.0	0.006	0.006	0.003	0.006	9.852738381958007	0.21787235107421873	0.04548983154296875	2.361297607421875	-3.566741943359375	-0.873565673828125	9.788693487548828	0.059256491088867186	0.17298106994628906	0.560760498046875	-5.191802978515625	-3.11279296875	9.976039767456054	0.4387374542236328	-0.18734627990722655	2.620697021484375	-4.791259765625	-1.8310546875	
38	0.152	0.0	0.0	0.0	0.0	0.009000000000000001	0.003	0.006	0.006	9.849745629882811	0.21128829650878905	0.04129997863769531	2.536773681640625	-3.84521484375	-0.858306884765625	9.785102185058593	0.05386953735351562	0.17776947326660156	0.568389892578125	-4.8675537109375	-3.246307373046875	9.967061511230469	0.4423287567138672	-0.1610100616455078	2.552032470703125	-4.543304443359375	-1.583099365234375	
39	0.156	0.0	0.0	0.0	0.0	0.003	0.006	0.003	0.003	9.85692823486328	0.19093758239746092	0.04608838195800781	2.46429443359375	-3.658294677734375	-0.881195068359375	9.782707983398437	0.04548983154296875	0.17238251953125	0.438690185546875	-5.062103271484375	-3.299713134765625	9.965265859985351	0.42018239135742186	-0.17118541870117188	2.49481201171875	-4.7760009765625	-1.621246337890625	
40	0.16	0.0	0.0	0.0	0.0	0.006	0.003	0.006	0.003	9.861716638183593	0.1753752716064453	0.05746083984375	2.6702880859375	-3.72314453125	-0.57220458984375	9.784503634643555	0.028730419921875	0.17298106994628906	0.69427490234375	-5.077362060546875	-3.11279296875	9.96586441040039	0.4004302276611328	-0.17238251953125	2.857208251953125	-4.4708251953125	-1.552581787109375	
41	0.164	0.0	0.0	0.0	0.0	0.003	0.006	0.006	0.003	9.86411083984375	0.1592144104003906	0.05746083984375	2.391815185546875	-3.9520263671875	-0.865936279296875	9.78629928588867	0.0143652099609375	0.17298106994628906	0.392913818359375	-5.092620849609375	-3.1585693359375	9.980229620361328	0.3842693664550781	-0.15023615417480468	2.60162353515625	-4.4403076171875	-1.5716552734375	
42	0.168	0.0	0.0	0.0	0.0	0.003	0.003	0.006	0.006	9.865307940673828	0.1466448516845703	0.04548983154296875	2.483367919921875	-3.76129150390625	-0.69427490234375	9.78629928588867	0.00239420166015625	0.17776947326660156	0.514984130859375	-4.974365234375	-2.960205078125	9.982623822021484	0.38367081604003905	-0.16879121704101563	2.689361572265625	-4.547119140625	-1.64031982421875	
43	0.17200000000000001	0.0	0.0	0.0	0.0	0.006	0.003	0.006	0.003	9.85692823486328	0.13587094421386717	0.03950432739257812	2.54058837890625	-3.68499755859375	-0.75531005859375	9.783306533813477	-0.011971008300781249	0.16340426330566404	0.614166259765625	-5.176544189453125	-3.0517578125	9.969455712890625	0.3716998077392578	-0.16699556579589842	2.57110595703125	-4.611968994140625	-1.697540283203125	
44	0.176	0.0	0.0	0.0	0.0	0.006	0.006	0.003	0.006	9.855731134033203	0.1274912384033203	0.04848258361816406	2.63214111328125	-3.76129150390625	-0.827789306640625	9.792284790039062	-0.02454056701660156	0.16819266662597654	0.720977783203125	-5.0201416015625	-3.162384033203125	9.976039767456054	0.3585316986083984	-0.16998831787109375	2.7008056640625	-4.581451416015625	-1.796722412109375	
45	0.18	0.0	0.0	0.0	0.0	0.003	0.006	0.006	0.006	9.854534033203125	0.11611878051757812	0.04608838195800781	2.613067626953125	-3.70025634765625	-0.904083251953125	9.79348189086914	-0.030526071166992186	0.16819266662597654	0.637054443359375	-5.184173583984375	-3.204345703125	9.97843396911621	0.3495534423828125	-0.1693897674560547	3.017425537109375	-4.60052490234375	-1.64794921875	
46	0.184	0.0	0.0	0.0	0.0	0.006	0.006	0.006	0.003	9.849745629882811	0.11013327636718749	0.05626373901367187	2.46429443359375	-3.631591796875	-0.942230224609375	9.789890588378906	-0.04369418029785156	0.16699556579589842	0.392913818359375	-4.787445068359375	-3.173828125	9.983820922851562	0.33758243408203126	-0.16759411621093748	2.788543701171875	-4.5318603515625	-1.613616943359375	
47	0.188	0.0	0.0	0.0	0.0	0.006	0.006	0.006	0.006	9.8694977935791	0.10295067138671875	0.06105214233398437	2.643585205078125	-3.887176513671875	-0.804901123046875	9.787496386718749	-0.04967968444824218	0.16998831787109375	0.4730224609375	-4.81414794921875	-3.07464599609375	9.981426721191406	0.3286041778564453	-0.17836802368164062	2.666473388671875	-4.718780517578125	-1.628875732421875	
48	0.192	0.0	0.0	0.0	0.0	0.006	0.006	0.006	0.006	9.86411083984375	0.0909796630859375	0.06404489440917968	2.582550048828125	-3.704071044921875	-0.8544921875	9.789890588378906	-0.06105214233398437	0.17298106994628906	0.606536865234375	-5.04302978515625	-3.082275390625	9.979631069946288	0.32441432495117184	-0.19033903198242186	2.76947021484375	-4.680633544921875	-1.8157958984375	
49	0.196	0.0	0.0	0.0	0.0	0.006	0.003	0.006	0.003	9.86291373901367	0.08140285644531249	0.05626373901367187	2.81524658203125	-3.84521484375	-0.8087158203125	9.784503634643555	-0.05626373901367187	0.17238251953125	0.5645751953125	-4.863739013671875	-3.08990478515625	9.97843396911621	0.31663316955566406	-0.19213468322753904	2.593994140625	-4.7149658203125	-1.712799072265625	
50	0.2	0.0	0.0	0.0	0.0	0.003	0.003	0.003	0.006	9.861716638183593	0.07721300354003906	0.04668693237304687	2.5634765625	-3.612518310546875	-0.98419189453125	9.783905084228515	-0.06883329772949218	0.1640028137207031	0.484466552734375	-5.14984130859375	-3.330230712890625	9.969455712890625	0.30526071166992186	-0.19153613281249998	2.66265869140625	-4.61578369140625	-1.65557861328125	
51	0.20400000000000001	0.0	0.0	0.0	0.0	0.003	0.006	0.006	0.006	9.86411083984375	0.07362170104980469	0.05027823486328125	2.597808837890625	-3.92913818359375	-0.896453857421875	9.78629928588867	-0.08259995727539061	0.15382745666503905	0.545501708984375	-4.833221435546875	-3.19671630859375	9.962273107910155	0.3016694091796875	-0.19991583862304688	2.590179443359375	-4.69207763671875	-1.82342529296875	
52	0.20800000000000002	0.0	0.0	0.0	0.0	0.0	0.006	0.003	0.006	9.86411083984375	0.07721300354003906	0.052073886108398436	2.368927001953125	-3.9215087890625	-1.010894775390625	9.787496386718749	-0.07122749938964844	0.1592144104003906	0.377655029296875	-5.176544189453125	-3.25775146484375	9.982025271606444	0.30466216125488277	-0.19033903198242186	2.536773681640625	-4.60052490234375	-1.575469970703125	
53	0.212	0.0	0.0	0.0	0.0	0.006	0.006	0.003	0.006	9.859322436523437	0.07721300354003906	0.04967968444824218	2.391815185546875	-3.566741943359375	-0.560760498046875	9.791087689208984	-0.07781155395507812	0.15741875915527342	0.67138671875	-5.0506591796875	-3.208160400390625	9.97783541870117	0.3016694091796875	-0.1771709228515625	2.727508544921875	-4.730224609375	-1.5716552734375	
54	0.216	0.0	0.0	0.0	0.0	0.003	0.006	0.006	0.003	9.852738381958007	0.0796072052001953	0.04608838195800781	2.544403076171875	-3.95965576171875	-0.6561279296875	9.787496386718749	-0.0652419952392578	0.16340426330566404	0.545501708984375	-5.1422119140625	-3.0975341796875	9.969455712890625	0.3112462158203125	-0.17238251953125	2.7313232421875	-4.634857177734375	-1.48773193359375	
55	0.22	0.0	0.0	0.0	0.0	0.003	0.006	0.003	0.003	9.85692823486328	0.09038111267089843	0.044292730712890624	2.38800048828125	-3.692626953125	-0.843048095703125	9.785102185058593	-0.06404489440917968	0.17058686828613281	0.55694580078125	-5.10406494140625	-3.22723388671875	9.97903251953125	0.31483751831054685	-0.17597382202148437	2.7313232421875	-4.78363037109375	-1.617431640625	
56	0.224	0.0	0.0	0.0	0.0	0.006	0.003	0.003	0.003	9.858125335693359	0.09337386474609374	0.06045359191894531	2.3956298828125	-4.070281982421875	-1.04522705078125	9.789890588378906	-0.052073886108398436	0.16340426330566404	0.92315673828125	-4.985809326171875	-3.31878662109375	9.977236868286132	0.3178302703857422	-0.16879121704101563	2.54058837890625	-4.852294921875	-1.6937255859375	
57	0.228	0.0	0.0	0.0	0.0	0.006	0.003	0.006	0.003	9.85094273071289	0.09995791931152344	0.06105214233398437	2.536773681640625	-3.894805908203125	-0.926971435546875	9.788693487548828	-0.040102877807617184	0.16460136413574217	0.579833984375	-4.894256591796875	-3.215789794921875	9.981426721191406	0.3327940307617187	-0.15861585998535155	2.719879150390625	-4.665374755859375	-1.47247314453125	
58	0.232	0.0	0.0	0.0	0.0	0.003	0.006	0.006	0.006	9.861716638183593	0.10953472595214843	0.054468087768554684	2.674102783203125	-3.780364990234375	-0.6103515625	9.792284790039062	-0.027533319091796873	0.16639701538085935	0.37384033203125	-4.894256591796875	-3.086090087890625	9.984419473266602	0.3399766357421875	-0.16879121704101563	2.593994140625	-4.650115966796875	-1.499176025390625	
59	0.23600000000000002	0.0	0.0	0.0	0.0	0.0	0.006	0.003	0.006	9.862315188598632	0.11552023010253906	0.0526724365234375	2.51007080078125	-3.74603271484375	-0.91552734375	9.78629928588867	-0.020350714111328123	0.18435352783203124	0.52642822265625	-5.023956298828125	-3.231048583984375	9.976638317871092	0.35314474487304687	-0.1693897674560547	2.681732177734375	-4.64630126953125	-1.617431640625	
60	0.24	0.0	0.0	0.0	0.0	0.009000000000000001	0.003	0.003	0.006	9.846752877807617	0.13467384338378904	0.04848258361816406	2.5634765625	-3.94439697265625	-0.87738037109375	9.785102185058593	-0.013168109130859374	0.1640028137207031	0.576019287109375	-4.98199462890625	-3.284454345703125	9.975441217041014	0.3603273498535156	-0.17657237243652343	2.57110595703125	-4.78363037109375	-1.537322998046875	
61	0.244	0.0	0.0	0.0	0.0	0.003	0.006	0.006	0.003	9.852139831542969	0.15442600708007811	0.03950432739257812	2.5177001953125	-3.7841796875	-0.823974609375	9.78629928588867	-0.010175357055664061	0.15741875915527342	0.67138671875	-4.8980712890625	-2.979278564453125	9.968258612060547	0.38307226562499996	-0.17178396911621094	2.651214599609375	-4.817962646484375	-1.605987548828125	
62	0.248	0.0	0.0	0.0	0.0	0.003	0.006	0.003	0.006	9.85094273071289	0.17118541870117188	0.04369418029785156	2.689361572265625	-3.650665283203125	-0.865936279296875	9.785102185058593	0.01975216369628906	0.17058686828613281	0.57220458984375	-4.878997802734375	-2.986907958984375	9.962273107910155	0.3938461730957031	-0.16639701538085935	2.74658203125	-4.66156005859375	-1.74713134765625	
63	0.252	0.0	0.0	0.0	0.0	0.006	0.006	0.006	0.006	9.860519537353515	0.18315642700195311	0.05386953735351562	2.55584716796875	-3.597259521484375	-0.606536865234375	9.78629928588867	0.0383072265625	0.16340426330566404	0.823974609375	-5.218505859375	-3.070831298828125	9.97184991455078	0.40880993347167965	-0.16998831787109375	2.765655517578125	-4.619598388671875	-1.590728759765625	
64	0.256	0.0	0.0	0.0	0.0	0.003	0.003	0.006	0.003	9.855731134033203	0.19512743530273435	0.051475335693359374	2.5634765625	-3.765106201171875	-0.67901611328125	9.78629928588867	0.04129997863769531	0.16519991455078123	0.804901123046875	-4.90570068359375	-3.18145751953125	9.975441217041014	0.4327519500732422	-0.16879121704101563	2.750396728515625	-4.840850830078125	-1.621246337890625	
65	0.26	0.0	0.0	0.0	0.0	0.003	0.003	0.006	0.006	9.854534033203125	0.2184709014892578	0.06584054565429687	2.25067138671875	-3.582000732421875	-0.8087158203125	9.787496386718749	0.04369418029785156	0.16879121704101563	0.507354736328125	-5.107879638671875	-3.040313720703125	9.982025271606444	0.41898529052734373	-0.16220716247558592	2.64739990234375	-4.6539306640625	-1.8463134765625	
66	0.264	0.0	0.0	0.0	0.0	0.003	0.003	0.003	0.009000000000000001	9.85752678527832	0.26396073303222656	0.04548983154296875	2.46429443359375	-3.79180908203125	-0.81634521484375	9.78629928588867	0.14305354919433594	0.1640028137207031	0.423431396484375	-4.87518310546875	-3.276824951171875	9.95389340209961	0.5315127685546874	-0.16759411621093748	2.66265869140625	-4.7607421875	-1.71661376953125	
67	0.268	0.0	0.0	0.0	0.0	0.006	0.006	0.006	0.003	9.858125335693359	0.17357962036132812	0.025139117431640625	2.35748291015625	-3.803253173828125	-0.89263916015625	9.784503634643555	0.03172317199707031	0.16699556579589842	0.675201416015625	-4.970550537109375	-3.21197509765625	9.925761532592773	0.40402153015136716	-0.14185644836425781	2.696990966796875	-4.528045654296875	-1.27410888671875	
68	0.272	0.0	0.0	0.0	0.0	0.003	0.003	0.006	0.003	9.843760125732421	0.26874913635253905	0.054468087768554684	2.84576416015625	-3.719329833984375	-1.079559326171875	9.780912332153319	0.1610100616455078	0.17597382202148437	0.42724609375	-4.894256591796875	-3.2806396484375	9.937133990478515	0.5129577056884765	-0.17597382202148437	2.681732177734375	-4.550933837890625	-1.79290771484375	
69	0.276	0.0	0.0	0.0	0.0	0.006	0.006	0.003	0.003	9.868899243164062	0.24779987182617186	0.012569558715820313	2.3956298828125	-3.696441650390625	-0.965118408203125	9.78031378173828	0.1562216583251953	0.16280571289062498	0.6866455078125	-5.107879638671875	-3.02886962890625	9.925162982177733	0.5309142181396485	-0.1197100830078125	2.513885498046875	-4.520416259765625	-1.522064208984375	
70	0.28	0.0	0.0	0.0	0.0	0.003	0.006	0.006	0.006	9.853336932373047	0.21966800231933592	0.06703764648437499	2.590179443359375	-3.803253173828125	-0.75531005859375	9.756371765136718	0.08858546142578125	0.18614917907714842	0.682830810546875	-5.153656005859375	-3.208160400390625	9.981426721191406	0.42497079467773435	-0.17058686828613281	2.63214111328125	-4.72259521484375	-1.712799072265625	
71	0.28400000000000003	0.0	0.0	0.0	0.0	0.003	0.006	0.006	0.003	9.87608184814453	0.21248539733886718	-0.00239420166015625	2.2735595703125	-3.68499755859375	-0.949859619140625	9.76774422302246	0.08140285644531249	0.16699556579589842	0.6103515625	-5.27191162109375	-3.086090087890625	9.923965881347655	0.44532150878906246	-0.09457096557617187	2.410888671875	-4.44793701171875	-1.590728759765625	
72	0.28800000000000003	0.0	0.0	0.0	0.0	0.003	0.006	0.006	0.003	9.865307940673828	0.2645592834472656	0.044891281127929686	2.8839111328125	-3.84521484375	-0.812530517578125	9.809642752075195	0.16519991455078123	0.16460136413574217	0.545501708984375	-4.871368408203125	-3.154754638671875	9.996989031982421	0.5512649322509765	-0.18076222534179687	2.716064453125	-4.749298095703125	-1.67083740234375	
73	0.292	0.0	0.0	0.0	0.0	0.003	0.003	0.003	0.006	9.859920986938477	0.17657237243652343	-0.006584054565429687	2.170562744140625	-3.810882568359375	-0.81634521484375	9.7545761138916	0.020949264526367185	0.18136077575683593	0.49591064453125	-4.98199462890625	-3.1890869140625	9.952696301269532	0.5392939239501953	-0.14604630126953125	2.635955810546875	-4.642486572265625	-1.422882080078125	
74	0.296	0.0	0.0	0.0	0.0	0.006	0.003	0.003	0.003	9.8694977935791	0.1771709228515625	0.05327098693847656	2.4566650390625	-4.058837890625	-0.9002685546875	9.796474642944336	0.0526724365234375	0.17417817077636719	0.537872314453125	-4.970550537109375	-3.44085693359375	9.994594830322265	0.3968389251708984	-0.16340426330566404	2.712249755859375	-4.5318603515625	-2.01416015625	
75	0.3	0.0	0.0	0.0	0.0	0.003	0.003	0.003	0.006	9.840168823242188	0.36152445068359373	0.16519991455078123	2.750396728515625	-3.826141357421875	-0.5645751953125	9.783905084228515	0.19512743530273435	0.2328361114501953	0.301361083984375	-5.0048828125	-2.887725830078125	9.986215124511718	0.6482300994873047	-0.15322890625	2.452850341796875	-4.69207763671875	-1.33514404296875	
76	0.304	0.0	0.0	0.0	0.0	0.003	0.006	0.006	0.006	9.864709390258788	0.12988544006347655	0.029328970336914062	2.407073974609375	-3.7841796875	-0.904083251953125	9.790489138793944	0.032920272827148434	0.19093758239746092	0.690460205078125	-4.87518310546875	-3.269195556640625	9.980828170776366	0.3705027069091797	-0.14963760375976562	2.788543701171875	-4.657745361328125	-1.300811767578125	
77	0.308	0.0	0.0	0.0	0.0	0.006	0.003	0.006	0.006	9.835978970336914	0.2813186950683594	0.17896657409667968	3.055572509765625	-3.96728515625	-0.640869140625	9.789890588378906	0.04548983154296875	0.22565350646972654	0.621795654296875	-4.82177734375	-3.3111572265625	9.973047015380859	0.489015689086914	-0.15741875915527342	2.67791748046875	-4.425048828125	-1.59454345703125	
78	0.312	0.0	0.0	0.0	0.0	0.003	0.006	0.006	0.006	9.87727894897461	0.1352723937988281	0.003591302490234375	1.50299072265625	-3.345489501953125	-0.957489013671875	9.906009368896484	-0.03411737365722656	0.07242460021972656	0.885009765625	-5.161285400390625	-3.261566162109375	10.121487518310547	0.33758243408203126	-0.34536358947753903	2.76947021484375	-4.638671875	-1.64031982421875	
79	0.316	0.0	0.0	0.0	0.0	-0.003	0.006	0.006	0.006	9.826402163696288	0.3010708587646484	0.1867477294921875	3.314971923828125	-3.9215087890625	-0.45013427734375	9.811438403320311	0.08559270935058594	0.23104046020507812	0.29754638671875	-5.18035888671875	-2.857208251953125	9.944316595458984	0.5476736297607422	-0.15083470458984374	2.475738525390625	-4.238128662109375	-1.384735107421875	
80	0.32	0.0	0.0	0.0	0.0	0.006	0.006	0.006	0.003	9.911994873046874	-0.034715924072265626	0.033518823242187495	1.239776611328125	-3.307342529296875	-0.843048095703125	9.90181951599121	-0.17956512451171874	0.07003039855957031	0.54168701171875	-4.9591064453125	-3.4027099609375	10.113706362915039	0.14903905334472656	-0.36391865234375	2.841949462890625	-4.60052490234375	-1.651763916015625	
81	0.324	0.0	0.0	0.0	0.0	0.003	0.003	0.006	0.006	9.859322436523437	0.297479556274414	0.17597382202148437	3.452301025390625	-4.192352294921875	-0.385284423828125	9.772532626342773	0.2214636535644531	0.21607669982910155	0.5950927734375	-5.268096923828125	-3.05938720703125	9.980229620361328	0.5985504150390625	-0.16340426330566404	2.712249755859375	-4.802703857421875	-1.65557861328125	
82	0.328	0.0	0.0	0.0	0.0	0.006	0.006	0.006	0.003	9.909600671386718	-0.017357962036132813	0.032920272827148434	1.117706298828125	-3.3721923828125	-0.92315673828125	9.898826763916015	-0.13467384338378904	0.058657940673828124	0.83160400390625	-5.08880615234375	-3.143310546875	10.119691867065429	0.20769699401855468	-0.39923312683105466	3.116607666015625	-4.69970703125	-1.529693603515625	
83	0.332	0.0	0.0	0.0	0.0	0.003	0.003	0.006	0.003	9.860519537353515	0.12210428466796874	0.058657940673828124	3.04412841796875	-3.902435302734375	-0.8544921875	9.734823950195311	0.11372457885742186	0.23702596435546874	0.6256103515625	-4.81414794921875	-2.841949462890625	9.970652813720703	0.4638765716552734	-0.14784195251464843	2.899169921875	-4.75311279296875	-1.674652099609375	
84	0.336	0.0	0.0	0.0	0.0	0.009000000000000001	0.003	0.003	0.006	9.90900212097168	-0.04129997863769531	0.025737667846679687	1.1444091796875	-3.173828125	-0.96893310546875	9.85632968444824	-0.1562216583251953	0.12030863342285156	0.79345703125	-5.126953125	-3.261566162109375	10.022726699829102	0.19632453613281248	-0.2442085693359375	2.60162353515625	-4.92095947265625	-1.514434814453125	
85	0.34	0.0	0.0	0.0	0.0	0.003	0.006	0.003	0.003	9.868899243164062	0.16998831787109375	0.04129997863769531	2.880096435546875	-4.05120849609375	-0.946044921875	9.747393508911133	0.18076222534179687	0.22266075439453123	0.51116943359375	-5.023956298828125	-2.887725830078125	9.986215124511718	0.5620388397216797	-0.16280571289062498	2.841949462890625	-4.4708251953125	-1.312255859375	
86	0.34400000000000003	0.0	0.0	0.0	0.0	0.003	0.006	0.003	0.006	9.888052856445311	-0.13407529296874998	0.07900865478515624	0.949859619140625	-3.173828125	-0.732421875	9.829993466186522	-0.2825157958984375	0.1227028350830078	0.34332275390625	-4.993438720703125	-2.956390380859375	10.007762939453125	0.08499415893554688	-0.21308394775390624	2.780914306640625	-4.79888916015625	-1.636505126953125	
87	0.34800000000000003	0.0	0.0	0.0	0.0	0.0	0.006	0.006	0.003	9.848548529052733	0.1466448516845703	0.051475335693359374	3.124237060546875	-4.08935546875	-0.827789306640625	9.706093530273437	0.08858546142578125	0.2059013427734375	0.591278076171875	-4.970550537109375	-3.48663330078125	9.999383233642577	0.5722141967773438	-0.1610100616455078	2.349853515625	-4.726409912109375	-2.079010009765625	
88	0.352	0.0	0.0	0.0	0.0	0.003	0.006	0.003	0.003	9.839570272827148	0.32561142578124996	0.07242460021972656	2.643585205078125	-3.94439697265625	-0.774383544921875	9.86411083984375	-0.24600422058105467	0.11552023010253906	0.545501708984375	-5.100250244140625	-3.009796142578125	10.020332498168944	0.1484405029296875	-0.23702596435546874	2.532958984375	-4.730224609375	-1.415252685546875	
89	0.356	0.0	0.0	0.0	0.0	0.003	0.006	0.003	0.003	9.819818109130859	0.09756371765136718	0.04967968444824218	3.269195556640625	-4.199981689453125	-0.850677490234375	9.674370358276366	0.032920272827148434	0.27174188842773433	0.5340576171875	-5.016326904296875	-3.6163330078125	9.819818109130859	0.3585316986083984	-0.07781155395507812	2.399444580078125	-4.657745361328125	-2.017974853515625	
90	0.36	0.0	0.0	0.0	0.0	0.003	0.003	0.006	0.003	9.823409411621093	0.34057518615722654	0.07122749938964844	2.93731689453125	-3.96728515625	-0.690460205078125	9.872490545654296	-0.2657563842773437	0.10235212097167969	0.22125244140625	-5.054473876953125	-3.13568115234375	10.019733947753906	0.10773907470703124	-0.2136824981689453	2.803802490234375	-4.901885986328125	-1.811981201171875	
91	0.364	0.0	0.0	0.0	0.0	0.0	0.003	0.003	0.006	9.811438403320311	0.12509703674316405	0.023942016601562498	3.246307373046875	-3.871917724609375	-0.774383544921875	9.703100778198241	0.10594342346191406	0.2454056701660156	0.54168701171875	-4.94384765625	-3.42559814453125	9.847351428222655	0.43933600463867184	-0.07781155395507812	2.44140625	-4.57763671875	-1.89208984375	
92	0.368	0.0	0.0	0.0	0.0	0.003	0.006	0.006	0.003	9.828197814941406	0.33399113159179683	0.06344634399414062	2.98309326171875	-4.0130615234375	-0.7781982421875	9.702502227783203	-0.1945288848876953	0.1975216369628906	0.301361083984375	-4.7760009765625	-3.017425537109375	9.847351428222655	0.2855085479736328	-0.02633621826171875	2.5634765625	-4.58526611328125	-1.3427734375	
93	0.372	0.0	0.0	0.0	0.0	0.003	0.006	0.006	0.006	9.866505041503906	0.059256491088867186	0.0718260498046875	3.330230712890625	-4.314422607421875	-0.87738037109375	9.660603698730467	0.13347674255371092	0.2962824554443359	0.667572021484375	-5.023956298828125	-3.551483154296875	9.813832604980469	0.45070846252441404	-0.05805939025878906	2.506256103515625	-4.82940673828125	-2.044677734375	
94	0.376	0.0	0.0	0.0	0.0	0.006	0.003	0.003	0.006	9.840168823242188	0.3962403747558593	0.025737667846679687	3.147125244140625	-3.70025634765625	-0.614166259765625	9.715071786499022	-0.12210428466796874	0.1945288848876953	0.5035400390625	-4.9591064453125	-2.933502197265625	9.842563024902343	0.3758896606445312	-0.028730419921875	2.620697021484375	-4.581451416015625	-1.308441162109375	
95	0.38	0.0	0.0	0.0	0.0	0.006	0.006	0.003	0.006	9.882067352294921	0.017357962036132813	0.05027823486328125	2.84576416015625	-3.849029541015625	-1.178741455078125	9.792284790039062	-0.12689268798828124	0.18854338073730467	0.225067138671875	-5.023956298828125	-3.448486328125	10.028712203979492	0.20231004028320312	-0.24121581726074218	2.4871826171875	-4.4403076171875	-1.720428466796875	
96	0.384	0.0	0.0	0.0	0.0	0.003	0.003	0.006	0.003	9.955689053344726	0.02693476867675781	-0.01915361328125	2.38037109375	-3.6163330078125	-0.81634521484375	9.708487731933593	-0.11133037719726561	0.20949264526367187	0.6103515625	-5.084991455078125	-2.90679931640625	9.827000714111328	0.38367081604003905	-0.012569558715820313	2.460479736328125	-4.6844482421875	-1.52587890625	
97	0.388	0.0	0.0	0.0	0.0	0.006	0.006	0.003	0.006	9.881468801879882	0.061650692749023434	0.055066638183593745	3.154754638671875	-4.169464111328125	-0.93841552734375	9.776722479248047	-0.022146365356445312	0.16759411621093748	0.392913818359375	-4.8675537109375	-3.4027099609375	10.043077413940429	0.30526071166992186	-0.2472013214111328	2.590179443359375	-4.451751708984375	-1.796722412109375	
98	0.392	0.0	0.0	0.0	0.0	0.006	0.003	0.003	0.003	9.959280355834961	0.018555062866210937	-0.01915361328125	2.597808837890625	-4.032135009765625	-0.804901123046875	9.816825357055663	0.040701428222656245	0.0909796630859375	0.43487548828125	-5.096435546875	-2.887725830078125	9.819818109130859	0.36272155151367186	-0.00718260498046875	2.742767333984375	-4.638671875	-1.232147216796875	
99	0.396	0.0	0.0	0.0	0.0	0.006	0.006	0.006	0.009000000000000001	9.883264453125	0.07362170104980469	0.06045359191894531	3.108978271484375	-3.879547119140625	-0.99945068359375	9.77432827758789	-0.027533319091796873	0.16759411621093748	0.518798828125	-5.11932373046875	-3.5858154296875	10.056844073486328	0.27293898925781246	-0.2651578338623047	2.44903564453125	-4.459381103515625	-1.926422119140625	
100	0.4	0.0	0.0	0.0	0.0	0.003	0.006	0.006	0.009000000000000001	9.961076007080077	0.06105214233398437	0.008379705810546874	2.5634765625	-4.062652587890625	-0.690460205078125	9.810241302490233	0.1406593475341797	0.09816226806640624	0.2899169921875	-4.978179931640625	-2.735137939453125	9.955689053344726	0.6602011077880859	-0.17597382202148437	2.841949462890625	-4.669189453125	-1.293182373046875	
101	0.404	0.0	0.0	0.0	0.0	0.009000000000000001	0.003	0.003	0.003	9.958681805419921	-0.23822306518554687	-0.09935936889648436	-0.05340576171875	-2.52532958984375	-1.064300537109375	9.928754284667969	-0.10235212097167969	-0.03591302490234375	1.190185546875	-4.8675537109375	-3.337860107421875	10.081384640502929	0.27293898925781246	-0.2759317413330078	2.54058837890625	-4.32586669921875	-1.96075439453125	
102	0.40800000000000003	0.0	0.0	0.0	0.0	0.009000000000000001	0.003	0.003	0.003	9.950900650024414	0.08080430603027343	0.03890577697753906	2.696990966796875	-4.131317138671875	-0.804901123046875	9.813832604980469	0.12629413757324218	0.09217676391601562	0.32806396484375	-5.115509033203125	-2.849578857421875	9.968258612060547	0.6284779357910156	-0.17776947326660156	2.849578857421875	-4.70733642578125	-1.251220703125	
103	0.41200000000000003	0.0	0.0	0.0	0.0	0.006	0.006	0.006	0.003	9.958681805419921	-0.21068974609375	-0.0909796630859375	-0.244140625	-2.559661865234375	-0.820159912109375	9.911994873046874	-0.06584054565429687	-0.02633621826171875	1.041412353515625	-4.985809326171875	-3.3416748046875	10.286687432861328	0.09457096557617187	-0.5416881256103515	3.021240234375	-4.81414794921875	-1.45721435546875	
104	0.41600000000000004	0.0	0.0	0.0	0.0	0.006	0.003	0.003	0.003	9.944316595458984	0.13407529296874998	0.0652419952392578	4.566192626953125	-4.482269287109375	-0.720977783203125	9.672574707031249	0.43035774841308594	0.36152445068359373	0.537872314453125	-5.100250244140625	-3.0364990234375	9.969455712890625	0.6913257293701172	-0.16998831787109375	2.712249755859375	-4.8675537109375	-1.377105712890625	
105	0.42	0.0	0.0	0.0	0.0	0.0	0.006	0.006	0.006	9.97783541870117	-0.1801636749267578	-0.08020575561523437	-0.537872314453125	-2.46429443359375	-0.9307861328125	9.935936889648437	-0.052073886108398436	-0.027533319091796873	0.92315673828125	-4.863739013671875	-3.208160400390625	10.28549033203125	0.09696516723632811	-0.5398924743652344	2.933502197265625	-4.344940185546875	-1.422882080078125	
106	0.424	0.0	0.0	0.0	0.0	0.003	0.006	0.006	0.003	9.694122521972655	0.3555389465332031	0.19632453613281248	4.47845458984375	-4.894256591796875	-0.507354736328125	9.680954412841796	0.48123453369140623	0.37888241271972656	0.63323974609375	-5.10406494140625	-2.87628173828125	9.95389340209961	0.8104372619628906	-0.10175357055664062	2.7923583984375	-4.688262939453125	-1.476287841796875	
107	0.428	0.0	0.0	0.0	0.0	0.003	0.006	0.003	0.006	9.992799179077148	-0.12808978881835936	-0.022146365356445312	-0.77056884765625	-2.101898193359375	-1.132965087890625	9.935936889648437	-0.27832594299316404	0.010773907470703125	1.140594482421875	-4.89044189453125	-3.307342529296875	10.272920773315429	0.10474632263183593	-0.5398924743652344	2.95257568359375	-4.474639892578125	-1.674652099609375	
108	0.432	0.0	0.0	0.0	0.0	0.006	0.003	0.006	0.009000000000000001	9.698910925292969	0.3495534423828125	0.16998831787109375	4.314422607421875	-4.669189453125	-0.324249267578125	9.683947164916992	0.5063736511230469	0.39264907226562495	0.782012939453125	-5.27191162109375	-2.887725830078125	9.944915145874022	0.8271966735839843	-0.08738836059570312	3.025054931640625	-4.810333251953125	-1.50299072265625	
109	0.436	0.0	0.0	0.0	0.0	0.006	0.006	0.006	0.006	9.900023864746093	0.3699041564941406	0.09277531433105468	1.7242431640625	-3.44085693359375	-0.732421875	9.943718045043944	-0.2765302917480469	0.002992752075195312	0.7171630859375	-5.107879638671875	-3.406524658203125	10.290278735351562	0.07062894897460938	-0.17956512451171874	2.521514892578125	-4.734039306640625	-1.5106201171875	
110	0.44	0.0	0.0	0.0	0.0	0.006	0.006	0.006	0.006	9.709086282348633	0.2962824554443359	0.15263035583496093	4.474639892578125	-4.772186279296875	-0.492095947265625	9.67856021118164	0.46507367248535153	0.38187516479492184	0.732421875	-4.81414794921875	-3.3416748046875	9.93354268798828	0.8002619049072265	-0.086191259765625	2.716064453125	-4.505157470703125	-1.6326904296875	
111	0.444	0.0	0.0	0.0	0.0	0.006	0.006	0.006	0.003	9.911396322631836	0.3860650177001953	0.08319850769042968	1.934051513671875	-3.4332275390625	-0.5950927734375	9.95389340209961	-0.2651578338623047	0.010175357055664061	0.8544921875	-5.07354736328125	-3.34930419921875	9.979631069946288	0.229843359375	-0.16998831787109375	2.742767333984375	-5.02777099609375	-1.621246337890625	
112	0.448	0.0	0.0	0.0	0.0	0.012	0.003	0.006	0.006	9.715071786499022	0.3028665100097656	0.15442600708007811	4.436492919921875	-4.619598388671875	-0.812530517578125	9.649829791259766	0.364517202758789	0.3764882110595703	0.55694580078125	-5.0811767578125	-3.337860107421875	9.952696301269532	0.843956085205078	-0.09935936889648436	2.49481201171875	-4.512786865234375	-1.583099365234375	
113	0.452	0.0	0.0	0.0	0.0	0.006	0.003	0.006	0.006	9.916184725952148	0.37708676147460934	0.06584054565429687	2.18963623046875	-3.536224365234375	-0.518798828125	9.980229620361328	-0.2807201446533203	-0.008978256225585938	0.274658203125	-5.016326904296875	-2.79998779296875	9.991003527832031	0.18854338073730467	-0.16998831787109375	2.52532958984375	-4.810333251953125	-1.773834228515625	
114	0.456	0.0	0.0	0.0	0.0	0.006	0.003	0.003	0.003	9.71686743774414	0.19333178405761717	0.10175357055664062	4.077911376953125	-4.421234130859375	-0.980377197265625	9.654618194580078	0.38786066894531246	0.3908534210205078	0.77056884765625	-5.035400390625	-3.4332275390625	9.740809454345703	0.5811924530029297	0.009576806640625	2.23541259765625	-4.779815673828125	-2.407073974609375	
115	0.46	0.0	0.0	0.0	0.0	0.003	0.003	0.003	0.003	9.928754284667969	0.3321954803466797	0.04548983154296875	2.38800048828125	-3.459930419921875	-0.370025634765625	9.731831198120117	-0.20051438903808594	0.20290859069824219	0.202178955078125	-5.07354736328125	-2.651214599609375	10.001777435302733	0.15322890625	-0.17238251953125	2.613067626953125	-4.669189453125	-1.766204833984375	
116	0.464	0.0	0.0	0.0	0.0	0.003	0.006	0.006	0.006	9.734823950195311	0.10654197387695312	0.07422025146484375	4.055023193359375	-4.314422607421875	-0.949859619140625	9.63307037963867	0.41359833679199215	0.42975919799804685	0.560760498046875	-4.82940673828125	-3.51715087890625	9.7162688873291	0.535702621459961	0.047884033203124995	1.903533935546875	-4.398345947265625	-2.23541259765625	
117	0.468	0.0	0.0	0.0	0.0	0.006	0.003	0.006	0.006	9.950302099609374	0.3429693878173828	0.037708676147460936	3.23486328125	-3.27301025390625	-0.37384033203125	9.731232647705077	-0.23642741394042968	0.18614917907714842	0.415802001953125	-5.1727294921875	-2.964019775390625	9.822810861206055	0.3806780639648437	-0.012569558715820313	2.20489501953125	-4.741668701171875	-1.369476318359375	
118	0.47200000000000003	0.0	0.0	0.0	0.0	0.003	0.003	0.006	0.006	9.752780462646484	0.06284779357910156	0.07242460021972656	4.08935546875	-4.375457763671875	-0.843048095703125	9.6917283203125	0.11851298217773437	0.2262520568847656	0.545501708984375	-4.726409912109375	-3.688812255859375	9.715670336914062	0.5297171173095703	0.029927520751953124	2.3345947265625	-4.46319580078125	-2.307891845703125	
119	0.47600000000000003	0.0	0.0	0.0	0.0	0.006	0.003	0.006	0.006	9.892841259765625	0.3716998077392578	-0.1197100830078125	3.437042236328125	-4.314422607421875	-0.70953369140625	9.74200655517578	-0.26815058593749996	0.1927332336425781	0.263214111328125	-5.153656005859375	-3.07464599609375	9.826402163696288	0.28790274963378903	-0.028730419921875	2.323150634765625	-4.608154296875	-1.369476318359375	
120	0.48	0.0	0.0	0.0	0.0	0.006	0.003	0.006	0.003	9.764751470947266	-0.03172317199707031	0.07362170104980469	3.757476806640625	-4.35638427734375	-0.934600830078125	9.683348614501952	0.11133037719726561	0.23403321228027343	0.60272216796875	-4.711151123046875	-3.971099853515625	10.149020837402343	0.13467384338378904	-0.4147954376220703	2.765655517578125	-4.38690185546875	-1.88446044921875	
121	0.484	0.0	0.0	0.0	0.0	0.003	0.006	0.006	0.006	9.907206469726562	0.3321954803466797	-0.12210428466796874	3.849029541015625	-4.329681396484375	-0.514984130859375	9.767145672607422	0.10175357055664062	0.058657940673828124	0.244140625	-5.24139404296875	-2.582550048828125	9.821015209960937	0.3010708587646484	-0.002992752075195312	2.391815185546875	-4.726409912109375	-1.30462646484375	
122	0.488	0.0	0.0	0.0	0.0	0.006	0.006	0.006	0.003	9.662997900390625	-0.12569558715820311	-0.020350714111328123	-0.553131103515625	-2.643585205078125	-1.125335693359375	9.667187753295899	0.15861585998535155	0.2597708801269531	0.23651123046875	-4.73785400390625	-3.9215087890625	10.147225186157225	0.14125789794921875	-0.41359833679199215	2.960205078125	-4.60052490234375	-1.96075439453125	
123	0.492	0.0	0.0	0.0	0.0	0.006	0.003	0.006	0.006	9.904812268066406	0.2932897033691406	-0.11432312927246092	3.92913818359375	-4.505157470703125	-0.41961669921875	9.764751470947266	0.07122749938964844	0.06763619689941405	0.1068115234375	-5.229949951171875	-2.758026123046875	9.833584768676758	0.24839842224121092	-0.022744915771484374	1.983642578125	-4.69970703125	-1.224517822265625	
124	0.496	0.0	0.0	0.0	0.0	0.006	0.006	0.006	0.003	9.83837317199707	-0.17178396911621094	-0.051475335693359374	-0.804901123046875	-2.38037109375	-1.171112060546875	9.974244116210937	-0.3022679595947265	-0.07422025146484375	1.071929931640625	-4.962921142578125	-3.53240966796875	10.171167202758788	0.04129997863769531	-0.43155484924316406	2.95257568359375	-4.383087158203125	-1.86920166015625	
125	0.5	0.0	0.0	0.0	0.0	0.009000000000000001	0.003	0.003	0.006	9.910797772216796	0.2663549346923828	-0.09157821350097656	4.528045654296875	-4.886627197265625	-0.457763671875	9.770736975097655	0.07422025146484375	0.0652419952392578	0.1983642578125	-5.046844482421875	-2.81524658203125	9.97783541870117	0.7212532501220703	-0.1227028350830078	2.902984619140625	-4.608154296875	-0.93841552734375	
126	0.504	0.0	0.0	0.0	0.0	0.006	0.006	0.006	0.006	9.849745629882811	-0.14724340209960937	-0.0652419952392578	-1.010894775390625	-2.544403076171875	-1.255035400390625	9.958681805419921	-0.2699462371826172	-0.06404489440917968	0.949859619140625	-5.0506591796875	-3.391265869140625	10.174159954833984	0.03890577697753906	-0.44113165588378905	2.910614013671875	-4.241943359375	-2.040863037109375	
127	0.508	0.0	0.0	0.0	0.0	0.0	0.003	0.006	0.003	9.721655841064452	0.32620997619628905	0.26276363220214843	4.642486572265625	-4.69207763671875	-0.644683837890625	9.758765966796874	0.23882161560058593	0.4100070343017578	0.40435791015625	-5.37872314453125	-2.735137939453125	9.981426721191406	0.6542156036376953	-0.1562216583251953	3.215789794921875	-4.642486572265625	-0.919342041015625	
128	0.512	0.0	0.0	0.0	0.0	0.003	0.003	0.003	0.003	9.860519537353515	-0.14604630126953125	-0.07003039855957031	-1.4495849609375	-2.105712890625	-1.377105712890625	9.935936889648437	-0.20649989318847656	-0.04848258361816406	0.75531005859375	-4.69207763671875	-3.41033935546875	10.274117874145507	0.0053869537353515625	-0.49320554199218747	2.84576416015625	-4.5166015625	-1.689910888671875	
129	0.516	0.0	0.0	0.0	0.0	0.003	0.003	0.003	0.006	9.679757312011718	0.3489548919677734	0.2825157958984375	4.730224609375	-4.81414794921875	-0.843048095703125	9.767145672607422	0.1640028137207031	0.4177881896972656	0.54931640625	-5.36346435546875	-2.445220947265625	9.974842666625976	0.6637924102783203	-0.18255787658691405	2.872467041015625	-4.581451416015625	-0.850677490234375	
130	0.52	0.0	0.0	0.0	0.0	0.006	0.006	0.006	0.003	9.873687646484374	-0.14245499877929688	-0.07541735229492187	-1.8463134765625	-2.017974853515625	-1.461029052734375	10.083778842163085	-0.45489831542968745	-0.08379705810546874	1.2054443359375	-5.039215087890625	-3.337860107421875	10.28549033203125	0.020949264526367185	-0.49260699157714843	2.872467041015625	-4.993438720703125	-1.71661376953125	
131	0.524	0.0	0.0	0.0	0.0	0.003	0.006	0.006	0.006	9.631274728393555	0.33099837951660155	0.28012159423828126	4.581451416015625	-4.8675537109375	-0.51116943359375	9.770138424682617	0.08140285644531249	0.3896563201904297	0.469207763671875	-5.30242919921875	-2.3956298828125	9.892242709350585	0.8900444671630859	-0.047884033203124995	2.666473388671875	-4.5928955078125	-1.89208984375	
132	0.528	0.0	0.0	0.0	0.0	0.003	0.003	0.006	0.006	10.00955859069824	0.1322796417236328	0.08259995727539061	-1.529693603515625	-1.922607421875	-1.239776611328125	10.095151300048828	-0.2609679809570312	-0.12090718383789062	1.117706298828125	-5.25665283203125	-3.459930419921875	10.283096130371094	-0.051475335693359374	-0.5135562561035156	2.773284912109375	-4.85992431640625	-1.560211181640625	
133	0.532	0.0	0.0	0.0	0.0	0.003	0.003	0.006	4.533	9.581595043945311	0.28431144714355466	0.28790274963378903	4.741668701171875	-4.863739013671875	-0.92315673828125	9.796474642944336	-0.14724340209960937	0.37289690856933594	0.347137451171875	-5.07354736328125	-2.8228759765625	9.890447058105469	0.805050308227539	-0.05805939025878906	2.597808837890625	-4.93621826171875	-1.979827880859375	
134	0.536	0.0	0.0	0.0	0.0	4.524	4.593	4.587	4.548	10.005368737792969	0.19213468322753904	0.08738836059570312	-1.537322998046875	-1.77001953125	-1.40380859375	10.079588989257813	0.0	-0.11432312927246092	1.25885009765625	-4.955291748046875	-3.45611572265625	10.326191760253906	0.07362170104980469	-0.5997475158691405	2.67791748046875	-4.749298095703125	-1.56402587890625	
135	0.54	0.0	0.0	0.0	0.0	4.548	4.599	4.599	4.515	9.585784896850585	0.4016273284912109	0.1406593475341797	3.0364990234375	-3.84521484375	-1.117706298828125	9.623493572998047	0.06643909606933593	0.4016273284912109	0.80108642578125	-5.229949951171875	-3.15093994140625	9.897629663085937	0.5566518859863281	-0.029328970336914062	2.651214599609375	-4.57000732421875	-1.789093017578125	
136	0.544	0.0	0.0	0.0	0.0	4.551	4.596	4.599	4.503	10.053851321411132	0.5883750579833984	0.029328970336914062	-1.201629638671875	-1.926422119140625	-0.774383544921875	10.076596237182617	0.062249243164062495	-0.1466448516845703	1.155853271484375	-4.772186279296875	-3.173828125	9.938331091308592	0.3896563201904297	-0.12330138549804687	2.22015380859375	-4.8065185546875	-1.468658447265625	
137	0.548	0.0	0.0	0.0	0.0	4.554	4.59	4.596	4.524	9.658209497070311	-0.21727380065917967	0.19033903198242186	2.620697021484375	-3.814697265625	-1.201629638671875	9.637858782958984	0.07422025146484375	0.373495458984375	0.469207763671875	-5.16510009765625	-3.23486328125	9.905410818481444	0.49260699157714843	-0.07541735229492187	2.841949462890625	-4.95147705078125	-2.1209716796875	
138	0.552	0.0	0.0	0.0	0.0	4.545	4.599	4.599	4.5360000000000005	10.029310754394531	0.5309142181396485	-0.015562310791015624	-2.44140625	-1.47247314453125	-1.62506103515625	9.776123928833007	0.020949264526367185	0.13287819213867186	0.396728515625	-5.207061767578125	-3.162384033203125	9.983820922851562	0.5674257934570313	-0.16041151123046873	2.60162353515625	-4.734039306640625	-1.399993896484375	
139	0.556	0.0	0.0	0.0	0.0	4.545	4.599	4.599	4.539	9.73602105102539	-0.0987608184814453	0.16460136413574217	2.834320068359375	-3.833770751953125	-1.21307373046875	9.631274728393555	0.12988544006347655	0.3908534210205078	0.476837158203125	-4.894256591796875	-3.21197509765625	9.710881933593749	0.040701428222656245	0.08559270935058594	2.315521240234375	-4.58526611328125	-2.227783203125	
140	0.56	0.0	0.0	0.0	0.0	4.533	4.596	4.596	4.551	9.92755718383789	0.5704185455322265	-0.020350714111328123	6.221771240234375	-5.40924072265625	-0.492095947265625	9.769539874267577	-0.005985504150390624	0.15263035583496093	0.64849853515625	-5.023956298828125	-2.910614013671875	9.957484704589843	0.7032967376708984	-0.1406593475341797	2.44140625	-4.8980712890625	-1.56402587890625	
141	0.5640000000000001	0.0	0.0	0.0	0.0	4.551	4.599	4.602	4.53	9.734823950195311	0.04369418029785156	0.14604630126953125	1.911163330078125	-3.47137451171875	-1.110076904296875	9.580397943115234	0.04608838195800781	0.3537432952880859	0.6561279296875	-4.779815673828125	-3.4332275390625	9.6917283203125	0.010175357055664061	0.05087678527832031	2.34222412109375	-4.566192626953125	-2.040863037109375	
142	0.5680000000000001	0.0	0.0	0.0	0.0	4.545	4.599	4.602	4.5120000000000005	9.910199221801758	0.5249287139892578	-0.003591302490234375	6.046295166015625	-5.43975830078125	-0.598907470703125	9.757568865966796	-0.09756371765136718	0.13646949462890623	0.28228759765625	-5.13458251953125	-3.208160400390625	9.795277542114258	0.7260416534423828	0.006584054565429687	2.34222412109375	-4.673004150390625	-1.804351806640625	
143	0.5720000000000001	0.0	0.0	0.0	0.0	4.554	4.596	4.599	4.509	9.724050042724608	-0.011971008300781249	0.14784195251464843	1.010894775390625	-3.116607666015625	-1.35040283203125	9.51814869995117	0.1149216796875	0.3962403747558593	0.37384033203125	-4.8828125	-3.612518310546875	9.665990652465819	-0.002992752075195312	0.13108254089355467	2.094268798828125	-4.405975341796875	-1.9989013671875	
144	0.5760000000000001	0.0	0.0	0.0	0.0	4.548	4.59	4.599	4.533	9.910797772216796	0.5009866973876953	0.017357962036132813	6.2713623046875	-5.6915283203125	-0.37384033203125	9.727641345214844	-0.09157821350097656	0.15502455749511718	0.324249267578125	-5.096435546875	-3.021240234375	9.803058697509766	0.6631938598632812	0.04608838195800781	2.3040771484375	-4.726409912109375	-1.62506103515625	
145	0.58	0.0	0.0	0.0	0.0	4.542	4.599	4.602	4.542	9.93294413757324	0.07601590270996093	-0.003591302490234375	0.148773193359375	-2.735137939453125	-1.018524169921875	9.5384994140625	0.16819266662597654	0.4159925384521484	0.63323974609375	-4.7149658203125	-3.833770751953125	9.700108026123047	0.06584054565429687	0.105344873046875	2.948760986328125	-4.154205322265625	-2.81524658203125	
146	0.584	0.0	0.0	0.0	0.0	4.545	4.596	4.599	4.542	9.906009368896484	0.5422866760253906	0.06584054565429687	6.1492919921875	-5.466461181640625	-0.530242919921875	9.718064538574218	-0.08738836059570312	0.20709844360351562	0.31280517578125	-5.046844482421875	-3.116607666015625	9.791087689208984	0.6296750366210937	0.06643909606933593	2.41851806640625	-4.89044189453125	-2.0904541015625	
147	0.588	0.0	0.0	0.0	0.0	4.527	4.599	4.593	4.551	9.936535440063476	0.09696516723632811	0.008978256225585938	0.415802001953125	-2.796173095703125	-0.980377197265625	9.865307940673828	0.07003039855957031	0.07541735229492187	0.499725341796875	-4.72259521484375	-3.28826904296875	10.192116467285155	0.39743747558593745	-0.4955997436523437	2.986907958984375	-4.482269287109375	-0.995635986328125	
148	0.592	0.0	0.0	0.0	0.0	4.551	4.599	4.602	4.521	9.90122096557617	0.5105635040283203	0.12808978881835936	6.1798095703125	-5.31005859375	-0.255584716796875	9.707290631103515	-0.04967968444824218	0.22864625854492185	0.331878662109375	-5.157470703125	-3.360748291015625	9.812036953735351	0.5853823059082031	0.0526724365234375	2.384185791015625	-4.852294921875	-2.1514892578125	
149	0.596	0.0	0.0	0.0	0.0	4.554	4.599	4.602	4.509	9.90122096557617	0.076614453125	-0.011372457885742187	0.57220458984375	-2.887725830078125	-0.80108642578125	9.849745629882811	0.03890577697753906	0.08559270935058594	0.629425048828125	-4.993438720703125	-3.16619873046875	10.182539660644531	0.4387374542236328	-0.46806642456054687	3.131866455078125	-4.38690185546875	-1.125335693359375	
150	0.6	0.0	0.0	0.0	0.0	4.548	4.593	4.599	4.521	9.849745629882811	0.032920272827148434	0.17597382202148437	5.584716796875	-5.580902099609375	-0.339508056640625	9.859322436523437	0.09636661682128905	0.229843359375	0.54931640625	-5.130767822265625	-2.925872802734375	10.000580334472655	0.33518823242187495	-0.2549824768066406	3.078460693359375	-4.41741943359375	-1.70135498046875	
151	0.604	0.0	0.0	0.0	0.0	4.551	4.59	4.599	4.533	9.93414123840332	0.11731588134765625	-0.005985504150390624	0.87738037109375	-2.99835205078125	-0.823974609375	9.896432562255859	0.006584054565429687	0.051475335693359374	0.560760498046875	-4.619598388671875	-3.276824951171875	10.150217938232421	0.536899722290039	-0.43514615173339843	2.986907958984375	-4.322052001953125	-1.07574462890625	
152	0.608	0.0	0.0	0.0	0.0	4.545	4.602	4.599	4.542	9.865906491088866	0.06823474731445311	0.1592144104003906	5.523681640625	-5.34820556640625	-0.217437744140625	9.905410818481444	0.1771709228515625	0.18136077575683593	0.347137451171875	-5.1116943359375	-2.925872802734375	10.066420880126952	0.3010708587646484	-0.258573779296875	2.788543701171875	-4.5928955078125	-1.728057861328125	
153	0.612	0.0	0.0	0.0	0.0	4.539	4.596	4.599	4.548	10.08018753967285	0.1592144104003906	-0.11432312927246092	-1.129150390625	-1.7547607421875	-0.873565673828125	9.829394915771484	-0.04848258361816406	0.14245499877929688	0.789642333984375	-5.3253173828125	-3.12042236328125	10.287884533691406	0.6691793640136718	-0.5225345123291015	2.95257568359375	-4.6844482421875	-1.377105712890625	
154	0.616	0.0	0.0	0.0	0.0	4.548	4.599	4.59	4.539	9.815029705810547	0.0909796630859375	0.18136077575683593	4.9591064453125	-5.138397216796875	-0.537872314453125	9.861716638183593	0.17896657409667968	0.18435352783203124	0.461578369140625	-5.28717041015625	-2.681732177734375	10.020931048583984	0.2663549346923828	-0.2567781280517578	3.07464599609375	-4.669189453125	-1.750946044921875	
155	0.62	0.0	0.0	0.0	0.0	4.551	4.602	4.602	4.515	10.09395419921875	0.11372457885742186	-0.1693897674560547	-1.28936767578125	-2.0751953125	-1.09100341796875	10.157999093627929	-0.13467384338378904	-0.22445640563964842	0.762939453125	-4.978179931640625	-2.92205810546875	10.299256991577147	0.6739677673339843	-0.5458779785156249	3.009796142578125	-4.78363037109375	-1.3275146484375	
156	0.624	0.0	0.0	0.0	0.0	4.554	4.596	4.599	4.509	9.854534033203125	0.0143652099609375	0.1322796417236328	4.2877197265625	-4.69970703125	-0.270843505859375	9.889249957275391	0.1083376251220703	0.14185644836425781	0.885009765625	-4.96673583984375	-2.826690673828125	10.036493359375	0.23702596435546874	-0.2855085479736328	2.712249755859375	-4.604339599609375	-1.48773193359375	
157	0.628	0.0	0.0	0.0	0.0	4.551	4.593	4.599	4.53	10.036493359375	0.05746083984375	-0.10175357055664062	-0.48828125	-2.330780029296875	-1.15203857421875	10.120290417480469	-0.1197100830078125	-0.14484920043945312	0.4119873046875	-4.962921142578125	-2.98309326171875	10.279504827880858	0.5943605621337891	-0.4914098907470703	2.941131591796875	-4.573822021484375	-1.5106201171875	
158	0.632	0.0	0.0	0.0	0.0	4.548	4.602	4.602	4.539	9.618106619262695	0.28311434631347654	0.3226186737060547	1.445770263671875	-3.31878662109375	-1.033782958984375	9.63307037963867	0.25737667846679685	0.3280056274414062	0.682830810546875	-5.382537841796875	-3.017425537109375	9.872490545654296	0.2603694305419922	0.11791443176269531	2.655029296875	-4.711151123046875	-1.697540283203125	
159	0.636	0.0	0.0	0.0	0.0	4.548	4.599	4.599	4.539	10.094552749633788	0.1466448516845703	-0.1580173095703125	0.392913818359375	-2.803802490234375	-0.946044921875	10.184933862304687	-0.10235212097167969	-0.2501940734863281	0.774383544921875	-4.95147705078125	-3.063201904296875	10.333374365234375	0.55545478515625	-0.5183446594238281	2.956390380859375	-4.650115966796875	-1.36566162109375	
160	0.64	0.0	0.0	0.0	0.0	4.5360000000000005	4.599	4.596	4.551	9.679757312011718	0.17597382202148437	0.2561795776367187	0.736236572265625	-2.960205078125	-1.125335693359375	9.609128363037108	0.2705447875976562	0.32620997619628905	0.637054443359375	-5.21087646484375	-3.02886962890625	9.847351428222655	0.2747346405029297	0.12689268798828124	2.780914306640625	-4.8370361328125	-1.811981201171875	
161	0.644	0.0	0.0	0.0	0.0	4.551	4.599	4.602	4.53	10.052055670166014	0.18555062866210936	-0.10953472595214843	4.486083984375	-4.53948974609375	-0.92315673828125	9.767145672607422	-0.10893617553710937	0.1406593475341797	0.8392333984375	-5.153656005859375	-3.223419189453125	9.925162982177733	0.46148236999511716	-0.08020575561523437	2.132415771484375	-4.779815673828125	-1.857757568359375	
162	0.648	0.0	0.0	0.0	0.0	4.548	4.599	4.602	0.006	9.685742816162108	0.09756371765136718	0.2555810272216797	-0.2899169921875	-2.4871826171875	-1.3885498046875	9.677363110351562	0.21128829650878905	0.2657563842773437	0.6561279296875	-5.035400390625	-2.8839111328125	9.885658654785155	0.2765302917480469	0.05386953735351562	3.040313720703125	-4.92095947265625	-1.720428466796875	
163	0.652	0.0	0.0	0.0	0.0	0.003	0.003	0.006	0.006	9.9215716796875	0.48243163452148435	0.07541735229492187	5.47027587890625	-4.9591064453125	-0.54168701171875	9.80665	-0.11252747802734374	0.15023615417480468	0.55694580078125	-4.99725341796875	-3.0975341796875	10.008361489868163	0.45010991210937495	-0.1801636749267578	2.25830078125	-4.90570068359375	-2.0751953125	
164	0.656	0.0	0.0	0.0	0.0	-0.006	0.003	0.003	0.003	9.663596450805663	0.14245499877929688	0.27892449340820313	1.1444091796875	-2.964019775390625	-0.98419189453125	9.565434182739256	0.06284779357910156	0.354341845703125	0.89263916015625	-5.035400390625	-3.74603271484375	9.699509475708007	0.3028665100097656	0.02633621826171875	2.43377685546875	-4.749298095703125	-1.750946044921875	
165	0.66	0.0	0.0	0.0	0.0	0.003	0.006	0.006	0.006	9.9078050201416	0.4165910888671875	0.07841010437011718	3.66973876953125	-4.146575927734375	-0.957489013671875	9.801861596679688	-0.076614453125	0.12330138549804687	0.637054443359375	-5.11932373046875	-3.139495849609375	9.961076007080077	0.4878185882568359	-0.17836802368164062	2.34222412109375	-4.974365234375	-2.0599365234375	
166	0.664	0.0	0.0	0.0	0.0	0.003	0.003	0.006	0.003	9.849745629882811	0.23642741394042968	0.016759411621093748	2.685546875	-3.551483154296875	-0.89263916015625	9.63307037963867	0.08439560852050781	0.2855085479736328	0.67138671875	-4.932403564453125	-3.734588623046875	9.775525378417969	0.3327940307617187	-0.06464344482421874	2.38800048828125	-4.558563232421875	-1.834869384765625	
167	0.668	0.0	0.0	0.0	0.0	0.003	0.006	0.006	0.006	9.81263550415039	0.3220201232910156	0.16041151123046873	3.7841796875	-4.29534912109375	-0.732421875	9.686939916992188	-0.10953472595214843	0.3220201232910156	0.518798828125	-5.115509033203125	-3.0364990234375	9.983820922851562	0.42317514343261714	-0.16819266662597654	2.696990966796875	-4.650115966796875	-1.7242431640625	
168	0.672	0.0	0.0	0.0	0.0	0.006	0.006	0.006	0.006	9.87727894897461	0.23523031311035156	0.06584054565429687	2.89154052734375	-3.925323486328125	-0.7476806640625	9.573215338134766	0.15023615417480468	0.33399113159179683	0.93841552734375	-5.02777099609375	-3.5247802734375	9.670180505371093	0.3381809844970703	0.009576806640625	2.124786376953125	-4.512786865234375	-1.819610595703125	
169	0.676	0.0	0.0	0.0	0.0	0.006	0.006	0.006	0.003	9.865307940673828	0.36750995483398435	0.06045359191894531	6.27899169921875	-5.69915771484375	-0.42724609375	9.692925421142577	-0.09217676391601562	0.26276363220214843	0.20599365234375	-4.833221435546875	-3.021240234375	9.816825357055663	0.34656069030761716	-0.009576806640625	2.407073974609375	-4.940032958984375	-1.73187255859375	
170	0.68	0.0	0.0	0.0	0.0	0.009000000000000001	0.006	0.003	0.003	9.893439810180663	0.1879448303222656	0.011971008300781249	0.942230224609375	-2.819061279296875	-1.201629638671875	9.84555577697754	-0.12689268798828124	0.05087678527832031	0.63323974609375	-4.917144775390625	-3.437042236328125	9.76235726928711	0.2902969512939453	-0.047884033203124995	2.532958984375	-4.61578369140625	-1.7547607421875	
171	0.684	0.0	0.0	0.0	0.0	0.003	0.006	0.003	0.006	9.888052856445311	-0.2597708801269531	-0.047884033203124995	4.405975341796875	-4.688262939453125	-0.286102294921875	9.594164602661133	-0.1227028350830078	0.4112041351318359	0.537872314453125	-5.02777099609375	-3.055572509765625	9.787496386718749	0.28790274963378903	-0.012569558715820313	2.361297607421875	-4.703521728515625	-1.789093017578125	
172	0.6880000000000001	0.0	0.0	0.0	0.0	0.006	0.006	0.006	0.003	9.907206469726562	0.33758243408203126	0.0652419952392578	3.917694091796875	-4.23431396484375	-0.18310546875	9.817423907470703	-0.09038111267089843	0.023343466186523436	0.457763671875	-4.8828125	-3.37982177734375	10.149619387817383	0.5153519073486328	-0.39863457641601563	2.956390380859375	-4.276275634765625	-1.293182373046875	
173	0.6920000000000001	0.0	0.0	0.0	0.0	0.006	0.006	0.006	0.006	9.849745629882811	-0.2424129180908203	-0.05087678527832031	2.391815185546875	-3.68499755859375	-0.667572021484375	9.720458740234374	-0.23822306518554687	0.24480711975097655	0.45013427734375	-5.096435546875	-2.758026123046875	9.878476049804688	0.22385785522460935	-0.08918401184082031	2.490997314453125	-4.673004150390625	-1.79290771484375	
174	0.6960000000000001	0.0	0.0	0.0	0.0	0.006	0.006	0.003	0.006	9.982623822021484	0.27174188842773433	0.018555062866210937	3.39508056640625	-4.15802001953125	-0.51116943359375	9.79946739501953	-0.07122749938964844	0.1322796417236328	0.4730224609375	-4.512786865234375	-3.39508056640625	10.162787496948242	0.46507367248535153	-0.4273649963378906	2.918243408203125	-4.40216064453125	-1.361846923828125	
175	0.7000000000000001	0.0	0.0	0.0	0.0	0.003	0.003	0.006	0.003	9.826402163696288	-0.28012159423828126	-0.0005985504150390625	4.425048828125	-4.78363037109375	-0.301361083984375	9.872490545654296	0.028131869506835935	0.06883329772949218	0.22125244140625	-4.9285888671875	-2.544403076171875	9.94072529296875	0.27353753967285155	-0.12868833923339842	3.200531005859375	-5.0201416015625	-1.430511474609375	
176	0.704	0.0	0.0	0.0	0.0	0.003	0.003	0.006	0.003	10.014346994018554	0.12689268798828124	-0.22026655273437498	1.476287841796875	-3.292083740234375	-0.942230224609375	9.912593423461914	-0.13587094421386717	-0.061650692749023434	0.87738037109375	-4.978179931640625	-3.437042236328125	10.198101971435547	0.4752490295410156	-0.44053310546874996	2.941131591796875	-4.215240478515625	-1.19781494140625	
177	0.708	0.0	0.0	0.0	0.0	0.003	0.003	0.003	0.0	9.864709390258788	-0.37828386230468747	-0.010175357055664061	1.338958740234375	-3.4027099609375	-1.010894775390625	9.84555577697754	0.0383072265625	0.11791443176269531	0.38909912109375	-4.8065185546875	-2.79998779296875	10.096348400878906	0.20290859069824219	-0.22445640563964842	2.99835205078125	-4.7149658203125	-1.53350830078125	
178	0.712	0.0	0.0	0.0	0.0	0.009000000000000001	0.006	0.003	0.003	10.025719451904296	-0.0909796630859375	-0.1879448303222656	3.643035888671875	-4.421234130859375	-0.23651123046875	9.97184991455078	-0.17896657409667968	-0.09457096557617187	0.86212158203125	-5.14984130859375	-3.108978271484375	10.091559997558592	0.5207388610839844	-0.38307226562499996	2.899169921875	-4.764556884765625	-1.4801025390625	
179	0.716	0.0	0.0	0.0	0.0	0.006	0.006	0.006	0.006	9.509768994140625	0.5027823486328125	0.42796354675292964	-0.2593994140625	-2.536773681640625	-0.99945068359375	9.812036953735351	0.013766659545898436	0.06464344482421874	0.5950927734375	-5.157470703125	-2.513885498046875	9.974842666625976	0.3130418670654297	-0.12449848632812499	2.99072265625	-4.638671875	-1.50299072265625	
180	0.72	0.0	0.0	0.0	0.0	0.003	0.006	0.006	0.006	9.995791931152343	0.12808978881835936	-0.24959552307128904	2.185821533203125	-3.39508056640625	-0.972747802734375	10.04247886352539	-0.08559270935058594	-0.12689268798828124	1.12152099609375	-5.218505859375	-3.173828125	10.372878692626953	0.4447229583740234	-0.5506663818359374	3.086090087890625	-4.63104248046875	-1.59454345703125	
181	0.724	0.0	0.0	0.0	0.0	0.006	0.006	0.003	0.003	9.586981997680663	0.1867477294921875	0.4836287353515625	-1.178741455078125	-1.86920166015625	-0.774383544921875	9.605537060546874	0.23702596435546874	0.33698388366699217	1.010894775390625	-4.92095947265625	-3.082275390625	9.956287603759765	0.3220201232910156	-0.09457096557617187	2.941131591796875	-4.73785400390625	-1.445770263671875	
182	0.728	0.0	0.0	0.0	0.0	0.006	0.003	0.003	0.006	10.126275921630858	-0.08020575561523437	-0.28490999755859375	2.96783447265625	-4.215240478515625	-0.5645751953125	9.906009368896484	-0.013766659545898436	-0.02454056701660156	1.010894775390625	-5.168914794921875	-2.994537353515625	10.236409197998046	0.5225345123291015	-0.40761283264160153	2.9754638671875	-4.573822021484375	-1.445770263671875	
183	0.732	0.0	0.0	0.0	0.0	0.009000000000000001	0.003	0.003	0.003	9.529521157836914	0.565031591796875	0.41898529052734373	1.77764892578125	-3.452301025390625	-0.400543212890625	9.71028338317871	0.2914940521240234	0.3112462158203125	1.31988525390625	-5.06591796875	-3.04412841796875	10.00417163696289	0.3699041564941406	-0.03411737365722656	2.75421142578125	-4.78363037109375	-1.911163330078125	
184	0.736	0.0	0.0	0.0	0.0	0.003	0.006	0.006	0.003	9.764152920532226	0.3705027069091797	0.22086510314941404	1.438140869140625	-3.31878662109375	-1.758575439453125	9.85632968444824	-0.1274912384033203	0.26276363220214843	0.659942626953125	-5.4168701171875	-3.528594970703125	10.249577307128906	0.44592005920410155	-0.36272155151367186	2.666473388671875	-4.299163818359375	-1.40380859375	
185	0.74	0.0	0.0	0.0	0.0	0.009000000000000001	0.006	0.006	0.003	9.57022258605957	0.5979518646240234	0.6332663391113281	-3.009796142578125	-0.8697509765625	-1.934051513671875	9.539097964477538	0.33518823242187495	0.49200844116210934	0.99945068359375	-5.1422119140625	-3.27301025390625	9.835380419921874	0.41539398803710936	0.08020575561523437	2.429962158203125	-4.69207763671875	-1.8157958984375	
186	0.744	0.0	0.0	0.0	0.0	0.003	0.006	0.003	0.003	9.980828170776366	0.17178396911621094	0.08140285644531249	8.06427001953125	-6.34002685546875	-0.049591064453125	9.879673150634765	-0.029927520751953124	0.2705447875976562	0.31280517578125	-5.130767822265625	-3.284454345703125	10.01015714111328	0.4830301849365234	-0.33518823242187495	2.635955810546875	-4.7607421875	-1.773834228515625	
187	0.748	0.0	0.0	0.0	0.0	0.006	0.006	0.003	0.003	9.628281976318359	0.5494692810058593	0.5440823272705078	1.40380859375	-2.933502197265625	-1.186370849609375	9.76894132385254	0.06404489440917968	0.18136077575683593	0.545501708984375	-4.7760009765625	-3.398895263671875	9.970054263305663	0.2885013000488281	0.08080430603027343	2.590179443359375	-4.57000732421875	-1.712799072265625	
188	0.752	0.0	0.0	0.0	0.0	0.003	0.006	0.006	0.006	9.636661682128906	0.8086416107177734	0.28431144714355466	4.791259765625	-4.5318603515625	-1.323699951171875	9.770736975097655	-0.0909796630859375	0.4100070343017578	0.3662109375	-5.05828857421875	-3.53240966796875	9.922768780517577	0.48183308410644526	-0.3172317199707031	2.590179443359375	-4.8370361328125	-1.918792724609375	
189	0.756	0.0	0.0	0.0	0.0	0.003	0.006	0.003	0.003	10.01015714111328	0.1466448516845703	-0.2292448089599609	-0.247955322265625	-2.346038818359375	-1.861572265625	9.712079034423828	0.24061726684570311	0.31004911499023435	0.38909912109375	-4.772186279296875	-3.19671630859375	9.874884747314452	0.4207809417724609	0.12210428466796874	2.590179443359375	-4.66156005859375	-1.64031982421875	
190	0.76	0.0	0.0	0.0	0.0	0.009000000000000001	0.006	0.003	0.006	10.040084661865233	0.027533319091796873	-0.028131869506835935	4.344940185546875	-4.314422607421875	-1.312255859375	9.795277542114258	-0.19632453613281248	0.03232172241210937	-0.35858154296875	-4.8828125	-2.689361572265625	9.980229620361328	0.3962403747558593	-0.20290859069824219	2.201080322265625	-4.64630126953125	-1.64794921875	
191	0.764	0.0	0.0	0.0	0.0	0.003	0.006	0.006	0.003	10.067617980957031	0.00718260498046875	-0.4225765930175781	6.511688232421875	-5.3253173828125	0.244140625	9.695319622802733	0.14305354919433594	0.36391865234375	-0.05340576171875	-4.627227783203125	-3.19671630859375	9.740210903930663	0.2902969512939453	-0.028131869506835935	2.414703369140625	-4.58526611328125	-1.861572265625	
192	0.768	0.0	0.0	0.0	0.0	0.003	0.003	0.006	0.003	9.509170443725585	0.0652419952392578	-0.06404489440917968	3.65447998046875	-4.543304443359375	-0.469207763671875	9.706093530273437	-0.08858546142578125	0.020949264526367185	0.110626220703125	-5.077362060546875	-2.95257568359375	9.80665	0.5315127685546874	-0.19632453613281248	2.567291259765625	-5.199432373046875	-1.9378662109375	
193	0.772	0.0	0.0	0.0	0.0	0.006	0.003	0.006	0.006	9.811438403320311	0.411802685546875	-0.35613749694824215	1.02996826171875	-3.299713134765625	-1.54876708984375	9.819818109130859	0.04369418029785156	0.022146365356445312	0.514984130859375	-5.466461181640625	-3.124237060546875	9.758167416381836	0.3435679382324219	-0.030526071166992186	2.23541259765625	-4.5318603515625	-1.766204833984375	
194	0.776	0.0	0.0	0.0	0.0	0.006	0.006	0.003	0.009000000000000001	9.879673150634765	-0.48542438659667964	-0.2759317413330078	-0.621795654296875	-3.009796142578125	-1.522064208984375	9.759364517211914	-0.06284779357910156	-0.08020575561523437	0.06103515625	-5.2642822265625	-3.055572509765625	9.907206469726562	0.36391865234375	-0.0053869537353515625	2.567291259765625	-4.70733642578125	-1.7242431640625	
195	0.78	0.0	0.0	0.0	0.0	0.003	0.006	0.006	0.009000000000000001	9.955090502929687	-0.2316390106201172	-0.3076549133300781	-0.00762939453125	-2.78472900390625	-1.2969970703125	9.74200655517578	0.04249707946777344	-0.01975216369628906	0.782012939453125	-5.04302978515625	-3.173828125	9.654618194580078	0.38666356811523434	0.09636661682128905	2.34222412109375	-4.730224609375	-1.842498779296875	
196	0.784	0.0	0.0	0.0	0.0	0.006	0.006	0.006	0.003	9.771934075927733	-0.18255787658691405	0.03411737365722656	3.185272216796875	-4.695892333984375	-0.003814697265625	9.718064538574218	0.0053869537353515625	0.040701428222656245	1.16729736328125	-5.580902099609375	-2.780914306640625	9.78629928588867	0.4207809417724609	0.1149216796875	2.41851806640625	-4.749298095703125	-1.789093017578125	
197	0.788	0.0	0.0	0.0	0.0	0.006	0.006	0.006	0.003	9.878476049804688	0.3477577911376953	0.1292868896484375	1.3580322265625	-3.28826904296875	-0.74005126953125	9.80724855041504	-0.059256491088867186	0.004189852905273437	0.850677490234375	-4.962921142578125	-3.60870361328125	10.321403356933594	0.40222587890625	-0.4171896392822265	2.75421142578125	-4.33349609375	-1.42669677734375	
198	0.792	0.0	0.0	0.0	0.0	0.006	0.003	0.006	0.006	9.753379013061522	-0.0526724365234375	0.017956512451171875	0.118255615234375	-3.208160400390625	-1.38092041015625	9.737816702270507	0.07003039855957031	0.3010708587646484	0.99945068359375	-4.8980712890625	-3.444671630859375	9.776722479248047	0.4339490509033203	0.0652419952392578	2.758026123046875	-4.741668701171875	-1.949310302734375	
199	0.796	0.0	0.0	0.0	0.0	0.006	0.003	0.006	0.006	9.950302099609374	0.2885013000488281	0.1406593475341797	2.918243408203125	-3.864288330078125	-0.514984130859375	9.733626849365233	0.008978256225585938	0.15682020874023436	0.659942626953125	-4.81414794921875	-3.2958984375	10.120290417480469	0.5452794281005859	-0.3752911102294922	2.880096435546875	-4.230499267578125	-1.06048583984375	
200	0.8	0.0	0.0	0.0	0.0	0.003	0.006	0.003	0.003	10.015544094848632	-0.11731588134765625	-0.08439560852050781	5.268096923828125	-4.87518310546875	-0.11444091796875	9.882067352294921	-0.0430956298828125	0.15023615417480468	0.614166259765625	-5.123138427734375	-3.177642822265625	10.017938296508788	0.2651578338623047	-0.2262520568847656	2.933502197265625	-4.505157470703125	-1.1444091796875	
201	0.804	0.0	0.0	0.0	0.0	0.003	0.006	0.006	0.006	9.860519537353515	0.2855085479736328	0.07900865478515624	4.276275634765625	-4.3792724609375	-0.270843505859375	9.97783541870117	-0.03890577697753906	-0.010773907470703125	0.8087158203125	-4.8828125	-3.002166748046875	10.216058483886718	0.4423287567138672	-0.3872621185302734	2.87628173828125	-4.138946533203125	-1.220703125	
202	0.808	0.0	0.0	0.0	0.0	0.006	0.006	0.006	0.003	9.639055883789062	0.3752911102294922	0.421978042602539	1.47247314453125	-3.50189208984375	-1.25885009765625	9.744400756835937	-0.013168109130859374	0.18435352783203124	0.598907470703125	-5.31005859375	-2.986907958984375	9.99160207824707	0.3950432739257812	-0.09756371765136718	2.887725830078125	-4.8675537109375	-1.514434814453125	
203	0.812	0.0	0.0	0.0	0.0	0.003	0.006	0.006	0.006	9.962273107910155	0.06404489440917968	-0.07841010437011718	0.60272216796875	-2.87628173828125	-0.823974609375	10.026916552734374	0.06643909606933593	-0.12569558715820311	1.033782958984375	-4.98199462890625	-2.87628173828125	10.270526571655273	0.45968671875	-0.5087678527832031	3.093719482421875	-4.497528076171875	-1.0528564453125	
204	0.8160000000000001	0.0	0.0	0.0	0.0	0.006	0.006	0.006	0.006	9.726444244384766	0.28431144714355466	0.37828386230468747	3.39508056640625	-4.18853759765625	-0.396728515625	9.741408004760741	0.015562310791015624	0.3687070556640625	0.774383544921875	-4.974365234375	-2.9449462890625	10.191517916870117	0.30705636291503907	-0.23582886352539062	2.86865234375	-4.596710205078125	-1.567840576171875	
205	0.8200000000000001	0.0	0.0	0.0	0.0	0.003	0.006	0.006	0.006	9.892841259765625	0.42497079467773435	0.09995791931152344	0.125885009765625	-2.7008056640625	-1.40380859375	9.918578927612304	0.08798691101074219	0.027533319091796873	0.9307861328125	-4.87518310546875	-2.99835205078125	10.152612139892577	0.4381389038085937	-0.38367081604003905	2.7313232421875	-4.566192626953125	-1.506805419921875	
206	0.8240000000000001	0.0	0.0	0.0	0.0	0.003	0.003	0.006	0.006	9.586981997680663	0.5793968017578125	0.5333084197998047	3.39508056640625	-4.177093505859375	-0.766754150390625	9.654618194580078	0.06643909606933593	0.469862075805664	0.713348388671875	-4.913330078125	-3.025054931640625	10.059238275146484	0.4082113830566406	-0.2280477081298828	2.9144287109375	-4.985809326171875	-1.316070556640625	
207	0.8280000000000001	0.0	0.0	0.0	0.0	0.006	0.006	0.006	0.003	10.095749850463866	0.28311434631347654	-0.10235212097167969	-0.89263916015625	-2.254486083984375	-1.461029052734375	10.05504842224121	0.040102877807617184	-0.12449848632812499	0.732421875	-5.084991455078125	-3.3111572265625	10.273519323730468	0.3842693664550781	-0.5590460876464843	2.994537353515625	-4.87518310546875	-1.575469970703125	
208	0.8320000000000001	0.0	0.0	0.0	0.0	0.003	0.006	0.003	0.006	9.67137760620117	0.412401235961914	0.40282442932128903	4.100799560546875	-4.695892333984375	-0.98419189453125	9.665392102050781	0.04189852905273437	0.5428852264404297	0.80108642578125	-4.825592041015625	-3.0670166015625	9.811438403320311	0.28490999755859375	0.03232172241210937	2.475738525390625	-4.53948974609375	-1.819610595703125	
209	0.836	0.0	0.0	0.0	0.0	0.006	0.003	0.006	0.003	9.95987890625	0.277727392578125	0.05746083984375	0.476837158203125	-2.887725830078125	-1.007080078125	9.858125335693359	0.086191259765625	0.03411737365722656	0.934600830078125	-5.001068115234375	-3.39508056640625	10.097545501708984	0.4560954162597656	-0.3764882110595703	2.925872802734375	-4.680633544921875	-1.312255859375	
210	0.84	0.0	0.0	0.0	0.0	0.009000000000000001	0.006	0.003	0.006	9.846154327392577	-0.1466448516845703	-0.040102877807617184	2.727508544921875	-4.058837890625	-1.02996826171875	9.655815295410155	-0.07721300354003906	0.34177228698730466	0.499725341796875	-5.18035888671875	-3.509521484375	9.82460651245117	0.229843359375	0.05087678527832031	2.429962158203125	-4.795074462890625	-1.941680908203125	
211	0.844	0.0	0.0	0.0	0.0	0.003	0.006	0.003	0.003	10.002974536132811	0.3716998077392578	0.015562310791015624	-0.61798095703125	-2.170562744140625	-1.163482666015625	10.005368737792969	-0.0526724365234375	-0.07422025146484375	0.705718994140625	-5.023956298828125	-3.27301025390625	9.974244116210937	0.44891281127929683	-0.18734627990722655	2.49481201171875	-4.940032958984375	-1.827239990234375	
212	0.848	0.0	0.0	0.0	0.0	0.006	0.006	0.003	0.006	9.804255798339844	-0.04908113403320312	0.05386953735351562	3.429412841796875	-4.245758056640625	-1.2054443359375	9.55645592651367	0.10474632263183593	0.44891281127929683	0.3509521484375	-4.67681884765625	-3.53240966796875	9.707290631103515	0.2950853546142578	0.14724340209960937	2.559661865234375	-4.634857177734375	-1.956939697265625	
213	0.852	0.0	0.0	0.0	0.0	0.003	0.006	0.003	0.006	9.96586441040039	0.47884033203125	0.11432312927246092	5.146026611328125	-5.001068115234375	-0.225067138671875	9.962273107910155	-0.01915361328125	0.09337386474609374	0.2593994140625	-4.95147705078125	-2.841949462890625	9.880271701049804	0.5680243438720702	-0.11192892761230468	2.315521240234375	-5.0506591796875	-1.93023681640625	
214	0.856	0.0	0.0	0.0	0.0	0.006	0.006	0.006	0.003	9.849147079467773	-0.06883329772949218	-0.06284779357910156	3.51715087890625	-4.37164306640625	-1.087188720703125	9.651026892089844	0.086191259765625	0.4165910888671875	0.392913818359375	-5.168914794921875	-3.54766845703125	9.874286196899414	0.13108254089355467	0.06943184814453125	2.5177001953125	-4.5928955078125	-2.185821533203125	
215	0.86	0.0	0.0	0.0	0.0	0.003	0.006	0.006	0.003	9.944316595458984	0.40402153015136716	-0.08678981018066406	4.940032958984375	-5.062103271484375	-0.614166259765625	9.734823950195311	-0.0909796630859375	0.10175357055664062	0.263214111328125	-5.084991455078125	-2.918243408203125	9.86351228942871	0.6177040283203125	-0.1292868896484375	2.58636474609375	-4.63104248046875	-1.861572265625	
216	0.864	0.0	0.0	0.0	0.0	0.003	0.003	0.003	0.003	9.78031378173828	0.04189852905273437	0.05566518859863281	2.838134765625	-3.864288330078125	-1.186370849609375	9.516951599121093	0.1771709228515625	0.5716156463623047	0.06866455078125	-4.6539306640625	-3.33404541015625	9.76116016845703	0.19333178405761717	-0.07900865478515624	2.6092529296875	-4.69970703125	-1.766204833984375	
217	0.868	0.0	0.0	0.0	0.0	0.006	0.003	0.006	0.003	10.027515103149414	0.37768531188964843	-0.10115502014160156	6.008148193359375	-5.47027587890625	-0.43487548828125	9.810839852905273	-0.15502455749511718	0.062249243164062495	0.152587890625	-5.06591796875	-2.819061279296875	9.995791931152343	0.5835866546630859	-0.30047230834960936	2.460479736328125	-4.8828125	-1.827239990234375	
218	0.872	0.0	0.0	0.0	0.0	0.006	0.003	4.581	4.5360000000000005	9.880870251464843	-0.16519991455078123	0.040701428222656245	1.5716552734375	-3.16619873046875	-0.66375732421875	9.668983404541015	-0.010773907470703125	0.20829554443359374	0.5340576171875	-4.817962646484375	-3.582000732421875	9.855731134033203	0.09995791931152344	-0.17238251953125	2.838134765625	-4.41741943359375	-1.678466796875	
219	0.876	0.0	0.0	0.0	0.0	4.542	4.596	4.596	4.539	9.962871658325195	0.5811924530029297	-0.0143652099609375	5.4779052734375	-5.0048828125	-0.537872314453125	9.743203656005859	-0.037110125732421874	0.1514332550048828	0.14495849609375	-4.825592041015625	-2.834320068359375	9.832986218261718	0.6153098266601562	0.12150573425292968	2.7923583984375	-4.33349609375	-1.636505126953125	
220	0.88	0.0	0.0	0.0	0.0	4.533	4.596	4.593	4.551	9.913790524291992	-0.14963760375976562	-0.02693476867675781	0.972747802734375	-2.964019775390625	-0.823974609375	9.624092123413085	-0.007781155395507812	0.2902969512939453	0.072479248046875	-4.917144775390625	-3.47137451171875	9.950302099609374	0.1640028137207031	-0.3387795349121094	2.742767333984375	-4.505157470703125	-1.59454345703125	
221	0.884	0.0	0.0	0.0	0.0	4.551	4.599	4.602	4.518	9.990404977416992	0.4746504791259765	-0.0143652099609375	5.10406494140625	-5.05828857421875	-0.63323974609375	9.82580361328125	-0.05686228942871093	0.025737667846679687	0.385284423828125	-5.184173583984375	-3.009796142578125	9.929352835083007	0.5374982727050781	0.0652419952392578	3.093719482421875	-4.44793701171875	-1.6021728515625	
222	0.888	0.0	0.0	0.0	0.0	4.548	4.593	4.602	4.506	9.846154327392577	0.10354922180175781	0.1197100830078125	1.6632080078125	-3.475189208984375	-0.804901123046875	9.578602291870117	0.11552023010253906	0.2753331909179687	0.60272216796875	-4.787445068359375	-3.76129150390625	10.235212097167969	0.3226186737060547	-0.4955997436523437	2.74658203125	-4.41741943359375	-1.209259033203125	
223	0.892	0.0	0.0	0.0	0.0	4.551	4.596	4.599	4.524	9.947907897949218	0.07601590270996093	0.10295067138671875	5.16510009765625	-5.191802978515625	-0.35858154296875	9.833584768676758	-0.015562310791015624	0.06763619689941405	0.42724609375	-5.496978759765625	-2.84576416015625	9.935936889648437	0.6039373687744141	-0.010773907470703125	2.9144287109375	-4.779815673828125	-1.605987548828125	
224	0.896	0.0	0.0	0.0	0.0	4.548	4.599	4.602	4.5360000000000005	9.861716638183593	0.002992752075195312	0.062249243164062495	0.804901123046875	-2.864837646484375	-1.13677978515625	9.947907897949218	-0.09277531433105468	0.12330138549804687	0.46539306640625	-4.7149658203125	-3.108978271484375	10.293870037841796	0.1945288848876953	-0.4471171600341797	2.796173095703125	-4.550933837890625	-1.373291015625	
225	0.9	0.0	0.0	0.0	0.0	4.542	4.602	4.602	4.542	9.868300692749022	0.1227028350830078	0.2214636535644531	4.99725341796875	-4.901885986328125	-0.4730224609375	9.711480484008788	-0.05686228942871093	0.2088940948486328	0.49591064453125	-5.153656005859375	-3.192901611328125	9.801861596679688	0.5871779571533203	0.086191259765625	3.047943115234375	-4.7454833984375	-1.605987548828125	
226	0.904	0.0	0.0	0.0	0.0	4.5360000000000005	4.599	4.599	4.548	9.897629663085937	0.018555062866210937	0.044891281127929686	0.194549560546875	-2.69317626953125	-0.90789794921875	9.930549935913085	0.04908113403320312	-0.010773907470703125	0.843048095703125	-5.096435546875	-3.192901611328125	10.234613546752929	0.48123453369140623	-0.5141548065185546	2.628326416015625	-4.4403076171875	-1.0833740234375	
227	0.908	0.0	0.0	0.0	0.0	4.548	4.599	4.59	4.53	9.890447058105469	-0.001197100830078125	0.07062894897460938	5.18035888671875	-5.153656005859375	-0.278472900390625	9.859920986938477	0.04967968444824218	0.24001871643066405	0.48828125	-5.096435546875	-2.643585205078125	10.139444030761718	0.22206220397949217	-0.2549824768066406	2.99835205078125	-4.72259521484375	-1.605987548828125	
228	0.912	0.0	0.0	0.0	0.0	4.545	4.602	4.602	4.5120000000000005	10.032902056884765	0.10295067138671875	-0.14784195251464843	-1.07574462890625	-2.147674560546875	-1.15203857421875	9.917980377197265	-0.05027823486328125	0.06464344482421874	0.9613037109375	-5.153656005859375	-3.414154052734375	10.266336718749999	0.41359833679199215	-0.489015689086914	2.880096435546875	-4.306793212890625	-1.270294189453125	
229	0.916	0.0	0.0	0.0	0.0	4.557	4.596	4.599	4.506	9.820416659545899	-0.01975216369628906	0.20231004028320312	4.650115966796875	-4.901885986328125	-0.339508056640625	9.770138424682617	0.15861585998535155	0.36810850524902344	0.80108642578125	-5.130767822265625	-2.857208251953125	9.944316595458984	0.31663316955566406	-0.12330138549804687	3.032684326171875	-4.619598388671875	-1.728057861328125	
230	0.92	0.0	0.0	0.0	0.0	4.548	4.593	4.599	4.533	10.13226142578125	0.04848258361816406	-0.2328361114501953	-0.4730224609375	-2.17437744140625	-1.018524169921875	10.115502014160155	-0.023942016601562498	-0.09696516723632811	0.83160400390625	-5.008697509765625	-2.96783447265625	10.209474429321288	0.6069301208496093	-0.36691140441894526	2.780914306640625	-5.084991455078125	-1.4190673828125	
231	0.924	0.0	0.0	0.0	0.0	4.548	4.599	0.003	0.006	9.600150106811522	0.1005564697265625	0.22744915771484372	2.67791748046875	-3.795623779296875	-0.934600830078125	9.897031112670899	0.12509703674316405	0.15682020874023436	0.835418701171875	-5.496978759765625	-2.902984619140625	10.153809240722655	0.20231004028320312	-0.26755203552246093	3.108978271484375	-4.650115966796875	-1.529693603515625	
232	0.928	0.0	0.0	0.0	0.0	0.006	0.006	0.003	0.003	9.967061511230469	0.21009119567871093	-0.07721300354003906	-0.194549560546875	-2.8228759765625	-1.0986328125	10.02392380065918	-0.09696516723632811	-0.05566518859863281	0.6103515625	-5.176544189453125	-3.063201904296875	10.12507882080078	0.6105214233398437	-0.37828386230468747	3.208160400390625	-5.05828857421875	-1.5716552734375	
233	0.932	0.0	0.0	0.0	0.0	0.0	0.006	0.003	0.003	9.645041387939452	0.2914940521240234	0.21607669982910155	0.652313232421875	-2.9754638671875	-1.15203857421875	9.82460651245117	0.34835634155273437	0.23223756103515625	0.885009765625	-5.062103271484375	-2.994537353515625	9.695319622802733	0.28490999755859375	0.14305354919433594	2.269744873046875	-4.791259765625	-1.773834228515625	
234	0.936	0.0	0.0	0.0	0.0	0.003	0.006	0.003	0.003	10.077194787597655	0.08439560852050781	-0.16160861206054686	-0.392913818359375	-2.635955810546875	-1.36566162109375	10.128670123291014	-0.28012159423828126	-0.10474632263183593	0.9307861328125	-5.275726318359375	-3.139495849609375	10.307636697387695	0.46686932373046874	-0.48542438659667964	2.941131591796875	-4.6234130859375	-1.529693603515625	
235	0.9400000000000001	0.0	0.0	0.0	0.0	0.003	0.003	0.006	0.003	9.639055883789062	0.21727380065917967	0.3298012786865234	1.651763916015625	-3.265380859375	-1.068115234375	9.597157354736327	0.3178302703857422	0.3489548919677734	0.72479248046875	-4.840850830078125	-3.18145751953125	9.713276135253906	0.22266075439453123	0.1657984649658203	2.655029296875	-4.85992431640625	-2.0751953125	
236	0.9440000000000001	0.0	0.0	0.0	0.0	0.003	0.006	0.003	0.003	9.817423907470703	0.4369418029785156	0.105344873046875	4.58526611328125	-4.817962646484375	-0.6103515625	10.098742602539062	-0.12090718383789062	-0.0718260498046875	0.5035400390625	-5.18035888671875	-3.108978271484375	10.16398459777832	0.6338648895263671	-0.44053310546874996	2.3345947265625	-4.8828125	-1.186370849609375	
237	0.9480000000000001	0.0	0.0	0.0	0.0	0.009000000000000001	0.003	0.003	0.006	9.765948571777344	0.3393780853271484	0.24660277099609373	-0.14495849609375	-2.475738525390625	-1.209259033203125	9.756970315551758	0.316034619140625	0.24660277099609373	0.835418701171875	-4.947662353515625	-3.0975341796875	9.835380419921874	0.23403321228027343	0.10594342346191406	2.414703369140625	-4.642486572265625	-1.7242431640625	
238	0.9520000000000001	0.0	0.0	0.0	0.0	0.006	0.003	0.006	0.003	9.888052856445311	0.20769699401855468	0.03172317199707031	5.069732666015625	-4.84466552734375	-0.774383544921875	9.722254391479492	-0.2932897033691406	0.3022679595947265	0.09918212890625	-4.833221435546875	-3.383636474609375	9.94012674255371	0.33399113159179683	-0.15322890625	2.506256103515625	-4.8980712890625	-2.0751953125	
239	0.9560000000000001	0.0	0.0	0.0	0.0	0.009000000000000001	0.003	0.003	0.003	9.700108026123047	0.49859249572753905	0.37768531188964843	2.361297607421875	-3.719329833984375	-0.823974609375	9.578003741455078	0.4082113830566406	0.37828386230468747	0.8697509765625	-5.146026611328125	-3.1890869140625	9.60852981262207	0.3890577697753906	0.21308394775390624	2.529144287109375	-4.79888916015625	-1.811981201171875	
240	0.96	0.0	0.0	0.0	0.0	0.006	0.003	0.006	0.006	9.90181951599121	0.3633201019287109	0.003591302490234375	6.1492919921875	-5.47027587890625	-0.54931640625	9.767145672607422	-0.17417817077636719	0.2861070983886719	0.141143798828125	-5.168914794921875	-3.185272216796875	9.956287603759765	0.469263525390625	-0.2914940521240234	2.529144287109375	-4.863739013671875	-2.010345458984375	
241	0.964	0.0	0.0	0.0	0.0	0.006	0.003	0.003	0.006	9.974842666625976	0.2555810272216797	-0.14425065002441406	1.781463623046875	-3.368377685546875	-0.934600830078125	9.753977563476562	0.06464344482421874	0.09277531433105468	0.2899169921875	-4.901885986328125	-3.3721923828125	10.004770187377929	0.35314474487304687	-0.2657563842773437	2.46429443359375	-4.4403076171875	-1.4801025390625	
242	0.968	0.0	0.0	0.0	0.0	0.006	0.006	0.003	0.006	9.743203656005859	0.27832594299316404	0.20949264526367187	6.687164306640625	-5.82122802734375	-0.6256103515625	9.577405191040038	-0.06045359191894531	0.489015689086914	0.34332275390625	-5.0811767578125	-3.47900390625	9.749189160156249	0.42377369384765623	-0.11851298217773437	2.349853515625	-4.856109619140625	-2.03704833984375	
243	0.972	0.0	0.0	0.0	0.0	0.009000000000000001	0.006	0.003	0.003	9.931148486328125	0.3752911102294922	-0.007781155395507812	2.3345947265625	-3.734588623046875	-0.522613525390625	9.667187753295899	0.14903905334472656	0.06584054565429687	0.400543212890625	-5.035400390625	-3.204345703125	9.810241302490233	0.556053335571289	-0.25737667846679685	2.6397705078125	-4.50897216796875	-1.567840576171875	
244	0.976	0.0	0.0	0.0	0.0	0.006	0.006	0.006	0.006	9.920374578857421	-0.35793314819335936	-0.19991583862304688	3.353118896484375	-4.276275634765625	-0.392913818359375	9.828796365356444	-0.10354922180175781	-0.040701428222656245	0.499725341796875	-5.16510009765625	-2.933502197265625	9.995791931152343	0.26276363220214843	-0.12808978881835936	2.605438232421875	-4.901885986328125	-1.4801025390625	
245	0.98	0.0	0.0	0.0	0.0	0.003	0.003	0.006	0.003	9.904812268066406	0.22565350646972654	-0.06464344482421874	2.51007080078125	-3.5400390625	-0.423431396484375	9.596558804321289	0.07122749938964844	0.10474632263183593	0.255584716796875	-4.795074462890625	-3.398895263671875	9.816825357055663	0.35015199279785153	-0.17058686828613281	2.590179443359375	-4.337310791015625	-1.499176025390625	
246	0.984	0.0	0.0	0.0	0.0	0.006	0.006	0.003	0.006	9.779116680908203	-0.3848679168701172	-0.03411737365722656	1.52587890625	-4.001617431640625	-0.789642333984375	9.65940659790039	0.02633621826171875	-0.017357962036132813	0.225067138671875	-5.329132080078125	-2.7618408203125	9.76235726928711	0.4537012145996093	-0.11013327636718749	2.811431884765625	-4.7149658203125	-1.728057861328125	
247	0.988	0.0	0.0	0.0	0.0	0.006	0.003	0.006	0.006	10.064625228881836	0.1753752716064453	-0.1945288848876953	2.12860107421875	-3.665924072265625	-0.40435791015625	10.01015714111328	-0.06643909606933593	-0.1580173095703125	0.949859619140625	-5.43975830078125	-3.154754638671875	10.002974536132811	0.31483751831054685	-0.23702596435546874	3.0670166015625	-4.512786865234375	-1.201629638671875	
248	0.992	0.0	0.0	0.0	0.0	0.006	0.003	0.006	0.003	9.846154327392577	-0.6578069061279297	-0.10594342346191406	-0.049591064453125	-2.6702880859375	-0.80108642578125	9.752780462646484	-0.29269115295410153	-0.05985504150390625	0.576019287109375	-5.138397216796875	-3.093719482421875	9.919177478027343	0.2555810272216797	-0.040701428222656245	2.696990966796875	-4.528045654296875	-1.7242431640625	
249	0.996	0.0	0.0	0.0	0.0	0.006	0.003	0.006	0.003	9.85692823486328	0.1466448516845703	0.08379705810546874	2.166748046875	-3.662109375	-0.850677490234375	9.79348189086914	0.16759411621093748	0.009576806640625	1.087188720703125	-5.367279052734375	-3.459930419921875	10.141838232421874	0.5518634826660156	-0.3363853332519531	2.910614013671875	-4.4403076171875	-1.354217529296875	
250	1.0	0.0	0.0	0.0	0.0	0.012	0.006	0.006	0.006	9.841365924072266	-0.4632780212402344	-0.025139117431640625	0.476837158203125	-3.143310546875	-0.377655029296875	9.726444244384766	0.059256491088867186	0.5297171173095703	0.995635986328125	-4.779815673828125	-2.719879150390625	9.849745629882811	0.412401235961914	0.07481880187988281	2.6092529296875	-4.72259521484375	-1.3427734375	
251	1.004	0.0	0.0	0.0	0.0	0.006	0.006	0.006	0.006	9.977236868286132	0.2292448089599609	0.09038111267089843	1.5869140625	-3.475189208984375	-0.858306884765625	9.947907897949218	0.009576806640625	-0.017357962036132813	1.22833251953125	-4.756927490234375	-3.3416748046875	10.47642791442871	0.29388825378417965	-0.48063598327636714	2.79998779296875	-4.17327880859375	-1.5411376953125	
252	1.008	0.0	0.0	0.0	0.0	0.006	0.003	0.003	0.006	9.739612353515625	-0.3238157745361328	0.18315642700195311	2.17437744140625	-3.330230712890625	-1.09100341796875	9.713874685668944	-0.03232172241210937	0.5536591339111328	1.16729736328125	-4.93621826171875	-3.566741943359375	10.012551342773437	0.3112462158203125	-0.05626373901367187	2.925872802734375	-4.6234130859375	-1.705169677734375	
253	1.012	0.0	0.0	0.0	0.0	0.003	0.003	0.003	0.006	9.873089096069336	0.5374982727050781	0.24600422058105467	1.89208984375	-3.757476806640625	-0.75531005859375	9.904812268066406	0.2214636535644531	0.24361001892089842	0.6256103515625	-5.0048828125	-3.200531005859375	10.084377392578125	0.5303156677246094	-0.3028665100097656	2.99835205078125	-4.467010498046875	-1.300811767578125	
254	1.016	0.0	0.0	0.0	0.0	0.006	0.006	0.003	0.003	9.73602105102539	0.5716156463623047	0.2699462371826172	4.02069091796875	-4.02069091796875	-0.576019287109375	9.9461122467041	-0.21128829650878905	0.4626794708251953	0.904083251953125	-4.932403564453125	-3.307342529296875	10.24718310546875	0.2262520568847656	-0.18914193115234373	2.788543701171875	-4.5623779296875	-1.384735107421875	
255	1.02	0.0	0.0	0.0	0.0	0.003	0.006	0.006	0.006	9.93294413757324	0.31962592163085934	0.11911153259277343	3.4027099609375	-3.879547119140625	-0.701904296875	10.034099157714843	0.037110125732421874	0.04129997863769531	0.67138671875	-4.550933837890625	-3.3416748046875	10.162188946533202	0.2962824554443359	-0.29867665710449215	2.716064453125	-4.60052490234375	-1.903533935546875	
256	1.024	0.0	0.0	0.0	0.0	0.003	0.006	0.003	0.006	9.527126956176756	0.5793968017578125	0.3800795135498047	3.185272216796875	-3.90625	-0.858306884765625	9.69771382446289	0.10714052429199218	0.47644613037109373	0.347137451171875	-4.802703857421875	-3.215789794921875	9.805452899169921	0.5045779998779296	0.023343466186523436	2.719879150390625	-4.718780517578125	-1.461029052734375	
257	1.028	0.0	0.0	0.0	0.0	0.003	0.003	0.003	0.006	9.96586441040039	0.15741875915527342	-0.16998831787109375	2.349853515625	-3.9520263671875	-1.01470947265625	10.127473022460936	-0.08559270935058594	-0.08858546142578125	0.614166259765625	-4.94384765625	-2.567291259765625	10.178948358154296	0.3908534210205078	-0.40761283264160153	2.727508544921875	-4.75311279296875	-1.522064208984375	
258	1.032	0.0	0.0	0.0	0.0	0.009000000000000001	0.006	0.003	0.003	9.694721072387695	0.01975216369628906	0.15023615417480468	3.0670166015625	-3.9520263671875	-0.823974609375	9.752780462646484	-0.008379705810546874	0.3136404174804687	0.560760498046875	-4.852294921875	-3.467559814453125	10.178948358154296	0.22565350646972654	-0.21966800231933592	2.162933349609375	-4.634857177734375	-2.330780029296875	
259	1.036	0.0	0.0	0.0	0.0	0.003	0.003	0.006	0.003	9.772532626342773	0.43574470214843747	0.1945288848876953	1.628875732421875	-3.368377685546875	-1.06048583984375	9.855731134033203	0.061650692749023434	0.06584054565429687	1.056671142578125	-4.970550537109375	-2.99072265625	9.926360083007811	0.5847837554931641	-0.18076222534179687	2.62451171875	-4.665374755859375	-1.819610595703125	
260	1.04	0.0	0.0	0.0	0.0	0.003	0.006	0.006	0.009000000000000001	9.587580548095703	0.43993455505371093	0.27353753967285155	2.8533935546875	-3.711700439453125	-0.621795654296875	9.610325463867188	0.18375497741699218	0.411802685546875	0.43487548828125	-5.100250244140625	-3.032684326171875	9.65342109375	0.354341845703125	0.14006079711914063	2.399444580078125	-4.871368408203125	-1.9073486328125	
261	1.044	0.0	0.0	0.0	0.0	0.006	0.006	0.006	0.006	9.982025271606444	0.3705027069091797	-0.003591302490234375	1.31988525390625	-3.101348876953125	-1.308441162109375	9.994594830322265	-0.11671733093261719	-0.07302315063476562	0.286102294921875	-4.993438720703125	-3.2501220703125	10.33696566772461	0.37289690856933594	-0.5093664031982421	2.67791748046875	-4.70733642578125	-1.495361328125	
262	1.048	0.0	0.0	0.0	0.0	0.003	0.003	0.006	0.006	9.769539874267577	-0.004189852905273437	-0.023343466186523436	3.368377685546875	-3.89862060546875	-1.28173828125	9.519944351196289	0.17657237243652343	0.5207388610839844	0.850677490234375	-5.05828857421875	-3.582000732421875	9.634267480468749	0.15322890625	0.1945288848876953	2.32696533203125	-4.70733642578125	-2.05230712890625	
263	1.052	0.0	0.0	0.0	0.0	0.009000000000000001	0.003	0.006	0.006	9.891045608520507	0.6619967590332031	0.09935936889648436	2.46429443359375	-3.77655029296875	-0.957489013671875	9.730035546875	0.08978256225585937	0.1083376251220703	0.255584716796875	-5.161285400390625	-3.11279296875	9.618705169677733	0.6530185028076172	0.020350714111328123	2.445220947265625	-4.787445068359375	-1.67083740234375	
264	1.056	0.0	0.0	0.0	0.0	0.003	0.006	0.003	0.003	9.852139831542969	-0.16639701538085935	-0.15682020874023436	3.82232666015625	-4.451751708984375	-1.010894775390625	9.679158761596678	-0.11252747802734374	0.17357962036132812	0.35858154296875	-5.13458251953125	-3.2806396484375	9.832986218261718	0.07841010437011718	0.08020575561523437	2.5482177734375	-4.7149658203125	-1.8768310546875	
265	1.06	0.0	0.0	0.0	0.0	0.006	0.003	0.003	0.003	9.997587582397461	0.40222587890625	-0.0526724365234375	4.24957275390625	-3.77655029296875	-1.102447509765625	9.823409411621093	-0.002992752075195312	0.14544775085449219	0.202178955078125	-4.73785400390625	-3.3721923828125	9.944316595458984	0.38666356811523434	-0.15382745666503905	2.2125244140625	-4.70733642578125	-2.1209716796875	
266	1.064	0.0	0.0	0.0	0.0	0.006	0.006	0.006	0.003	9.593566052246093	0.09337386474609374	0.2507926239013672	3.749847412109375	-4.238128662109375	-0.8544921875	9.382876306152344	0.017357962036132813	0.5811924530029297	0.125885009765625	-4.886627197265625	-3.2806396484375	9.753379013061522	0.36810850524902344	-0.12090718383789062	2.6092529296875	-4.459381103515625	-1.392364501953125	
267	1.068	0.0	0.0	0.0	0.0	0.003	0.003	0.006	0.006	10.007164389038085	0.4010287780761719	-0.1322796417236328	4.85992431640625	-5.382537841796875	-0.396728515625	9.798868844604492	0.052073886108398436	-0.040102877807617184	0.499725341796875	-5.092620849609375	-2.99072265625	9.913191973876952	0.5530605834960938	-0.16759411621093748	2.254486083984375	-5.1116943359375	-2.040863037109375	
268	1.072	0.0	0.0	0.0	0.0	0.006	3.123	4.59	4.506	9.75517466430664	-0.03950432739257812	0.07781155395507812	4.093170166015625	-4.38690185546875	-0.682830810546875	9.660603698730467	-0.059256491088867186	0.2902969512939453	0.37384033203125	-4.5928955078125	-3.90625	10.147823736572265	0.13108254089355467	-0.40880993347167965	2.872467041015625	-4.302978515625	-1.48773193359375	
269	1.076	0.0	0.0	0.0	0.0	4.548	4.593	4.596	4.515	9.884461553955077	0.3848679168701172	-0.05985504150390625	4.50897216796875	-4.7760009765625	-0.67901611328125	9.636661682128906	0.034715924072265626	0.11791443176269531	0.499725341796875	-4.9285888671875	-3.1890869140625	9.689334118652344	0.6631938598632812	0.006584054565429687	2.83050537109375	-4.543304443359375	-1.48773193359375	
270	1.08	0.0	0.0	0.0	0.0	4.551	4.587	4.599	4.533	9.834781869506836	-0.09636661682128905	0.034715924072265626	0.77056884765625	-3.353118896484375	-0.675201416015625	9.775525378417969	0.05686228942871093	0.11372457885742186	0.591278076171875	-4.993438720703125	-3.086090087890625	9.860519537353515	0.412401235961914	-0.2472013214111328	2.651214599609375	-4.50897216796875	-1.50299072265625	
271	1.084	0.0	0.0	0.0	0.0	4.545	4.599	4.602	4.5360000000000005	10.096348400878906	0.08978256225585937	-0.34835634155273437	4.177093505859375	-4.7454833984375	-0.568389892578125	9.937133990478515	-0.16879121704101563	-0.15861585998535155	0.1068115234375	-4.90570068359375	-2.777099609375	10.150816488647461	0.36631285400390623	-0.20949264526367187	2.826690673828125	-4.596710205078125	-1.514434814453125	
272	1.088	0.0	0.0	0.0	0.0	4.545	4.599	4.599	4.542	9.873089096069336	-0.07122749938964844	-0.03890577697753906	0.28228759765625	-2.57110595703125	-0.8392333984375	9.837176071166992	-0.020949264526367185	0.14185644836425781	0.70953369140625	-4.69970703125	-3.330230712890625	9.886257205200195	0.277727392578125	-0.2561795776367187	2.819061279296875	-4.2877197265625	-1.758575439453125	
273	1.092	0.0	0.0	0.0	0.0	4.533	4.599	4.593	4.548	9.89463691101074	0.297479556274414	0.006584054565429687	4.47845458984375	-5.329132080078125	-0.423431396484375	9.753379013061522	0.20290859069824219	0.38666356811523434	0.66375732421875	-5.359649658203125	-2.803802490234375	9.792284790039062	0.6631938598632812	-0.06703764648437499	3.01361083984375	-4.8980712890625	-1.40380859375	
274	1.096	0.0	0.0	0.0	0.0	4.548	4.602	4.602	4.524	9.9461122467041	-0.005985504150390624	-0.08918401184082031	0.171661376953125	-2.5482177734375	-0.820159912109375	9.896432562255859	-0.10773907470703124	0.11013327636718749	0.42724609375	-4.70733642578125	-2.98309326171875	10.397419259643554	0.37708676147460934	-0.6392518432617187	2.9296875	-4.505157470703125	-0.67138671875	
275	1.1	0.0	0.0	0.0	0.0	4.554	4.602	4.602	4.509	9.858125335693359	0.1005564697265625	0.07122749938964844	5.916595458984375	-5.359649658203125	-0.34332275390625	10.050260018920898	-0.009576806640625	-0.020350714111328123	0.415802001953125	-5.1116943359375	-3.032684326171875	10.102932455444336	0.3112462158203125	-0.2555810272216797	2.651214599609375	-4.425048828125	-1.708984375	
276	1.104	0.0	0.0	0.0	0.0	4.554	4.593	4.599	4.524	9.77492682800293	0.22086510314941404	0.15263035583496093	2.0294189453125	-3.482818603515625	-0.67138671875	9.64683703918457	0.1484405029296875	0.32022447204589843	0.95367431640625	-5.2032470703125	-3.31878662109375	10.140042581176758	0.6308721374511719	-0.5027823486328125	3.27301025390625	-4.53948974609375	-1.247406005859375	
277	1.108	0.0	0.0	0.0	0.0	4.548	4.602	4.602	4.539	9.742605105590819	0.2825157958984375	0.2232593048095703	4.52423095703125	-5.023956298828125	-0.79345703125	9.919177478027343	0.06045359191894531	0.16280571289062498	0.38909912109375	-5.191802978515625	-2.84576416015625	9.944915145874022	0.3124433166503906	-0.09576806640624999	3.08990478515625	-4.8675537109375	-1.522064208984375	
278	1.112	0.0	0.0	0.0	0.0	4.548	4.602	4.143	0.006	10.015544094848632	-0.011971008300781249	-0.181959326171875	-0.911712646484375	-2.79998779296875	-0.80108642578125	10.231620794677733	-0.19093758239746092	-0.2765302917480469	0.946044921875	-5.157470703125	-3.124237060546875	10.50216558227539	0.42497079467773435	-0.7272387542724609	2.887725830078125	-4.413604736328125	-0.99945068359375	
279	1.116	0.0	0.0	0.0	0.0	0.006	0.006	0.006	0.003	9.689932669067382	0.1322796417236328	0.2232593048095703	4.337310791015625	-4.55474853515625	-0.48065185546875	9.789890588378906	0.1292868896484375	0.3022679595947265	0.499725341796875	-4.840850830078125	-2.86102294921875	9.950302099609374	0.24480711975097655	-0.11252747802734374	3.047943115234375	-4.657745361328125	-1.667022705078125	
280	1.12	0.0	0.0	0.0	0.0	0.003	0.003	0.003	0.003	9.883264453125	0.32561142578124996	0.06464344482421874	0.885009765625	-3.231048583984375	-0.95367431640625	9.949104998779296	0.007781155395507812	0.007781155395507812	0.8087158203125	-5.279541015625	-2.78472900390625	10.209474429321288	0.6727706665039062	-0.5614402893066406	2.70843505859375	-5.0506591796875	-1.7852783203125	
281	1.124	0.0	0.0	0.0	0.0	0.003	0.003	0.006	0.003	9.714473236083984	0.1610100616455078	0.12210428466796874	2.719879150390625	-4.058837890625	-0.40435791015625	9.803058697509766	0.2825157958984375	0.14305354919433594	0.759124755859375	-5.10406494140625	-2.7618408203125	10.223241088867187	0.21607669982910155	-0.2747346405029297	2.864837646484375	-4.550933837890625	-1.300811767578125	
282	1.1280000000000001	0.0	0.0	0.0	0.0	0.003	0.006	0.003	0.003	9.95987890625	0.3124433166503906	-0.037110125732421874	-0.003814697265625	-2.44140625	-1.40380859375	10.053851321411132	-0.15562310791015624	-0.12689268798828124	0.8087158203125	-5.19561767578125	-3.421783447265625	10.227430941772461	0.5039794494628906	-0.4644751220703125	2.86865234375	-4.9285888671875	-1.739501953125	
283	1.1320000000000001	0.0	0.0	0.0	0.0	0.006	0.003	0.003	0.006	9.589376199340819	0.2962824554443359	0.3315969299316406	1.09100341796875	-2.960205078125	-1.068115234375	9.561842880249023	0.4590881683349609	0.34715924072265625	0.823974609375	-5.0201416015625	-2.86865234375	9.85632968444824	0.3800795135498047	-0.0796072052001953	2.7923583984375	-4.8065185546875	-1.33514404296875	
284	1.1360000000000001	0.0	0.0	0.0	0.0	-0.003	0.006	0.006	0.003	9.97783541870117	0.3178302703857422	0.030526071166992186	2.4566650390625	-3.56292724609375	-0.77056884765625	9.854534033203125	-0.16519991455078123	0.143652099609375	0.148773193359375	-5.046844482421875	-3.1890869140625	10.235212097167969	0.5829881042480468	-0.49320554199218747	2.89154052734375	-4.665374755859375	-1.64794921875	
285	1.1400000000000001	0.0	0.0	0.0	0.0	0.006	0.003	0.006	0.006	9.91558617553711	0.1610100616455078	0.02454056701660156	0.362396240234375	-2.521514892578125	-1.35040283203125	9.745597857666015	0.2699462371826172	0.17776947326660156	0.881195068359375	-4.58526611328125	-3.0059814453125	9.885658654785155	0.19572598571777342	0.06284779357910156	2.50244140625	-4.734039306640625	-1.842498779296875	
286	1.1440000000000001	0.0	0.0	0.0	0.0	0.006	0.003	0.003	0.003	9.810241302490233	0.4477157104492187	0.13826514587402344	2.971649169921875	-4.062652587890625	-1.056671142578125	9.676166009521484	-0.12150573425292968	0.3142389678955078	0.6103515625	-4.98199462890625	-3.448486328125	10.002974536132811	0.6302735870361328	-0.3345896820068359	2.63214111328125	-4.665374755859375	-1.804351806640625	
287	1.1480000000000001	0.0	0.0	0.0	0.0	0.003	0.003	0.006	0.006	9.847949978637695	0.29388825378417965	0.1562216583251953	-0.232696533203125	-2.4871826171875	-1.15966796875	9.607332711791992	0.373495458984375	0.2825157958984375	0.52642822265625	-4.817962646484375	-3.040313720703125	9.65282254333496	0.4387374542236328	0.13407529296874998	2.54058837890625	-4.87518310546875	-1.674652099609375	
288	1.1520000000000001	0.0	0.0	0.0	0.0	0.006	0.003	0.006	0.003	9.936535440063476	0.1484405029296875	-0.09277531433105468	6.465911865234375	-5.558013916015625	-0.5950927734375	9.93294413757324	-0.2705447875976562	0.20769699401855468	0.324249267578125	-4.8828125	-3.6773681640625	9.999383233642577	0.2699462371826172	-0.17298106994628906	2.471923828125	-4.84466552734375	-2.147674560546875	
289	1.156	0.0	0.0	0.0	0.0	0.003	0.003	0.003	0.006	9.87608184814453	0.43514615173339843	0.12389993591308593	0.545501708984375	-2.3651123046875	-1.293182373046875	9.624092123413085	0.2184709014892578	0.3321954803466797	0.5340576171875	-4.8065185546875	-3.215789794921875	9.719261639404296	0.34715924072265625	0.17178396911621094	2.50244140625	-4.703521728515625	-1.712799072265625	
290	1.16	0.0	0.0	0.0	0.0	0.003	0.003	0.006	0.003	9.76235726928711	0.20051438903808594	0.10235212097167969	8.037567138671875	-6.526947021484375	-0.476837158203125	9.60194575805664	-0.10295067138671875	0.21188684692382811	0.034332275390625	-5.031585693359375	-3.040313720703125	9.641450085449218	0.4626794708251953	0.02454056701660156	2.3651123046875	-4.924774169921875	-2.025604248046875	
291	1.164	0.0	0.0	0.0	0.0	0.006	0.003	0.006	0.003	9.970652813720703	0.3447650390625	-0.1005564697265625	0.4425048828125	-2.5177001953125	-1.392364501953125	9.79946739501953	-0.0053869537353515625	0.16699556579589842	0.232696533203125	-4.688262939453125	-3.05938720703125	9.92755718383789	0.31004911499023435	-0.19991583862304688	2.3956298828125	-4.486083984375	-1.712799072265625	
292	1.168	0.0	0.0	0.0	0.0	0.006	0.006	0.003	0.003	9.90900212097168	-0.022146365356445312	-0.19572598571777342	7.495880126953125	-5.92803955078125	-0.438690185546875	9.840168823242188	-0.1484405029296875	-0.052073886108398436	-0.06103515625	-4.95147705078125	-2.918243408203125	9.888651406860351	0.2998737579345703	-0.1322796417236328	2.4566650390625	-4.650115966796875	-1.895904541015625	
293	1.172	0.0	0.0	0.0	0.0	0.003	0.006	0.003	0.006	9.92755718383789	0.05566518859863281	-0.09277531433105468	1.880645751953125	-3.620147705078125	-0.8544921875	9.78031378173828	-0.03232172241210937	-0.11073182678222655	0.576019287109375	-5.298614501953125	-2.9144287109375	9.753977563476562	0.5111620544433594	-0.09457096557617187	2.61688232421875	-4.7607421875	-1.773834228515625	
294	1.176	0.0	0.0	0.0	0.0	0.006	0.003	0.006	0.003	9.859322436523437	0.014963760375976562	-0.19572598571777342	6.679534912109375	-5.8441162109375	-0.194549560546875	9.770138424682617	-0.05087678527832031	-0.022744915771484374	-0.03814697265625	-5.161285400390625	-2.704620361328125	9.834781869506836	0.3447650390625	-0.19812018737792966	2.437591552734375	-4.848480224609375	-1.79290771484375	
295	1.18	0.0	0.0	0.0	0.0	0.003	0.006	0.003	0.006	10.063428128051758	-0.17178396911621094	-0.20829554443359374	0.514984130859375	-3.0670166015625	-0.5645751953125	9.95389340209961	-0.17956512451171874	-0.1693897674560547	0.67901611328125	-4.787445068359375	-3.139495849609375	10.057442623901366	0.3058592620849609	-0.2328361114501953	2.574920654296875	-4.566192626953125	-1.68609619140625	
296	1.184	0.0	0.0	0.0	0.0	0.006	0.006	0.006	0.003	9.770736975097655	-0.2507926239013672	-0.013168109130859374	-0.03814697265625	-2.7923583984375	-1.04522705078125	9.617508068847656	0.013766659545898436	0.11192892761230468	1.003265380859375	-5.05828857421875	-3.131866455078125	9.931148486328125	0.3094505645751953	-0.02633621826171875	2.796173095703125	-4.688262939453125	-1.743316650390625	
297	1.188	0.0	0.0	0.0	0.0	0.003	0.006	0.003	0.003	9.871891995239258	0.076614453125	0.17298106994628906	0.72479248046875	-3.30352783203125	-0.705718994140625	9.759963067626952	0.015562310791015624	0.15023615417480468	0.530242919921875	-4.901885986328125	-3.200531005859375	9.836577520751952	0.4267664459228515	-0.10414777221679687	2.5482177734375	-4.5623779296875	-1.651763916015625	
298	1.192	0.0	0.0	0.0	0.0	0.006	0.003	0.003	0.006	9.89583401184082	0.03890577697753906	0.27892449340820313	1.73187255859375	-3.414154052734375	-0.63323974609375	9.967061511230469	-0.07841010437011718	0.13946224670410157	0.9002685546875	-4.99725341796875	-3.2196044921875	10.147823736572265	0.2615665313720703	-0.16819266662597654	2.780914306640625	-4.642486572265625	-1.529693603515625	
299	1.196	0.0	0.0	0.0	0.0	0.003	0.006	0.006	0.003	9.886855755615233	0.17118541870117188	0.18076222534179687	2.0599365234375	-3.444671630859375	-0.911712646484375	9.756371765136718	0.0	0.2088940948486328	1.026153564453125	-5.02777099609375	-3.45611572265625	10.337564218139647	0.28730419921875	-0.5500678314208984	2.902984619140625	-4.21905517578125	-1.48773193359375	
300	1.2	0.0	0.0	0.0	0.0	0.003	0.006	0.006	0.003	9.776722479248047	0.0939724151611328	0.32082302246093747	2.89154052734375	-3.986358642578125	-0.789642333984375	9.771934075927733	-0.051475335693359374	0.22685060729980466	0.87738037109375	-5.31768798828125	-3.08990478515625	9.818022457885741	0.48662148742675776	-0.02454056701660156	2.777099609375	-4.7149658203125	-1.331329345703125	
301	1.204	0.0	0.0	0.0	0.0	0.006	0.003	0.003	0.006	10.077194787597655	-0.13467384338378904	-0.2041056915283203	1.09100341796875	-3.612518310546875	-0.843048095703125	10.049661468505859	0.055066638183593745	-0.09038111267089843	0.698089599609375	-4.940032958984375	-2.83050537109375	10.322600457763672	0.33578678283691404	-0.604535919189453	3.047943115234375	-4.726409912109375	-1.3275146484375	
302	1.208	0.0	0.0	0.0	0.0	0.003	0.006	0.006	0.003	9.947907897949218	-0.3190273712158203	0.06763619689941405	3.910064697265625	-4.4403076171875	-0.385284423828125	9.938929641723632	-0.1370680450439453	0.015562310791015624	0.576019287109375	-4.924774169921875	-3.307342529296875	10.165780249023436	0.27293898925781246	-0.1322796417236328	2.838134765625	-4.63104248046875	-1.6021728515625	
303	1.212	0.0	0.0	0.0	0.0	0.006	0.006	0.006	0.003	9.911994873046874	0.029927520751953124	0.031124621582031248	-0.919342041015625	-2.0904541015625	-1.033782958984375	9.89523546142578	0.11432312927246092	-0.04249707946777344	0.7476806640625	-4.734039306640625	-2.7923583984375	10.149020837402343	0.3477577911376953	-0.46148236999511716	2.899169921875	-4.283905029296875	-1.293182373046875	
304	1.216	0.0	0.0	0.0	0.0	0.003	0.003	0.003	0.006	9.865307940673828	-0.05985504150390625	0.2442085693359375	4.76837158203125	-5.0201416015625	0.0762939453125	9.600748657226562	0.19393033447265623	0.4339490509033203	1.026153564453125	-5.1727294921875	-3.276824951171875	9.986813674926758	0.4465186096191406	-0.1484405029296875	3.0364990234375	-5.039215087890625	-1.57928466796875	
305	1.22	0.0	0.0	0.0	0.0	0.003	0.006	0.006	0.006	9.955090502929687	0.20470424194335937	0.0143652099609375	-2.178192138671875	-1.529693603515625	-1.251220703125	10.057442623901366	-0.1406593475341797	-0.1227028350830078	1.01470947265625	-4.669189453125	-2.99835205078125	10.420164175415039	0.21428104858398436	-0.5321113189697265	2.46429443359375	-4.4097900390625	-1.25885009765625	
306	1.224	0.0	0.0	0.0	0.0	0.006	0.003	0.006	0.003	9.641450085449218	0.35673604736328124	0.1975216369628906	3.620147705078125	-3.8909912109375	-1.4190673828125	9.548076220703125	0.20949264526367187	0.5506663818359374	1.056671142578125	-5.344390869140625	-3.326416015625	9.976638317871092	0.4034229797363281	-0.08319850769042968	2.780914306640625	-4.4097900390625	-1.8310546875	
