	time	dac1	dac2	dac3	dac4	adc1.3	adc2.3	adc3.3	adc4.3	imu1accx	imu1accy	imu1accz	imu1gyrox	imu1gyroy	imu1gyroz	imu2accx	imu2accy	imu2accz	imu2gyrox	imu2gyroy	imu2gyroz	imu3accx	imu3accy	imu3accz	imu3gyrox	imu3gyroy	imu3gyroz	log
0	0.0	0.0	0.0	0.0	0.0	0.003	0.003	0.003	0.003	9.87668039855957	0.15981296081542967	0.052073886108398436	2.70843505859375	-3.77655029296875	-0.804901123046875	9.785102185058593	0.0053869537353515625	0.17298106994628906	0.690460205078125	-5.37872314453125	-2.96783447265625	9.96586441040039	0.5434837768554687	-0.15562310791015624	2.4871826171875	-4.795074462890625	-1.705169677734375	Estabizou em 6s, 1028 rpm
1	0.004	0.0	0.0	0.0	0.0	0.006	0.003	0.003	0.003	9.873687646484374	0.16280571289062498	0.04848258361816406	2.338409423828125	-3.665924072265625	-0.66375732421875	9.784503634643555	-0.002992752075195312	0.18614917907714842	0.438690185546875	-5.023956298828125	-3.154754638671875	9.961674557495117	0.5386953735351562	-0.16160861206054686	2.92205810546875	-4.703521728515625	-1.796722412109375	Started
2	0.008	0.0	0.0	0.0	0.0	0.003	0.006	0.006	0.003	9.86411083984375	0.15981296081542967	0.044292730712890624	2.414703369140625	-3.635406494140625	-0.8392333984375	9.788094937133788	0.003591302490234375	0.1849520782470703	0.637054443359375	-5.252838134765625	-3.299713134765625	9.965265859985351	0.5392939239501953	-0.16998831787109375	2.72369384765625	-4.611968994140625	-1.972198486328125	IMU1|LSM6DS3|0x6A|I2C-1|±2g (±19,6m/s²)|±125º/s|400Hz
3	0.012	0.0	0.0	0.0	0.0	0.003	0.003	0.003	0.003	9.8694977935791	0.1610100616455078	0.051475335693359374	2.407073974609375	-3.70025634765625	-0.865936279296875	9.785102185058593	-0.0053869537353515625	0.18614917907714842	0.507354736328125	-5.06591796875	-3.376007080078125	9.968258612060547	0.5416881256103515	-0.16041151123046873	2.74658203125	-4.669189453125	-1.89208984375	IMU2|LSM6DS3|0x6B|I2C-1|±2g (±19,6m/s²)|±125º/s|400Hz
4	0.016	0.0	0.0	0.0	0.0	0.003	0.006	0.003	0.003	9.873687646484374	0.15682020874023436	0.051475335693359374	2.399444580078125	-3.875732421875	-0.865936279296875	9.78629928588867	0.001197100830078125	0.1801636749267578	0.598907470703125	-5.214691162109375	-3.0059814453125	9.974244116210937	0.5434837768554687	-0.16819266662597654	2.4871826171875	-4.810333251953125	-1.64794921875	IMU3|LSM6DS3|0x6B|I2C-2|±2g (±19,6m/s²)|±125º/s|400Hz
5	0.02	0.0	0.0	0.0	0.0	0.006	0.003	0.003	0.006	9.865307940673828	0.15502455749511718	0.047285482788085934	2.593994140625	-3.795623779296875	-0.858306884765625	9.789890588378906	0.00718260498046875	0.16879121704101563	0.46539306640625	-4.909515380859375	-3.025054931640625	9.968258612060547	0.5404910247802734	-0.1580173095703125	2.735137939453125	-4.791259765625	-1.80816650390625	ADC|ADS1015|0|0|1|0|±6,144 V|2400 SPS
6	0.024	0.0	0.0	0.0	0.0	0.003	0.006	0.003	0.006	9.873687646484374	0.15981296081542967	0.03591302490234375	2.51007080078125	-3.60107421875	-0.629425048828125	9.788693487548828	0.003591302490234375	0.17657237243652343	0.335693359375	-4.974365234375	-2.99072265625	9.970652813720703	0.5374982727050781	-0.16160861206054686	2.399444580078125	-4.634857177734375	-1.46484375	Gen1|Disabled
7	0.028	0.0	0.0	0.0	0.0	0.009000000000000001	0.006	0.003	0.006	9.874884747314452	0.1640028137207031	0.055066638183593745	2.468109130859375	-3.89862060546875	-0.789642333984375	9.787496386718749	0.010175357055664061	0.17298106994628906	0.614166259765625	-5.069732666015625	-3.021240234375	9.970652813720703	0.5380968231201172	-0.17178396911621094	2.582550048828125	-4.619598388671875	-1.811981201171875	Gen2|Enabled|Noise|0.0|10.0|1668
8	0.032	0.0	0.0	0.0	0.0	0.003	0.003	0.003	0.006	9.86351228942871	0.16460136413574217	0.05686228942871093	2.445220947265625	-3.826141357421875	-0.606536865234375	9.785102185058593	0.00718260498046875	0.17238251953125	0.55694580078125	-4.848480224609375	-3.35693359375	9.962871658325195	0.5410895751953124	-0.1693897674560547	2.8076171875	-4.37164306640625	-1.651763916015625	Gen3|Enabled|Noise|0.0|10.0|128
9	0.036000000000000004	0.0	0.0	0.0	0.0	0.006	0.003	0.006	0.006	9.867702142333984	0.16639701538085935	0.055066638183593745	2.468109130859375	-4.06646728515625	-0.942230224609375	9.784503634643555	0.0005985504150390625	0.1801636749267578	0.7476806640625	-4.978179931640625	-2.956390380859375	9.967660061645507	0.5339069702148437	-0.17238251953125	2.86102294921875	-4.840850830078125	-1.922607421875	Gen4|Enabled|Noise|0.0|10.0|128
10	0.04	0.0	0.0	0.0	0.0	0.006	0.003	0.003	0.003	9.867702142333984	0.16519991455078123	0.04967968444824218	2.429962158203125	-3.6773681640625	-0.823974609375	9.782707983398437	0.008978256225585938	0.17238251953125	0.7171630859375	-5.157470703125	-3.07464599609375	9.962273107910155	0.5404910247802734	-0.15741875915527342	2.716064453125	-4.611968994140625	-1.708984375	Ctrl|Disabled
11	0.044	0.0	0.0	0.0	0.0	0.003	0.003	0.006	0.003	9.871891995239258	0.16160861206054686	0.055066638183593745	2.49481201171875	-3.6468505859375	-1.007080078125	9.783905084228515	0.006584054565429687	0.1801636749267578	0.576019287109375	-5.16510009765625	-3.078460693359375	9.967660061645507	0.5434837768554687	-0.15741875915527342	2.689361572265625	-4.63104248046875	-1.567840576171875	
12	0.048	0.0	0.0	0.0	0.0	0.003	0.003	0.006	0.003	9.867103591918944	0.15442600708007811	0.0430956298828125	2.4871826171875	-3.47900390625	-0.51116943359375	9.78629928588867	0.015562310791015624	0.1693897674560547	0.6256103515625	-4.8675537109375	-3.078460693359375	9.968258612060547	0.5386953735351562	-0.15741875915527342	2.658843994140625	-4.726409912109375	-1.71661376953125	
13	0.052000000000000005	0.0	0.0	0.0	0.0	0.003	0.006	0.003	0.003	9.875483297729492	0.15562310791015624	0.037708676147460936	2.727508544921875	-3.82232666015625	-0.7781982421875	9.78629928588867	0.009576806640625	0.17178396911621094	0.492095947265625	-4.82940673828125	-3.253936767578125	9.969455712890625	0.5482721801757812	-0.16819266662597654	2.658843994140625	-4.7607421875	-1.819610595703125	
14	0.056	0.0	0.0	0.0	0.0	0.003	0.003	0.003	0.003	9.882067352294921	0.15562310791015624	0.03531447448730469	2.552032470703125	-3.8909912109375	-0.911712646484375	9.789890588378906	-0.008379705810546874	0.17597382202148437	0.6256103515625	-5.161285400390625	-3.04412841796875	9.973047015380859	0.5374982727050781	-0.16460136413574217	2.838134765625	-4.833221435546875	-1.667022705078125	
15	0.06	0.0	0.0	0.0	0.0	0.003	0.003	0.006	0.003	9.868300692749022	0.1592144104003906	0.04548983154296875	2.29644775390625	-3.772735595703125	-0.766754150390625	9.78629928588867	-0.001197100830078125	0.1592144104003906	0.324249267578125	-5.08880615234375	-3.162384033203125	9.97783541870117	0.535702621459961	-0.17058686828613281	2.83050537109375	-4.9591064453125	-1.445770263671875	
16	0.064	0.0	0.0	0.0	0.0	0.003	0.006	0.006	0.006	9.866505041503906	0.1592144104003906	0.023343466186523436	2.536773681640625	-3.90625	-0.774383544921875	9.785102185058593	0.013766659545898436	0.1640028137207031	0.49591064453125	-4.802703857421875	-3.093719482421875	9.967061511230469	0.5446808776855468	-0.16819266662597654	2.5177001953125	-4.43267822265625	-1.800537109375	
17	0.068	0.0	0.0	0.0	0.0	0.006	0.003	0.006	0.006	9.87727894897461	0.1693897674560547	0.032920272827148434	2.620697021484375	-3.73077392578125	-0.957489013671875	9.78629928588867	0.010175357055664061	0.1640028137207031	0.640869140625	-5.115509033203125	-3.162384033203125	9.967061511230469	0.5404910247802734	-0.16699556579589842	2.613067626953125	-4.63104248046875	-1.70135498046875	
18	0.07200000000000001	0.0	0.0	0.0	0.0	0.006	0.003	0.006	0.006	9.86411083984375	0.16041151123046873	0.025139117431640625	2.50244140625	-3.696441650390625	-0.8392333984375	9.785102185058593	0.006584054565429687	0.16041151123046873	0.762939453125	-5.229949951171875	-2.994537353515625	9.962871658325195	0.5404910247802734	-0.1753752716064453	2.76947021484375	-4.5013427734375	-1.773834228515625	
19	0.076	0.0	0.0	0.0	0.0	0.006	0.006	0.003	0.006	9.868899243164062	0.16340426330566404	0.03531447448730469	2.628326416015625	-3.7384033203125	-0.7781982421875	9.784503634643555	0.010773907470703125	0.16220716247558592	0.58746337890625	-5.008697509765625	-2.979278564453125	9.967061511230469	0.5386953735351562	-0.17477672119140625	2.864837646484375	-4.802703857421875	-1.6326904296875	
20	0.08	0.0	0.0	0.0	0.0	0.003	0.006	0.003	0.003	9.87069489440918	0.16160861206054686	0.052073886108398436	2.5787353515625	-3.772735595703125	-0.988006591796875	9.783905084228515	0.018555062866210937	0.1693897674560547	0.48828125	-4.98199462890625	-2.96783447265625	9.97184991455078	0.5392939239501953	-0.16160861206054686	2.8228759765625	-4.7454833984375	-1.873016357421875	
21	0.084	0.0	0.0	0.0	0.0	0.003	0.003	0.003	0.003	9.872490545654296	0.1657984649658203	0.04608838195800781	2.47955322265625	-3.765106201171875	-0.637054443359375	9.78629928588867	0.006584054565429687	0.17298106994628906	0.499725341796875	-5.191802978515625	-2.880096435546875	9.968857162475585	0.5440823272705078	-0.16460136413574217	2.750396728515625	-4.67681884765625	-1.644134521484375	
22	0.088	0.0	0.0	0.0	0.0	0.003	0.006	0.006	0.003	9.868300692749022	0.16160861206054686	0.04189852905273437	2.532958984375	-3.856658935546875	-1.03759765625	9.782109432983399	0.012569558715820313	0.17357962036132812	0.22125244140625	-4.8675537109375	-3.11279296875	9.962273107910155	0.5404910247802734	-0.17357962036132812	2.6702880859375	-4.589080810546875	-1.77001953125	
23	0.092	0.0	0.0	0.0	0.0	0.003	0.003	0.006	0.003	9.860519537353515	0.15981296081542967	0.0430956298828125	2.410888671875	-3.70025634765625	-0.858306884765625	9.785700735473633	0.011372457885742187	0.17298106994628906	0.3509521484375	-5.039215087890625	-3.02886962890625	9.957484704589843	0.546476528930664	-0.1753752716064453	2.712249755859375	-4.665374755859375	-1.62506103515625	
24	0.096	0.0	0.0	0.0	0.0	0.003	0.006	0.006	0.006	9.865906491088866	0.16340426330566404	0.04608838195800781	2.4261474609375	-3.88336181640625	-0.93841552734375	9.794678991699218	0.0143652099609375	0.18435352783203124	0.347137451171875	-4.92095947265625	-2.979278564453125	9.973047015380859	0.5416881256103515	-0.17776947326660156	2.471923828125	-4.665374755859375	-1.682281494140625	
25	0.1	0.0	0.0	0.0	0.0	0.006	0.003	0.003	0.006	9.873089096069336	0.16220716247558592	0.04608838195800781	2.384185791015625	-3.955841064453125	-0.6256103515625	9.787496386718749	0.015562310791015624	0.16998831787109375	0.31280517578125	-4.95147705078125	-2.902984619140625	9.96586441040039	0.5476736297607422	-0.17477672119140625	2.643585205078125	-4.7149658203125	-1.64031982421875	
26	0.10400000000000001	0.0	0.0	0.0	0.0	0.006	0.006	0.006	0.003	9.86291373901367	0.16519991455078123	0.04548983154296875	2.407073974609375	-3.86810302734375	-0.789642333984375	9.792284790039062	0.014963760375976562	0.17776947326660156	0.64849853515625	-4.917144775390625	-3.009796142578125	9.961076007080077	0.5428852264404297	-0.17178396911621094	2.4871826171875	-4.69207763671875	-1.7242431640625	
27	0.108	0.0	0.0	0.0	0.0	0.006	0.006	0.003	0.003	9.86411083984375	0.16160861206054686	0.03950432739257812	2.338409423828125	-4.154205322265625	-0.843048095703125	9.78629928588867	0.013168109130859374	0.1801636749267578	0.339508056640625	-4.78363037109375	-3.082275390625	9.96586441040039	0.546476528930664	-0.17417817077636719	2.643585205078125	-4.489898681640625	-1.491546630859375	
28	0.112	0.0	0.0	0.0	0.0	0.009000000000000001	0.006	0.006	0.003	9.868899243164062	0.16998831787109375	0.04249707946777344	2.513885498046875	-3.7078857421875	-0.766754150390625	9.789890588378906	0.008379705810546874	0.17956512451171874	0.637054443359375	-5.046844482421875	-3.10516357421875	9.961076007080077	0.5470750793457031	-0.1657984649658203	2.765655517578125	-4.79888916015625	-1.64794921875	
29	0.116	0.0	0.0	0.0	0.0	0.0	0.006	0.003	0.006	9.865307940673828	0.16819266662597654	0.04668693237304687	2.49481201171875	-3.73077392578125	-0.8087158203125	9.78629928588867	0.016759411621093748	0.16819266662597654	0.5645751953125	-4.871368408203125	-3.16619873046875	9.962273107910155	0.5476736297607422	-0.1753752716064453	2.685546875	-4.66156005859375	-1.6937255859375	
30	0.12	0.0	0.0	0.0	0.0	0.003	0.003	0.003	0.003	9.865307940673828	0.17477672119140625	0.040701428222656245	2.4566650390625	-3.681182861328125	-0.762939453125	9.783905084228515	0.017357962036132813	0.17896657409667968	0.69427490234375	-5.14984130859375	-3.2958984375	9.968258612060547	0.5452794281005859	-0.17178396911621094	2.803802490234375	-4.604339599609375	-1.7242431640625	
31	0.124	0.0	0.0	0.0	0.0	0.003	0.006	0.003	0.003	9.86291373901367	0.1640028137207031	0.047285482788085934	2.47955322265625	-3.7841796875	-0.9765625	9.784503634643555	0.023942016601562498	0.16639701538085935	0.370025634765625	-5.13458251953125	-3.093719482421875	9.973047015380859	0.5476736297607422	-0.16340426330566404	2.758026123046875	-4.650115966796875	-1.7242431640625	
32	0.128	0.0	0.0	0.0	0.0	0.003	0.003	0.006	0.006	9.874286196899414	0.16280571289062498	0.0430956298828125	2.506256103515625	-3.894805908203125	-0.6866455078125	9.785700735473633	0.016759411621093748	0.18315642700195311	0.270843505859375	-4.955291748046875	-3.04412841796875	9.964667309570311	0.5452794281005859	-0.17417817077636719	2.620697021484375	-4.70733642578125	-1.850128173828125	
33	0.132	0.0	0.0	0.0	0.0	0.003	0.006	0.003	0.006	9.865307940673828	0.16041151123046873	0.04249707946777344	2.552032470703125	-3.71551513671875	-0.720977783203125	9.787496386718749	0.013766659545898436	0.1849520782470703	0.507354736328125	-4.962921142578125	-2.99072265625	9.970054263305663	0.5458779785156249	-0.18136077575683593	2.685546875	-4.9591064453125	-1.60980224609375	
34	0.136	0.0	0.0	0.0	0.0	0.003	0.006	0.003	0.003	9.86411083984375	0.15981296081542967	0.044891281127929686	2.66265869140625	-4.058837890625	-0.850677490234375	9.784503634643555	0.010773907470703125	0.18854338073730467	0.60272216796875	-5.039215087890625	-3.13568115234375	9.958681805419921	0.5506663818359374	-0.17298106994628906	2.70843505859375	-4.69207763671875	-1.873016357421875	
35	0.14	0.0	0.0	0.0	0.0	0.006	0.003	0.006	0.006	9.86291373901367	0.16998831787109375	0.04908113403320312	2.635955810546875	-3.631591796875	-0.72479248046875	9.787496386718749	0.014963760375976562	0.18854338073730467	0.5035400390625	-5.176544189453125	-3.02886962890625	9.964068759155273	0.5500678314208984	-0.16519991455078123	2.429962158203125	-4.459381103515625	-1.789093017578125	
36	0.14400000000000002	0.0	0.0	0.0	0.0	0.003	0.003	0.003	0.006	9.86411083984375	0.16280571289062498	0.040102877807617184	2.46429443359375	-3.536224365234375	-0.91552734375	9.787496386718749	0.013766659545898436	0.1879448303222656	0.774383544921875	-4.95147705078125	-3.009796142578125	9.961076007080077	0.5482721801757812	-0.17417817077636719	2.735137939453125	-4.73785400390625	-1.7242431640625	
37	0.148	0.0	0.0	0.0	0.0	0.003	0.006	0.006	0.003	9.871293444824218	0.16460136413574217	0.044292730712890624	2.414703369140625	-3.673553466796875	-0.942230224609375	9.783306533813477	0.02154781494140625	0.1849520782470703	0.4119873046875	-4.962921142578125	-3.070831298828125	9.964667309570311	0.5428852264404297	-0.16519991455078123	2.651214599609375	-4.8675537109375	-1.983642578125	
38	0.152	0.0	0.0	0.0	0.0	0.003	0.006	0.003	0.006	9.87727894897461	0.1693897674560547	0.051475335693359374	2.490997314453125	-3.692626953125	-0.9002685546875	9.787496386718749	0.015562310791015624	0.18315642700195311	0.644683837890625	-5.11932373046875	-2.964019775390625	9.969455712890625	0.5422866760253906	-0.16699556579589842	2.971649169921875	-4.863739013671875	-1.739501953125	
39	0.156	0.0	0.0	0.0	0.0	0.006	0.003	0.003	0.003	9.871891995239258	0.17238251953125	0.051475335693359374	2.483367919921875	-3.818511962890625	-0.8087158203125	9.783905084228515	0.011372457885742187	0.1771709228515625	0.48065185546875	-4.96673583984375	-3.18145751953125	9.969455712890625	0.5434837768554687	-0.16639701538085935	2.7008056640625	-4.482269287109375	-1.8310546875	
40	0.16	0.0	0.0	0.0	0.0	0.006	0.003	0.006	0.006	9.873089096069336	0.16460136413574217	0.0526724365234375	2.38800048828125	-3.780364990234375	-0.72479248046875	9.788094937133788	0.018555062866210937	0.17058686828613281	0.484466552734375	-5.138397216796875	-2.964019775390625	9.968258612060547	0.5392939239501953	-0.15442600708007811	2.5787353515625	-4.57000732421875	-1.79290771484375	
41	0.164	0.0	0.0	0.0	0.0	0.003	0.003	0.006	0.003	9.865906491088866	0.16340426330566404	0.05985504150390625	2.437591552734375	-3.9215087890625	-0.698089599609375	9.783905084228515	0.010773907470703125	0.181959326171875	0.675201416015625	-5.0811767578125	-3.108978271484375	9.96047745666504	0.5404910247802734	-0.1514332550048828	2.483367919921875	-4.673004150390625	-1.67083740234375	
42	0.168	0.0	0.0	0.0	0.0	0.0	0.003	0.006	0.006	9.874884747314452	0.16041151123046873	0.04908113403320312	2.414703369140625	-3.498077392578125	-0.701904296875	9.781510882568359	0.013168109130859374	0.1753752716064453	0.732421875	-4.940032958984375	-3.147125244140625	9.954491952514648	0.5410895751953124	-0.1640028137207031	2.7923583984375	-4.924774169921875	-1.773834228515625	
43	0.17200000000000001	0.0	0.0	0.0	0.0	0.003	0.003	0.003	0.006	9.87009634399414	0.17058686828613281	0.04608838195800781	2.51007080078125	-3.604888916015625	-0.95367431640625	9.783905084228515	0.0143652099609375	0.18435352783203124	0.530242919921875	-5.054473876953125	-3.10516357421875	9.96586441040039	0.5374982727050781	-0.16460136413574217	2.8839111328125	-4.64630126953125	-1.811981201171875	
44	0.176	0.0	0.0	0.0	0.0	0.006	0.006	0.006	0.0	9.8694977935791	0.15861585998535155	0.044292730712890624	2.8228759765625	-3.765106201171875	-0.980377197265625	9.785102185058593	0.0053869537353515625	0.1753752716064453	0.45013427734375	-5.39398193359375	-3.192901611328125	9.967061511230469	0.5345055206298828	-0.17417817077636719	2.834320068359375	-4.57000732421875	-1.8463134765625	
45	0.18	0.0	0.0	0.0	0.0	0.003	0.003	0.006	0.006	9.867103591918944	0.1562216583251953	0.05027823486328125	2.64739990234375	-3.887176513671875	-0.701904296875	9.787496386718749	0.001197100830078125	0.17238251953125	0.621795654296875	-5.062103271484375	-3.13568115234375	9.96047745666504	0.5386953735351562	-0.1771709228515625	2.391815185546875	-4.53948974609375	-1.659393310546875	
46	0.184	0.0	0.0	0.0	0.0	0.006	0.006	0.006	0.006	9.875483297729492	0.16220716247558592	0.04548983154296875	2.593994140625	-3.86810302734375	-0.91552734375	9.785102185058593	0.003591302490234375	0.17357962036132812	0.7476806640625	-5.1727294921875	-3.253936767578125	9.980229620361328	0.5446808776855468	-0.16998831787109375	2.765655517578125	-4.627227783203125	-1.678466796875	
47	0.188	0.0	0.0	0.0	0.0	0.003	0.003	0.003	0.003	9.868899243164062	0.16220716247558592	0.0430956298828125	2.513885498046875	-3.849029541015625	-0.8544921875	9.783306533813477	0.007781155395507812	0.1580173095703125	0.6561279296875	-5.031585693359375	-3.093719482421875	9.975441217041014	0.5333084197998047	-0.17477672119140625	2.712249755859375	-4.543304443359375	-2.010345458984375	
48	0.192	0.0	0.0	0.0	0.0	0.003	0.006	0.003	0.006	9.867702142333984	0.1592144104003906	0.040701428222656245	2.3345947265625	-3.803253173828125	-0.75531005859375	9.783905084228515	0.011971008300781249	0.17058686828613281	0.667572021484375	-5.21087646484375	-3.185272216796875	9.968258612060547	0.5327098693847656	-0.1640028137207031	2.758026123046875	-4.650115966796875	-1.56402587890625	
49	0.196	0.0	0.0	0.0	0.0	0.003	0.003	0.003	0.003	9.867702142333984	0.15203180541992187	0.025737667846679687	2.536773681640625	-3.6163330078125	-0.652313232421875	9.782109432983399	0.011971008300781249	0.17477672119140625	0.70953369140625	-4.9591064453125	-3.15093994140625	9.968258612060547	0.5339069702148437	-0.17836802368164062	2.64739990234375	-4.6844482421875	-1.781463623046875	
50	0.2	0.0	0.0	0.0	0.0	0.006	0.003	0.006	0.006	9.874884747314452	0.16160861206054686	0.032920272827148434	2.521514892578125	-3.726959228515625	-0.926971435546875	9.783905084228515	0.010175357055664061	0.16879121704101563	0.446319580078125	-5.207061767578125	-3.13568115234375	9.956287603759765	0.5416881256103515	-0.17417817077636719	2.490997314453125	-4.57763671875	-1.708984375	
51	0.20400000000000001	0.0	0.0	0.0	0.0	0.006	0.003	0.003	0.006	9.86411083984375	0.15682020874023436	0.034715924072265626	2.635955810546875	-3.704071044921875	-0.79345703125	9.785102185058593	0.00718260498046875	0.17238251953125	0.46539306640625	-5.2032470703125	-3.162384033203125	9.964068759155273	0.5404910247802734	-0.17118541870117188	2.6702880859375	-4.734039306640625	-1.651763916015625	
52	0.20800000000000002	0.0	0.0	0.0	0.0	0.006	0.006	0.006	0.003	9.865307940673828	0.15083470458984374	0.04249707946777344	2.590179443359375	-3.73077392578125	-0.843048095703125	9.782109432983399	0.008379705810546874	0.16340426330566404	0.66375732421875	-4.98199462890625	-2.994537353515625	9.97125136413574	0.546476528930664	-0.16699556579589842	2.597808837890625	-4.688262939453125	-1.73187255859375	
53	0.212	0.0	0.0	0.0	0.0	0.003	0.003	0.006	0.006	9.864709390258788	0.15502455749511718	0.022146365356445312	2.483367919921875	-3.887176513671875	-0.827789306640625	9.788693487548828	-0.00239420166015625	0.15502455749511718	0.40435791015625	-4.726409912109375	-3.12042236328125	9.970054263305663	0.5327098693847656	-0.16998831787109375	2.57110595703125	-4.63104248046875	-1.7242431640625	
54	0.216	0.0	0.0	0.0	0.0	0.006	0.003	0.006	0.006	9.862315188598632	0.15682020874023436	0.025139117431640625	2.407073974609375	-3.74603271484375	-0.77056884765625	9.782707983398437	0.002992752075195312	0.16340426330566404	0.499725341796875	-5.016326904296875	-3.143310546875	9.974244116210937	0.5410895751953124	-0.16759411621093748	2.834320068359375	-4.840850830078125	-1.85394287109375	
55	0.22	0.0	0.0	0.0	0.0	0.006	0.003	0.003	0.003	9.866505041503906	0.15382745666503905	0.025737667846679687	2.422332763671875	-3.910064697265625	-0.804901123046875	9.789890588378906	0.007781155395507812	0.1562216583251953	0.652313232421875	-5.008697509765625	-2.826690673828125	9.973645565795898	0.5392939239501953	-0.16639701538085935	2.8228759765625	-4.6844482421875	-1.773834228515625	
56	0.224	0.0	0.0	0.0	0.0	0.006	0.006	0.006	0.006	9.86411083984375	0.16340426330566404	0.04249707946777344	2.5482177734375	-3.856658935546875	-0.762939453125	9.790489138793944	0.005985504150390624	0.16160861206054686	0.461578369140625	-4.962921142578125	-3.162384033203125	9.967061511230469	0.5363011718749999	-0.17357962036132812	2.70843505859375	-4.82177734375	-1.811981201171875	
57	0.228	0.0	0.0	0.0	0.0	0.006	0.006	0.003	0.003	9.86351228942871	0.15861585998535155	0.037110125732421874	2.5787353515625	-3.833770751953125	-0.6256103515625	9.787496386718749	0.00718260498046875	0.16519991455078123	0.690460205078125	-5.218505859375	-3.162384033203125	9.969455712890625	0.5345055206298828	-0.18315642700195311	2.6092529296875	-4.5166015625	-1.773834228515625	
58	0.232	0.0	0.0	0.0	0.0	0.0	0.003	0.003	0.006	9.871293444824218	0.1592144104003906	0.030526071166992186	2.536773681640625	-3.849029541015625	-0.942230224609375	9.785102185058593	0.007781155395507812	0.1610100616455078	0.5340576171875	-4.8065185546875	-3.002166748046875	9.962871658325195	0.5327098693847656	-0.17836802368164062	2.73895263671875	-4.665374755859375	-1.77764892578125	
59	0.23600000000000002	0.0	0.0	0.0	0.0	0.006	0.006	0.003	0.006	9.867103591918944	0.16220716247558592	0.034715924072265626	2.44140625	-3.95965576171875	-0.80108642578125	9.787496386718749	0.008978256225585938	0.1657984649658203	0.78582763671875	-5.31768798828125	-2.99072265625	9.961674557495117	0.5380968231201172	-0.1640028137207031	2.529144287109375	-4.791259765625	-1.68609619140625	
60	0.24	0.0	0.0	0.0	0.0	0.006	0.006	0.003	0.009000000000000001	9.87009634399414	0.16819266662597654	0.051475335693359374	2.376556396484375	-3.66973876953125	-0.690460205078125	9.78629928588867	0.010773907470703125	0.16879121704101563	0.54931640625	-4.94384765625	-2.96783447265625	9.970652813720703	0.5404910247802734	-0.17118541870117188	2.72369384765625	-4.6844482421875	-1.86920166015625	
61	0.244	0.0	0.0	0.0	0.0	0.006	0.003	0.006	0.006	9.865307940673828	0.1592144104003906	0.04848258361816406	2.460479736328125	-4.856109619140625	-0.675201416015625	9.78629928588867	0.012569558715820313	0.17836802368164062	0.579833984375	-5.062103271484375	-3.047943115234375	9.967061511230469	0.5416881256103515	-0.1753752716064453	2.70843505859375	-4.650115966796875	-1.77001953125	
62	0.248	0.0	0.0	0.0	0.0	0.003	0.003	0.006	0.006	9.87668039855957	0.15741875915527342	0.051475335693359374	2.49481201171875	-3.5552978515625	-0.701904296875	9.785102185058593	0.005985504150390624	0.17118541870117188	0.54931640625	-5.04302978515625	-3.124237060546875	9.975441217041014	0.5380968231201172	-0.16340426330566404	2.655029296875	-4.60052490234375	-1.613616943359375	
63	0.252	0.0	0.0	0.0	0.0	0.0	0.006	0.006	0.003	9.867702142333984	0.16340426330566404	0.051475335693359374	2.40325927734375	-3.536224365234375	-0.7476806640625	9.785102185058593	-0.010175357055664061	0.17118541870117188	0.446319580078125	-5.100250244140625	-3.398895263671875	9.973047015380859	0.5404910247802734	-0.1657984649658203	2.819061279296875	-4.58526611328125	-1.750946044921875	
64	0.256	0.0	0.0	0.0	0.0	0.003	0.006	0.006	0.003	9.868300692749022	0.1640028137207031	0.04848258361816406	2.628326416015625	-3.864288330078125	-0.701904296875	9.785102185058593	0.004189852905273437	0.17058686828613281	0.5035400390625	-5.13458251953125	-3.143310546875	9.973047015380859	0.5422866760253906	-0.16460136413574217	2.811431884765625	-4.779815673828125	-1.865386962890625	
65	0.26	0.0	0.0	0.0	0.0	0.003	0.003	0.003	0.003	9.864709390258788	0.1592144104003906	0.044292730712890624	2.3345947265625	-3.887176513671875	-0.858306884765625	9.784503634643555	0.013766659545898436	0.18914193115234373	0.244140625	-4.978179931640625	-3.0059814453125	9.964068759155273	0.5386953735351562	-0.16340426330566404	2.8839111328125	-4.791259765625	-1.79290771484375	
66	0.264	0.0	0.0	0.0	0.0	0.003	0.006	0.003	0.006	9.861716638183593	0.1562216583251953	0.044292730712890624	2.54058837890625	-3.692626953125	-0.835418701171875	9.78629928588867	0.006584054565429687	0.17178396911621094	0.545501708984375	-5.062103271484375	-3.16619873046875	9.958083255004881	0.5434837768554687	-0.16879121704101563	2.681732177734375	-4.673004150390625	-1.6937255859375	
67	0.268	0.0	0.0	0.0	0.0	0.006	0.003	0.003	0.006	9.873687646484374	0.16041151123046873	0.04129997863769531	2.460479736328125	-3.8909912109375	-0.881195068359375	9.785102185058593	0.0017956512451171875	0.16220716247558592	0.461578369140625	-5.25665283203125	-3.021240234375	9.97125136413574	0.5446808776855468	-0.16699556579589842	2.811431884765625	-4.547119140625	-1.689910888671875	
68	0.272	0.0	0.0	0.0	0.0	0.006	0.003	0.006	0.003	9.868899243164062	0.15861585998535155	0.04548983154296875	2.559661865234375	-3.833770751953125	-0.736236572265625	9.785102185058593	0.0005985504150390625	0.1610100616455078	0.461578369140625	-4.8828125	-2.902984619140625	9.963470208740233	0.5434837768554687	-0.16998831787109375	2.60162353515625	-4.581451416015625	-1.789093017578125	
69	0.276	0.0	0.0	0.0	0.0	0.0	0.003	0.003	0.003	9.866505041503906	0.16460136413574217	0.047285482788085934	2.41851806640625	-3.696441650390625	-0.9002685546875	9.785102185058593	0.006584054565429687	0.1771709228515625	0.553131103515625	-5.11932373046875	-3.040313720703125	9.963470208740233	0.5398924743652344	-0.16819266662597654	2.63214111328125	-4.85992431640625	-1.983642578125	
70	0.28	0.0	0.0	0.0	0.0	0.003	0.006	0.003	0.003	9.862315188598632	0.16160861206054686	0.037708676147460936	2.452850341796875	-3.650665283203125	-0.797271728515625	9.785700735473633	0.006584054565429687	0.18136077575683593	0.35858154296875	-5.05828857421875	-3.086090087890625	9.96047745666504	0.5351040710449219	-0.17058686828613281	2.4871826171875	-4.825592041015625	-1.82342529296875	
71	0.28400000000000003	0.0	0.0	0.0	0.0	0.006	0.006	0.003	0.006	9.87009634399414	0.1580173095703125	0.040102877807617184	2.51007080078125	-4.02069091796875	-0.89263916015625	9.784503634643555	0.002992752075195312	0.17178396911621094	0.4730224609375	-5.14984130859375	-2.971649169921875	9.973047015380859	0.5440823272705078	-0.16699556579589842	2.864837646484375	-4.53948974609375	-1.750946044921875	
72	0.28800000000000003	0.0	0.0	0.0	0.0	0.006	0.003	0.003	0.003	9.859322436523437	0.15203180541992187	0.037110125732421874	2.628326416015625	-3.734588623046875	-0.896453857421875	9.78629928588867	0.004189852905273437	0.17178396911621094	0.759124755859375	-5.0048828125	-3.18145751953125	9.964667309570311	0.5410895751953124	-0.15562310791015624	2.880096435546875	-4.772186279296875	-1.97601318359375	
73	0.292	0.0	0.0	0.0	0.0	-0.003	0.003	0.003	0.003	9.868300692749022	0.16460136413574217	0.04369418029785156	2.35748291015625	-3.841400146484375	-0.682830810546875	9.785102185058593	0.007781155395507812	0.17477672119140625	0.972747802734375	-5.153656005859375	-3.017425537109375	9.962273107910155	0.5410895751953124	-0.16639701538085935	2.51007080078125	-4.421234130859375	-1.73187255859375	
74	0.296	0.0	0.0	0.0	0.0	0.003	0.006	0.003	0.006	9.868899243164062	0.16041151123046873	0.05327098693847656	2.574920654296875	-3.986358642578125	-0.91552734375	9.785102185058593	0.008379705810546874	0.17238251953125	0.484466552734375	-4.749298095703125	-2.964019775390625	9.967061511230469	0.535702621459961	-0.16759411621093748	2.758026123046875	-4.367828369140625	-1.697540283203125	
75	0.3	0.0	0.0	0.0	0.0	0.006	0.003	0.006	0.003	9.867103591918944	0.16340426330566404	0.0526724365234375	2.590179443359375	-4.001617431640625	-0.782012939453125	9.784503634643555	0.017956512451171875	0.17776947326660156	0.70953369140625	-4.978179931640625	-3.08990478515625	9.961076007080077	0.5434837768554687	-0.16280571289062498	2.838134765625	-4.72259521484375	-1.7852783203125	
76	0.304	0.0	0.0	0.0	0.0	0.003	0.006	0.006	0.003	9.859920986938477	0.16460136413574217	0.04848258361816406	2.552032470703125	-3.72314453125	-1.079559326171875	9.782707983398437	0.010175357055664061	0.17657237243652343	0.492095947265625	-4.82940673828125	-2.99072265625	9.964068759155273	0.5416881256103515	-0.16639701538085935	2.658843994140625	-4.61578369140625	-1.750946044921875	
77	0.308	0.0	0.0	0.0	0.0	0.006	0.003	0.003	0.006	9.879673150634765	0.15981296081542967	0.047285482788085934	2.40325927734375	-3.875732421875	-0.9613037109375	9.785700735473633	0.023343466186523436	0.1867477294921875	0.7781982421875	-4.985809326171875	-3.0670166015625	9.968857162475585	0.5404910247802734	-0.17118541870117188	2.826690673828125	-4.79888916015625	-2.05230712890625	
78	0.312	0.0	0.0	0.0	0.0	0.003	0.003	0.003	0.006	9.874884747314452	0.15981296081542967	0.052073886108398436	2.307891845703125	-3.742218017578125	-0.98419189453125	9.785102185058593	0.008978256225585938	0.17357962036132812	0.095367431640625	-4.99725341796875	-3.1280517578125	9.973645565795898	0.546476528930664	-0.16759411621093748	2.75421142578125	-4.791259765625	-1.895904541015625	
79	0.316	0.0	0.0	0.0	0.0	0.009000000000000001	0.003	0.006	0.006	9.871293444824218	0.16819266662597654	0.047884033203124995	2.5482177734375	-3.841400146484375	-0.713348388671875	9.78629928588867	0.0047884033203125	0.18435352783203124	0.5950927734375	-4.962921142578125	-2.8533935546875	9.962871658325195	0.5333084197998047	-0.16220716247558592	2.628326416015625	-4.695892333984375	-1.7547607421875	
80	0.32	0.0	0.0	0.0	0.0	0.003	0.003	0.006	0.003	9.865307940673828	0.16220716247558592	0.04967968444824218	2.55584716796875	-3.704071044921875	-1.041412353515625	9.784503634643555	0.005985504150390624	0.1657984649658203	0.6866455078125	-5.14984130859375	-3.21197509765625	9.964068759155273	0.5416881256103515	-0.16998831787109375	2.716064453125	-4.665374755859375	-1.804351806640625	
81	0.324	0.0	0.0	0.0	0.0	0.003	0.003	0.003	0.003	9.860519537353515	0.16819266662597654	0.03950432739257812	2.574920654296875	-3.7384033203125	-0.81634521484375	9.78629928588867	-0.002992752075195312	0.15562310791015624	0.690460205078125	-5.19561767578125	-3.093719482421875	9.97244846496582	0.5422866760253906	-0.16699556579589842	2.63214111328125	-4.840850830078125	-1.712799072265625	
82	0.328	0.0	0.0	0.0	0.0	0.003	0.003	0.003	0.006	9.864709390258788	0.15861585998535155	0.03531447448730469	2.288818359375	-3.986358642578125	-0.888824462890625	9.78629928588867	0.0017956512451171875	0.16160861206054686	0.55694580078125	-5.340576171875	-3.021240234375	9.967061511230469	0.5434837768554687	-0.15981296081542967	2.6092529296875	-4.688262939453125	-1.888275146484375	
83	0.332	0.0	0.0	0.0	0.0	0.006	0.003	0.006	0.003	9.864709390258788	0.15861585998535155	0.03890577697753906	2.498626708984375	-3.871917724609375	-0.81634521484375	9.783905084228515	0.011971008300781249	0.1771709228515625	0.522613525390625	-5.1422119140625	-3.21197509765625	9.95987890625	0.5434837768554687	-0.16998831787109375	2.902984619140625	-4.425048828125	-1.88446044921875	
84	0.336	0.0	0.0	0.0	0.0	0.003	0.003	0.003	0.003	9.858723886108399	0.16280571289062498	0.029927520751953124	2.574920654296875	-3.879547119140625	-0.759124755859375	9.789292037963866	0.003591302490234375	0.1562216583251953	0.66375732421875	-4.99725341796875	-3.05938720703125	9.97783541870117	0.5476736297607422	-0.17896657409667968	2.643585205078125	-4.50897216796875	-1.89208984375	
85	0.34	0.0	0.0	0.0	0.0	0.003	0.003	0.003	0.006	9.86411083984375	0.15682020874023436	0.037110125732421874	2.330780029296875	-3.955841064453125	-0.957489013671875	9.784503634643555	-0.0053869537353515625	0.1610100616455078	0.568389892578125	-5.1422119140625	-3.200531005859375	9.967061511230469	0.5428852264404297	-0.17597382202148437	2.613067626953125	-4.703521728515625	-1.77764892578125	
86	0.34400000000000003	0.0	0.0	0.0	0.0	0.006	0.006	0.003	0.006	9.873089096069336	0.16699556579589842	0.03950432739257812	2.468109130859375	-3.7384033203125	-0.820159912109375	9.783905084228515	0.003591302490234375	0.16460136413574217	0.537872314453125	-4.82177734375	-3.185272216796875	9.954491952514648	0.5422866760253906	-0.17597382202148437	2.971649169921875	-4.49371337890625	-1.796722412109375	
87	0.34800000000000003	0.0	0.0	0.0	0.0	0.006	0.003	0.003	0.003	9.868300692749022	0.16460136413574217	0.04608838195800781	2.51007080078125	-3.7689208984375	-0.7781982421875	9.784503634643555	0.009576806640625	0.14963760375976562	0.553131103515625	-4.932403564453125	-3.131866455078125	9.969455712890625	0.5398924743652344	-0.17178396911621094	2.685546875	-4.848480224609375	-1.842498779296875	
88	0.352	0.0	0.0	0.0	0.0	0.003	0.003	0.003	0.003	9.86291373901367	0.16699556579589842	0.033518823242187495	2.666473388671875	-3.803253173828125	-0.67901611328125	9.778518130493163	0.014963760375976562	0.1610100616455078	0.568389892578125	-4.96673583984375	-3.04412841796875	9.973645565795898	0.5410895751953124	-0.1640028137207031	2.735137939453125	-4.82940673828125	-1.85394287109375	
89	0.356	0.0	0.0	0.0	0.0	0.006	0.003	0.003	0.006	9.871293444824218	0.17357962036132812	0.03651157531738281	2.46429443359375	-3.62396240234375	-0.881195068359375	9.776123928833007	0.005985504150390624	0.1657984649658203	0.255584716796875	-5.321502685546875	-2.96783447265625	9.962273107910155	0.546476528930664	-0.17776947326660156	2.49481201171875	-4.57000732421875	-1.77764892578125	
90	0.36	0.0	0.0	0.0	0.0	0.006	0.006	0.003	0.006	9.8694977935791	0.16041151123046873	0.029328970336914062	2.41851806640625	-3.80706787109375	-0.72479248046875	9.783306533813477	0.010773907470703125	0.18255787658691405	0.55694580078125	-4.985809326171875	-3.192901611328125	9.967660061645507	0.5374982727050781	-0.18255787658691405	2.58636474609375	-4.673004150390625	-1.65557861328125	
91	0.364	0.0	0.0	0.0	0.0	0.006	0.003	0.006	0.006	9.883264453125	0.15263035583496093	0.031124621582031248	2.498626708984375	-3.681182861328125	-0.797271728515625	9.78629928588867	0.012569558715820313	0.17657237243652343	0.598907470703125	-5.18035888671875	-2.986907958984375	9.962273107910155	0.5434837768554687	-0.17597382202148437	2.666473388671875	-4.566192626953125	-1.70135498046875	
92	0.368	0.0	0.0	0.0	0.0	0.003	0.003	0.003	0.003	9.865906491088866	0.1610100616455078	0.037708676147460936	2.529144287109375	-3.749847412109375	-0.926971435546875	9.789890588378906	0.010175357055664061	0.1693897674560547	0.156402587890625	-4.99725341796875	-3.215789794921875	9.962273107910155	0.5392939239501953	-0.18076222534179687	2.857208251953125	-4.8675537109375	-1.64794921875	
93	0.372	0.0	0.0	0.0	0.0	-0.006	0.003	0.006	0.003	9.87069489440918	0.16879121704101563	0.037708676147460936	2.521514892578125	-3.566741943359375	-0.621795654296875	9.784503634643555	0.008978256225585938	0.1801636749267578	0.431060791015625	-5.157470703125	-3.19671630859375	9.968258612060547	0.5452794281005859	-0.16699556579589842	2.681732177734375	-4.6844482421875	-1.667022705078125	
94	0.376	0.0	0.0	0.0	0.0	0.003	0.003	0.003	0.006	9.859322436523437	0.1592144104003906	0.040102877807617184	2.513885498046875	-3.871917724609375	-0.67138671875	9.787496386718749	0.011971008300781249	0.16699556579589842	0.507354736328125	-4.901885986328125	-3.0975341796875	9.961076007080077	0.5518634826660156	-0.18076222534179687	2.498626708984375	-4.5623779296875	-1.537322998046875	
95	0.38	0.0	0.0	0.0	0.0	0.006	0.006	0.003	0.006	9.86411083984375	0.15562310791015624	0.044292730712890624	2.52532958984375	-3.97491455078125	-0.70953369140625	9.784503634643555	0.006584054565429687	0.17178396911621094	0.74005126953125	-4.962921142578125	-3.15093994140625	9.969455712890625	0.5410895751953124	-0.16280571289062498	2.552032470703125	-4.46319580078125	-1.827239990234375	
96	0.384	0.0	0.0	0.0	0.0	0.003	0.006	0.006	0.006	9.861118087768554	0.15562310791015624	0.040102877807617184	2.49481201171875	-3.5552978515625	-0.762939453125	9.782707983398437	0.014963760375976562	0.1771709228515625	0.6561279296875	-4.92095947265625	-3.032684326171875	9.970054263305663	0.5380968231201172	-0.1753752716064453	2.63214111328125	-4.459381103515625	-1.873016357421875	
97	0.388	0.0	0.0	0.0	0.0	0.003	0.003	0.003	0.006	9.860519537353515	0.15741875915527342	0.03591302490234375	2.414703369140625	-3.841400146484375	-0.946044921875	9.778518130493163	0.017357962036132813	0.17118541870117188	0.659942626953125	-5.001068115234375	-3.246307373046875	9.976638317871092	0.5416881256103515	-0.16759411621093748	2.79998779296875	-4.608154296875	-1.674652099609375	
98	0.392	0.0	0.0	0.0	0.0	0.006	0.006	0.003	0.003	9.868899243164062	0.16340426330566404	0.037110125732421874	2.593994140625	-3.688812255859375	-0.9002685546875	9.78629928588867	0.012569558715820313	0.17417817077636719	0.396728515625	-5.382537841796875	-3.07464599609375	9.973047015380859	0.5363011718749999	-0.17118541870117188	2.552032470703125	-4.6539306640625	-1.583099365234375	
99	0.396	0.0	0.0	0.0	0.0	0.003	0.006	0.006	0.006	9.8694977935791	0.15442600708007811	0.03890577697753906	2.5177001953125	-3.76129150390625	-0.804901123046875	9.78031378173828	0.0143652099609375	0.17357962036132812	0.720977783203125	-5.13458251953125	-3.162384033203125	9.970652813720703	0.5440823272705078	-0.16759411621093748	2.83050537109375	-4.795074462890625	-1.903533935546875	
100	0.4	0.0	0.0	0.0	0.0	0.003	0.003	0.006	0.003	9.868899243164062	0.1592144104003906	0.030526071166992186	2.41851806640625	-3.665924072265625	-0.6561279296875	9.785102185058593	0.011971008300781249	0.1801636749267578	0.728607177734375	-5.001068115234375	-3.0975341796875	9.974244116210937	0.5363011718749999	-0.17058686828613281	2.483367919921875	-4.459381103515625	-1.735687255859375	
101	0.404	0.0	0.0	0.0	0.0	0.003	0.006	0.006	0.006	9.871891995239258	0.14784195251464843	0.03950432739257812	2.6397705078125	-3.5858154296875	-0.77056884765625	9.785102185058593	0.007781155395507812	0.1771709228515625	0.74005126953125	-5.18035888671875	-3.0364990234375	9.970054263305663	0.5351040710449219	-0.16699556579589842	2.655029296875	-4.44793701171875	-1.735687255859375	
102	0.40800000000000003	0.0	0.0	0.0	0.0	0.006	0.006	0.006	0.006	9.861716638183593	0.15322890625	0.03890577697753906	2.353668212890625	-3.6773681640625	-0.843048095703125	9.785102185058593	0.006584054565429687	0.17776947326660156	0.3662109375	-4.9591064453125	-3.0670166015625	9.964068759155273	0.5297171173095703	-0.17477672119140625	2.407073974609375	-4.543304443359375	-1.766204833984375	
103	0.41200000000000003	0.0	0.0	0.0	0.0	0.006	0.006	0.003	0.006	9.86411083984375	0.15861585998535155	0.03531447448730469	2.593994140625	-3.787994384765625	-0.659942626953125	9.785700735473633	0.006584054565429687	0.16280571289062498	0.51116943359375	-5.11932373046875	-3.139495849609375	9.963470208740233	0.535702621459961	-0.1927332336425781	2.910614013671875	-4.84466552734375	-1.739501953125	
104	0.41600000000000004	0.0	0.0	0.0	0.0	0.003	0.003	0.006	0.006	9.872490545654296	0.1592144104003906	0.03651157531738281	2.52532958984375	-4.00543212890625	-1.0528564453125	9.785102185058593	0.010175357055664061	0.17357962036132812	0.762939453125	-5.05828857421875	-3.16619873046875	9.952696301269532	0.5339069702148437	-0.1693897674560547	2.6092529296875	-4.673004150390625	-1.89971923828125	
105	0.42	0.0	0.0	0.0	0.0	0.003	0.006	0.003	0.003	9.87668039855957	0.16460136413574217	0.044891281127929686	2.445220947265625	-3.910064697265625	-0.7171630859375	9.784503634643555	0.0047884033203125	0.18315642700195311	0.514984130859375	-5.035400390625	-3.11279296875	9.96586441040039	0.5398924743652344	-0.16220716247558592	2.5482177734375	-4.486083984375	-1.674652099609375	
106	0.424	0.0	0.0	0.0	0.0	0.003	0.006	0.003	0.003	9.87668039855957	0.16879121704101563	0.052073886108398436	2.399444580078125	-3.719329833984375	-0.957489013671875	9.785102185058593	0.0047884033203125	0.17776947326660156	0.732421875	-5.1116943359375	-3.143310546875	9.970652813720703	0.5404910247802734	-0.15502455749511718	2.62451171875	-4.680633544921875	-1.60980224609375	
107	0.428	0.0	0.0	0.0	0.0	0.009000000000000001	0.003	0.006	0.006	9.87009634399414	0.17298106994628906	0.03411737365722656	2.55584716796875	-4.1046142578125	-0.78582763671875	9.785102185058593	0.0047884033203125	0.16699556579589842	0.560760498046875	-5.035400390625	-2.86865234375	9.970652813720703	0.5458779785156249	-0.1562216583251953	2.742767333984375	-4.688262939453125	-1.979827880859375	
108	0.432	0.0	0.0	0.0	0.0	0.006	0.006	0.003	0.003	9.873687646484374	0.15981296081542967	0.044891281127929686	2.460479736328125	-3.814697265625	-0.74005126953125	9.779116680908203	0.0053869537353515625	0.16041151123046873	0.850677490234375	-5.218505859375	-3.200531005859375	9.967660061645507	0.5351040710449219	-0.1610100616455078	2.8228759765625	-4.673004150390625	-1.5869140625	
109	0.436	0.0	0.0	0.0	0.0	0.003	0.003	0.006	0.009000000000000001	9.871891995239258	0.1657984649658203	0.04608838195800781	2.55584716796875	-3.753662109375	-0.583648681640625	9.785700735473633	0.001197100830078125	0.16340426330566404	0.32806396484375	-5.157470703125	-3.0975341796875	9.97783541870117	0.5446808776855468	-0.16340426330566404	2.7008056640625	-4.93621826171875	-2.033233642578125	
110	0.44	0.0	0.0	0.0	0.0	0.009000000000000001	0.003	0.006	0.006	9.86411083984375	0.15562310791015624	0.04249707946777344	2.445220947265625	-3.658294677734375	-0.751495361328125	9.784503634643555	0.007781155395507812	0.16759411621093748	0.514984130859375	-4.9285888671875	-2.979278564453125	9.964667309570311	0.5410895751953124	-0.16340426330566404	2.803802490234375	-4.55474853515625	-1.800537109375	
111	0.444	0.0	0.0	0.0	0.0	0.006	0.003	0.003	0.006	9.879673150634765	0.1657984649658203	0.04668693237304687	2.483367919921875	-3.635406494140625	-0.67901611328125	9.789890588378906	0.003591302490234375	0.16639701538085935	0.43487548828125	-4.7454833984375	-3.154754638671875	9.968258612060547	0.5351040710449219	-0.15741875915527342	2.9449462890625	-4.730224609375	-1.842498779296875	
112	0.448	0.0	0.0	0.0	0.0	0.006	0.003	0.006	0.006	9.879673150634765	0.16879121704101563	0.051475335693359374	2.63214111328125	-3.673553466796875	-0.66375732421875	9.785700735473633	0.0053869537353515625	0.17956512451171874	0.698089599609375	-4.940032958984375	-3.18145751953125	9.97244846496582	0.5386953735351562	-0.16639701538085935	2.742767333984375	-4.53948974609375	-1.89208984375	
113	0.452	0.0	0.0	0.0	0.0	0.003	0.006	0.003	0.006	9.882067352294921	0.16759411621093748	0.03950432739257812	2.407073974609375	-3.742218017578125	-0.835418701171875	9.785102185058593	0.0047884033203125	0.17477672119140625	0.598907470703125	-5.02777099609375	-3.1280517578125	9.96586441040039	0.536899722290039	-0.15861585998535155	2.674102783203125	-4.543304443359375	-1.544952392578125	
114	0.456	0.0	0.0	0.0	0.0	0.003	0.003	0.003	0.003	9.864709390258788	0.16639701538085935	0.05626373901367187	2.834320068359375	-3.871917724609375	-0.95367431640625	9.783905084228515	0.011372457885742187	0.1867477294921875	0.6561279296875	-5.321502685546875	-3.299713134765625	9.957484704589843	0.5363011718749999	-0.1610100616455078	2.74658203125	-4.7149658203125	-1.77001953125	
115	0.46	0.0	0.0	0.0	0.0	0.006	0.003	0.003	0.003	9.867103591918944	0.16460136413574217	0.047285482788085934	2.47955322265625	-3.726959228515625	-0.850677490234375	9.788693487548828	0.017357962036132813	0.1897404815673828	0.7781982421875	-4.993438720703125	-3.1280517578125	9.957484704589843	0.546476528930664	-0.16639701538085935	2.826690673828125	-4.73785400390625	-1.827239990234375	
116	0.464	0.0	0.0	0.0	0.0	0.003	0.003	0.006	0.003	9.883264453125	0.15562310791015624	0.04608838195800781	2.57110595703125	-3.753662109375	-0.79345703125	9.785102185058593	0.012569558715820313	0.1879448303222656	0.461578369140625	-5.11932373046875	-3.1890869140625	9.967660061645507	0.5476736297607422	-0.17238251953125	2.796173095703125	-4.73785400390625	-1.74713134765625	
117	0.468	0.0	0.0	0.0	0.0	0.003	0.006	0.003	0.006	9.8694977935791	0.1657984649658203	0.0383072265625	2.475738525390625	-3.84521484375	-0.934600830078125	9.787496386718749	0.005985504150390624	0.17178396911621094	0.67901611328125	-5.092620849609375	-3.0364990234375	9.955090502929687	0.5416881256103515	-0.1771709228515625	2.4871826171875	-4.405975341796875	-1.7242431640625	
118	0.47200000000000003	0.0	0.0	0.0	0.0	0.006	0.006	0.003	0.003	9.875483297729492	0.16041151123046873	0.04249707946777344	2.559661865234375	-3.856658935546875	-0.812530517578125	9.785102185058593	0.0143652099609375	0.17657237243652343	0.637054443359375	-5.168914794921875	-3.009796142578125	9.958083255004881	0.5345055206298828	-0.18076222534179687	2.63214111328125	-4.634857177734375	-1.796722412109375	
119	0.47600000000000003	0.0	0.0	0.0	0.0	0.009000000000000001	0.006	0.003	0.003	9.86351228942871	0.16519991455078123	0.04249707946777344	2.49481201171875	-3.62396240234375	-0.835418701171875	9.78629928588867	0.009576806640625	0.16759411621093748	0.301361083984375	-5.0201416015625	-3.139495849609375	9.973047015380859	0.5398924743652344	-0.1693897674560547	2.75421142578125	-4.69970703125	-1.728057861328125	
120	0.48	0.0	0.0	0.0	0.0	0.003	0.003	0.003	0.003	9.867702142333984	0.15741875915527342	0.047285482788085934	2.445220947265625	-3.96728515625	-0.89263916015625	9.785102185058593	0.012569558715820313	0.16519991455078123	0.911712646484375	-5.084991455078125	-3.177642822265625	9.96047745666504	0.5494692810058593	-0.181959326171875	2.5787353515625	-4.627227783203125	-1.6937255859375	
121	0.484	0.0	0.0	0.0	0.0	0.006	0.006	0.003	0.003	9.87009634399414	0.16699556579589842	0.054468087768554684	2.47955322265625	-3.894805908203125	-0.90789794921875	9.788693487548828	0.008978256225585938	0.16699556579589842	0.66375732421875	-5.05828857421875	-2.956390380859375	9.965265859985351	0.5542576843261718	-0.18136077575683593	2.796173095703125	-4.581451416015625	-1.789093017578125	
122	0.488	0.0	0.0	0.0	0.0	0.003	0.003	0.003	0.003	9.867103591918944	0.16220716247558592	0.04608838195800781	2.5177001953125	-3.97491455078125	-0.61798095703125	9.789292037963866	0.003591302490234375	0.16519991455078123	0.476837158203125	-5.126953125	-3.032684326171875	9.97783541870117	0.5452794281005859	-0.18375497741699218	2.574920654296875	-4.604339599609375	-1.712799072265625	
123	0.492	0.0	0.0	0.0	0.0	0.003	0.003	0.003	0.006	9.867702142333984	0.1640028137207031	0.03232172241210937	2.513885498046875	-3.936767578125	-0.720977783203125	9.785102185058593	0.003591302490234375	0.16519991455078123	0.591278076171875	-4.817962646484375	-3.04412841796875	9.969455712890625	0.5398924743652344	-0.16819266662597654	2.349853515625	-4.756927490234375	-1.567840576171875	
124	0.496	0.0	0.0	0.0	0.0	0.006	0.003	0.003	0.003	9.860519537353515	0.16340426330566404	0.029328970336914062	2.43377685546875	-3.566741943359375	-0.823974609375	9.787496386718749	-0.006584054565429687	0.1657984649658203	0.637054443359375	-4.924774169921875	-3.185272216796875	9.962871658325195	0.5512649322509765	-0.17836802368164062	2.7618408203125	-4.825592041015625	-1.728057861328125	
125	0.5	0.0	0.0	0.0	0.0	0.006	0.006	0.003	0.003	9.86411083984375	0.1562216583251953	0.0383072265625	2.66265869140625	-3.894805908203125	-0.812530517578125	9.78629928588867	0.009576806640625	0.16819266662597654	0.675201416015625	-5.0048828125	-2.9296875	9.974244116210937	0.5500678314208984	-0.17118541870117188	2.79998779296875	-4.627227783203125	-1.85394287109375	
126	0.504	0.0	0.0	0.0	0.0	0.003	0.006	0.003	0.006	9.872490545654296	0.17357962036132812	0.040701428222656245	2.4566650390625	-3.650665283203125	-0.766754150390625	9.785700735473633	0.008379705810546874	0.15562310791015624	0.492095947265625	-4.909515380859375	-2.89154052734375	9.970054263305663	0.5392939239501953	-0.17477672119140625	2.7313232421875	-4.5318603515625	-1.708984375	
127	0.508	0.0	0.0	0.0	0.0	0.003	0.006	0.003	0.003	9.871891995239258	0.1657984649658203	0.04967968444824218	2.3956298828125	-3.681182861328125	-0.77056884765625	9.785102185058593	0.010773907470703125	0.1640028137207031	0.545501708984375	-5.0048828125	-3.124237060546875	9.975441217041014	0.546476528930664	-0.1753752716064453	2.87628173828125	-4.634857177734375	-1.82342529296875	
128	0.512	0.0	0.0	0.0	0.0	0.003	0.003	0.003	0.003	9.873687646484374	0.16699556579589842	0.052073886108398436	2.521514892578125	-3.54766845703125	-0.8087158203125	9.788693487548828	0.009576806640625	0.17477672119140625	0.492095947265625	-4.98199462890625	-3.070831298828125	9.973047015380859	0.5452794281005859	-0.16699556579589842	2.605438232421875	-4.756927490234375	-1.861572265625	
129	0.516	0.0	0.0	0.0	0.0	0.003	0.003	0.003	0.003	9.861118087768554	0.1640028137207031	0.03890577697753906	2.40325927734375	-3.76129150390625	-0.713348388671875	9.785102185058593	0.010773907470703125	0.18136077575683593	0.598907470703125	-5.218505859375	-3.177642822265625	9.970054263305663	0.5416881256103515	-0.17058686828613281	2.719879150390625	-4.57763671875	-1.621246337890625	
130	0.52	0.0	0.0	0.0	0.0	0.003	0.006	0.003	0.003	9.867702142333984	0.16220716247558592	0.0383072265625	2.590179443359375	-3.72314453125	-0.759124755859375	9.789292037963866	0.008978256225585938	0.1610100616455078	0.5035400390625	-4.962921142578125	-2.880096435546875	9.967061511230469	0.5428852264404297	-0.17657237243652343	2.788543701171875	-4.7454833984375	-1.819610595703125	
131	0.524	0.0	0.0	0.0	0.0	0.003	0.006	0.003	0.003	9.8694977935791	0.16998831787109375	0.03531447448730469	2.536773681640625	-3.8604736328125	-0.6866455078125	9.785700735473633	0.006584054565429687	0.16879121704101563	0.63323974609375	-5.146026611328125	-3.124237060546875	9.957484704589843	0.5488707305908203	-0.17477672119140625	2.704620361328125	-4.70733642578125	-1.65557861328125	
132	0.528	0.0	0.0	0.0	0.0	0.003	0.003	0.003	0.006	9.875483297729492	0.1657984649658203	0.0430956298828125	2.437591552734375	-3.711700439453125	-0.949859619140625	9.789890588378906	0.008978256225585938	0.17477672119140625	0.64849853515625	-4.9896240234375	-3.032684326171875	9.962871658325195	0.5428852264404297	-0.16519991455078123	2.62451171875	-4.520416259765625	-1.617431640625	
133	0.532	0.0	0.0	0.0	0.0	0.006	0.003	0.006	0.006	9.87009634399414	0.16460136413574217	0.03890577697753906	2.4566650390625	-3.7841796875	-0.652313232421875	9.785102185058593	0.0053869537353515625	0.1640028137207031	0.5035400390625	-5.0201416015625	-3.086090087890625	9.952097750854492	0.5482721801757812	-0.17657237243652343	2.651214599609375	-4.63104248046875	-1.678466796875	
134	0.536	0.0	0.0	0.0	0.0	0.003	0.003	0.003	0.006	9.8694977935791	0.16041151123046873	0.04369418029785156	2.5787353515625	-4.024505615234375	-0.78582763671875	9.785102185058593	0.006584054565429687	0.1580173095703125	0.698089599609375	-4.871368408203125	-3.078460693359375	9.966462960815429	0.5398924743652344	-0.17058686828613281	2.66265869140625	-4.6234130859375	-1.77764892578125	
135	0.54	0.0	0.0	0.0	0.0	0.006	0.003	0.006	0.003	9.87069489440918	0.16160861206054686	0.04967968444824218	2.361297607421875	-3.6468505859375	-0.835418701171875	9.788693487548828	-0.0053869537353515625	0.16699556579589842	0.54931640625	-4.848480224609375	-3.147125244140625	9.970054263305663	0.5422866760253906	-0.16759411621093748	2.590179443359375	-4.840850830078125	-1.712799072265625	
136	0.544	0.0	0.0	0.0	0.0	0.003	0.003	0.003	0.006	9.87727894897461	0.16639701538085935	0.04668693237304687	2.361297607421875	-3.53240966796875	-0.78582763671875	9.78629928588867	-0.0017956512451171875	0.1657984649658203	0.507354736328125	-5.069732666015625	-3.12042236328125	9.966462960815429	0.5428852264404297	-0.16699556579589842	2.5634765625	-4.413604736328125	-1.678466796875	
137	0.548	0.0	0.0	0.0	0.0	0.006	0.006	0.003	0.006	9.877877499389648	0.16460136413574217	0.03591302490234375	2.4871826171875	-3.765106201171875	-0.743865966796875	9.783905084228515	0.00239420166015625	0.15981296081542967	0.545501708984375	-5.06591796875	-2.9144287109375	9.95987890625	0.5494692810058593	-0.17298106994628906	2.658843994140625	-4.69207763671875	-1.743316650390625	
138	0.552	0.0	0.0	0.0	0.0	0.006	0.003	0.003	0.009000000000000001	9.87069489440918	0.15562310791015624	0.037110125732421874	2.52532958984375	-3.795623779296875	-0.66375732421875	9.782707983398437	0.00239420166015625	0.17776947326660156	0.54168701171875	-4.8980712890625	-3.082275390625	9.964068759155273	0.5404910247802734	-0.16998831787109375	2.727508544921875	-4.79888916015625	-1.6326904296875	
139	0.556	0.0	0.0	0.0	0.0	0.009000000000000001	0.006	0.006	0.006	9.87668039855957	0.16041151123046873	0.04608838195800781	2.613067626953125	-3.688812255859375	-0.81634521484375	9.78629928588867	-0.002992752075195312	0.1693897674560547	0.637054443359375	-5.275726318359375	-3.025054931640625	9.968857162475585	0.5333084197998047	-0.16759411621093748	2.84576416015625	-4.619598388671875	-1.911163330078125	
140	0.56	0.0	0.0	0.0	0.0	0.003	0.006	0.006	0.006	9.875483297729492	0.1640028137207031	0.04908113403320312	2.574920654296875	-3.7994384765625	-0.980377197265625	9.788094937133788	-0.00239420166015625	0.17298106994628906	0.49591064453125	-4.852294921875	-3.1585693359375	9.97244846496582	0.5339069702148437	-0.17058686828613281	2.7618408203125	-4.665374755859375	-1.89971923828125	
141	0.5640000000000001	0.0	0.0	0.0	0.0	0.003	0.003	0.003	0.003	9.874884747314452	0.15981296081542967	0.051475335693359374	2.471923828125	-3.841400146484375	-0.774383544921875	9.78629928588867	-0.011971008300781249	0.17118541870117188	0.606536865234375	-5.069732666015625	-3.147125244140625	9.966462960815429	0.5392939239501953	-0.1753752716064453	2.8076171875	-4.5928955078125	-1.9989013671875	
142	0.5680000000000001	0.0	0.0	0.0	0.0	-0.003	0.003	0.003	0.003	9.877877499389648	0.16160861206054686	0.04369418029785156	2.521514892578125	-3.940582275390625	-0.896453857421875	9.787496386718749	0.0053869537353515625	0.17238251953125	0.51116943359375	-4.8065185546875	-3.13568115234375	9.96586441040039	0.5398924743652344	-0.17118541870117188	2.582550048828125	-4.60052490234375	-1.697540283203125	
143	0.5720000000000001	0.0	0.0	0.0	0.0	0.003	0.006	0.003	0.003	9.875483297729492	0.16041151123046873	0.04189852905273437	2.460479736328125	-4.150390625	-0.72479248046875	9.787496386718749	0.010773907470703125	0.17417817077636719	0.54931640625	-4.901885986328125	-3.19671630859375	9.958083255004881	0.5452794281005859	-0.1753752716064453	2.685546875	-4.482269287109375	-1.705169677734375	
144	0.5760000000000001	0.0	0.0	0.0	0.0	0.003	0.006	0.003	0.003	9.859920986938477	0.15682020874023436	0.02633621826171875	2.4871826171875	-3.85284423828125	-0.827789306640625	9.782707983398437	0.011971008300781249	0.17657237243652343	0.461578369140625	-5.062103271484375	-3.0975341796875	9.952696301269532	0.5339069702148437	-0.18136077575683593	2.590179443359375	-4.344940185546875	-1.934051513671875	
145	0.58	0.0	0.0	0.0	0.0	0.003	0.003	0.006	0.003	9.859920986938477	0.16160861206054686	0.0383072265625	2.559661865234375	-3.7841796875	-0.850677490234375	9.78629928588867	-0.006584054565429687	0.17178396911621094	0.48065185546875	-5.28717041015625	-3.11279296875	9.964667309570311	0.535702621459961	-0.17417817077636719	2.796173095703125	-4.718780517578125	-1.834869384765625	
146	0.584	0.0	0.0	0.0	0.0	0.003	0.006	0.003	0.006	9.8694977935791	0.16220716247558592	0.03651157531738281	2.368927001953125	-3.681182861328125	-0.644683837890625	9.785102185058593	0.004189852905273437	0.15562310791015624	0.63323974609375	-5.02777099609375	-3.162384033203125	9.967061511230469	0.5404910247802734	-0.15981296081542967	2.849578857421875	-4.72259521484375	-1.74713134765625	
147	0.588	0.0	0.0	0.0	0.0	0.006	0.003	0.003	0.006	9.871293444824218	0.17058686828613281	0.03232172241210937	2.5177001953125	-3.627777099609375	-0.7781982421875	9.787496386718749	-0.00239420166015625	0.16639701538085935	0.5340576171875	-4.878997802734375	-3.0517578125	9.962273107910155	0.5398924743652344	-0.1657984649658203	2.544403076171875	-4.75311279296875	-1.705169677734375	
148	0.592	0.0	0.0	0.0	0.0	0.006	0.003	0.003	0.003	9.873089096069336	0.1580173095703125	0.03591302490234375	2.5482177734375	-3.6468505859375	-0.7476806640625	9.79408044128418	0.006584054565429687	0.16639701538085935	0.637054443359375	-5.19561767578125	-3.269195556640625	9.97903251953125	0.5494692810058593	-0.16220716247558592	2.40325927734375	-4.901885986328125	-1.62506103515625	
149	0.596	0.0	0.0	0.0	0.0	0.003	0.003	0.006	0.006	9.872490545654296	0.16639701538085935	0.037110125732421874	2.460479736328125	-3.849029541015625	-1.049041748046875	9.792284790039062	0.014963760375976562	0.16759411621093748	0.4425048828125	-5.092620849609375	-2.96783447265625	9.974842666625976	0.5494692810058593	-0.16160861206054686	2.63214111328125	-4.53948974609375	-1.77764892578125	
150	0.6	0.0	0.0	0.0	0.0	0.003	0.006	0.003	0.006	9.87009634399414	0.16280571289062498	0.047884033203124995	2.51007080078125	-3.711700439453125	-0.732421875	9.787496386718749	0.010175357055664061	0.17178396911621094	0.518798828125	-4.863739013671875	-3.12042236328125	9.975441217041014	0.5530605834960938	-0.16639701538085935	2.597808837890625	-4.741668701171875	-1.651763916015625	
151	0.604	0.0	0.0	0.0	0.0	0.006	0.003	0.006	0.003	9.880271701049804	0.16759411621093748	0.05327098693847656	2.55584716796875	-3.833770751953125	-0.75531005859375	9.784503634643555	0.0143652099609375	0.1753752716064453	0.644683837890625	-5.02777099609375	-3.05938720703125	9.962871658325195	0.535702621459961	-0.17956512451171874	2.666473388671875	-4.627227783203125	-1.819610595703125	
152	0.608	0.0	0.0	0.0	0.0	0.003	0.003	0.003	0.003	9.874884747314452	0.17417817077636719	0.04608838195800781	2.288818359375	-3.84521484375	-0.6103515625	9.787496386718749	0.017357962036132813	0.17118541870117188	0.682830810546875	-5.2337646484375	-3.0670166015625	9.967061511230469	0.5267243652343749	-0.17597382202148437	2.7008056640625	-4.711151123046875	-1.7547607421875	
153	0.612	0.0	0.0	0.0	0.0	0.006	0.006	0.003	0.003	9.868899243164062	0.16041151123046873	0.03950432739257812	2.5787353515625	-3.665924072265625	-0.812530517578125	9.787496386718749	0.009576806640625	0.17477672119140625	0.4425048828125	-4.772186279296875	-3.032684326171875	9.966462960815429	0.5380968231201172	-0.16879121704101563	2.6702880859375	-4.57763671875	-1.85394287109375	
154	0.616	0.0	0.0	0.0	0.0	0.009000000000000001	0.006	0.003	0.003	9.872490545654296	0.15562310791015624	0.03531447448730469	2.620697021484375	-3.5247802734375	-0.701904296875	9.788693487548828	0.004189852905273437	0.17477672119140625	0.659942626953125	-5.100250244140625	-3.055572509765625	9.974842666625976	0.5446808776855468	-0.16879121704101563	2.72369384765625	-4.61578369140625	-1.73187255859375	
155	0.62	0.0	0.0	0.0	0.0	0.003	0.006	0.006	0.003	9.874884747314452	0.15741875915527342	0.040701428222656245	2.819061279296875	-3.681182861328125	-0.823974609375	9.787496386718749	0.009576806640625	0.16819266662597654	0.537872314453125	-4.962921142578125	-3.11279296875	9.968258612060547	0.5404910247802734	-0.181959326171875	2.735137939453125	-4.779815673828125	-1.64794921875	
156	0.624	0.0	0.0	0.0	0.0	0.0	0.003	0.006	0.003	9.875483297729492	0.15263035583496093	0.032920272827148434	2.567291259765625	-3.749847412109375	-0.926971435546875	9.78629928588867	0.002992752075195312	0.16160861206054686	0.52642822265625	-4.84466552734375	-2.90679931640625	9.97184991455078	0.546476528930664	-0.16639701538085935	2.666473388671875	-4.57763671875	-1.71661376953125	
157	0.628	0.0	0.0	0.0	0.0	0.003	0.003	0.003	0.003	9.871891995239258	0.16460136413574217	0.04129997863769531	2.490997314453125	-3.7078857421875	-0.759124755859375	9.783306533813477	0.011971008300781249	0.16759411621093748	0.667572021484375	-5.153656005859375	-3.2806396484375	9.974244116210937	0.5488707305908203	-0.17657237243652343	2.407073974609375	-4.627227783203125	-1.91497802734375	
158	0.632	0.0	0.0	0.0	0.0	0.003	0.003	0.003	0.003	9.871293444824218	0.16160861206054686	0.03531447448730469	2.716064453125	-3.7689208984375	-0.8392333984375	9.788094937133788	0.016160861206054686	0.1693897674560547	0.606536865234375	-4.852294921875	-3.086090087890625	9.957484704589843	0.5452794281005859	-0.17238251953125	2.60162353515625	-4.73785400390625	-1.689910888671875	
159	0.636	0.0	0.0	0.0	0.0	0.003	0.003	0.003	0.003	9.877877499389648	0.1657984649658203	0.03950432739257812	2.567291259765625	-3.9215087890625	-0.6561279296875	9.78629928588867	0.013168109130859374	0.1592144104003906	0.591278076171875	-4.985809326171875	-3.0975341796875	9.967061511230469	0.5434837768554687	-0.17896657409667968	2.79998779296875	-4.69207763671875	-1.750946044921875	
160	0.64	0.0	0.0	0.0	0.0	0.003	0.006	0.003	0.003	9.87069489440918	0.17238251953125	0.03651157531738281	2.62451171875	-4.058837890625	-0.762939453125	9.785102185058593	0.013766659545898436	0.16819266662597654	0.568389892578125	-4.993438720703125	-3.307342529296875	9.969455712890625	0.5363011718749999	-0.1693897674560547	2.50244140625	-4.734039306640625	-1.621246337890625	
161	0.644	0.0	0.0	0.0	0.0	0.0	0.003	0.003	0.006	9.871293444824218	0.17238251953125	0.034715924072265626	2.35748291015625	-3.82232666015625	-0.797271728515625	9.785102185058593	0.005985504150390624	0.17298106994628906	0.54168701171875	-5.161285400390625	-2.86865234375	9.97783541870117	0.5452794281005859	-0.16819266662597654	2.74658203125	-4.779815673828125	-1.9378662109375	
162	0.648	0.0	0.0	0.0	0.0	0.003	0.003	0.006	0.003	9.884461553955077	0.16340426330566404	0.044891281127929686	2.5177001953125	-3.879547119140625	-0.79345703125	9.78629928588867	0.007781155395507812	0.16160861206054686	0.51116943359375	-5.199432373046875	-2.941131591796875	9.97184991455078	0.5506663818359374	-0.17357962036132812	2.849578857421875	-4.75311279296875	-1.708984375	
163	0.652	0.0	0.0	0.0	0.0	0.006	0.003	0.003	0.003	9.868899243164062	0.15861585998535155	0.01975216369628906	2.384185791015625	-3.5858154296875	-0.8392333984375	9.78031378173828	0.013168109130859374	0.1580173095703125	0.81634521484375	-5.25665283203125	-3.12042236328125	9.97184991455078	0.5518634826660156	-0.1771709228515625	2.54058837890625	-4.638671875	-1.9378662109375	
164	0.656	0.0	0.0	0.0	0.0	0.003	0.003	0.003	0.003	9.865906491088866	0.16699556579589842	0.040701428222656245	2.521514892578125	-3.62396240234375	-0.92315673828125	9.785102185058593	0.014963760375976562	0.17058686828613281	0.751495361328125	-5.02777099609375	-3.19671630859375	9.964667309570311	0.5434837768554687	-0.17298106994628906	2.552032470703125	-4.405975341796875	-1.766204833984375	
165	0.66	0.0	0.0	0.0	0.0	0.003	0.003	0.006	0.006	9.87069489440918	0.1640028137207031	0.04129997863769531	2.674102783203125	-3.742218017578125	-0.7476806640625	9.785102185058593	0.013766659545898436	0.17357962036132812	0.64849853515625	-4.852294921875	-3.021240234375	9.959280355834961	0.5506663818359374	-0.17836802368164062	2.834320068359375	-4.871368408203125	-1.80816650390625	
166	0.664	0.0	0.0	0.0	0.0	0.006	0.006	0.003	0.003	9.873687646484374	0.16819266662597654	0.05087678527832031	2.353668212890625	-3.818511962890625	-0.904083251953125	9.78629928588867	0.003591302490234375	0.16460136413574217	0.621795654296875	-5.001068115234375	-2.9296875	9.967061511230469	0.5446808776855468	-0.17477672119140625	2.750396728515625	-4.856109619140625	-1.644134521484375	
167	0.668	0.0	0.0	0.0	0.0	0.003	0.003	0.006	0.006	9.861118087768554	0.16819266662597654	0.05327098693847656	2.6397705078125	-3.71551513671875	-0.75531005859375	9.783905084228515	0.012569558715820313	0.16879121704101563	0.58746337890625	-4.8370361328125	-2.933502197265625	9.974244116210937	0.5482721801757812	-0.16519991455078123	2.38800048828125	-4.741668701171875	-1.67083740234375	
168	0.672	0.0	0.0	0.0	0.0	0.003	0.003	0.006	0.006	9.861716638183593	0.16699556579589842	0.04967968444824218	2.5787353515625	-4.11224365234375	-0.75531005859375	9.779116680908203	0.0053869537353515625	0.1693897674560547	0.492095947265625	-5.0506591796875	-3.19671630859375	9.970054263305663	0.5494692810058593	-0.17597382202148437	2.529144287109375	-4.67681884765625	-1.6937255859375	
169	0.676	0.0	0.0	0.0	0.0	0.006	0.003	0.003	0.009000000000000001	9.871293444824218	0.16639701538085935	0.0526724365234375	2.368927001953125	-3.734588623046875	-0.64849853515625	9.787496386718749	0.008379705810546874	0.1640028137207031	0.60272216796875	-5.2490234375	-3.27301025390625	9.969455712890625	0.5434837768554687	-0.17477672119140625	2.948760986328125	-4.73785400390625	-1.54876708984375	
170	0.68	0.0	0.0	0.0	0.0	0.006	0.006	0.003	0.006	9.861716638183593	0.15741875915527342	0.04369418029785156	2.57110595703125	-3.54766845703125	-0.995635986328125	9.784503634643555	0.005985504150390624	0.17058686828613281	0.35858154296875	-5.039215087890625	-2.864837646484375	9.97184991455078	0.536899722290039	-0.16819266662597654	2.61688232421875	-4.81414794921875	-1.712799072265625	
171	0.684	0.0	0.0	0.0	0.0	-0.003	0.006	0.006	0.006	9.868899243164062	0.15562310791015624	0.03531447448730469	2.5177001953125	-3.86810302734375	-0.789642333984375	9.782109432983399	0.007781155395507812	0.16699556579589842	0.438690185546875	-4.974365234375	-2.99072265625	9.963470208740233	0.5446808776855468	-0.16220716247558592	2.796173095703125	-4.657745361328125	-1.6326904296875	
172	0.6880000000000001	0.0	0.0	0.0	0.0	0.006	0.006	0.003	0.003	9.872490545654296	0.16041151123046873	0.032920272827148434	2.46429443359375	-3.917694091796875	-0.797271728515625	9.78629928588867	0.015562310791015624	0.17836802368164062	0.32806396484375	-5.126953125	-3.1890869140625	9.964667309570311	0.5386953735351562	-0.15382745666503905	2.559661865234375	-4.657745361328125	-1.651763916015625	
173	0.6920000000000001	0.0	0.0	0.0	0.0	0.003	0.003	0.003	0.003	9.87009634399414	0.16041151123046873	0.033518823242187495	2.490997314453125	-3.742218017578125	-0.8544921875	9.779116680908203	0.013168109130859374	0.1897404815673828	0.58746337890625	-5.138397216796875	-2.93731689453125	9.959280355834961	0.5428852264404297	-0.15861585998535155	2.704620361328125	-4.482269287109375	-1.689910888671875	
174	0.6960000000000001	0.0	0.0	0.0	0.0	0.003	0.006	0.006	0.006	9.871891995239258	0.16041151123046873	0.04249707946777344	2.5177001953125	-3.83758544921875	-0.79345703125	9.785102185058593	0.011971008300781249	0.17657237243652343	0.797271728515625	-5.096435546875	-3.12042236328125	9.962273107910155	0.5380968231201172	-0.16519991455078123	2.643585205078125	-4.57763671875	-1.621246337890625	
175	0.7000000000000001	0.0	0.0	0.0	0.0	0.003	0.003	0.006	0.003	9.87668039855957	0.16160861206054686	0.04608838195800781	2.574920654296875	-3.665924072265625	-0.751495361328125	9.78629928588867	0.003591302490234375	0.16819266662597654	0.782012939453125	-5.084991455078125	-3.063201904296875	9.96586441040039	0.5374982727050781	-0.1640028137207031	2.70843505859375	-4.76837158203125	-1.857757568359375	
176	0.704	0.0	0.0	0.0	0.0	0.012	0.003	0.006	0.006	9.873687646484374	0.16519991455078123	0.037110125732421874	2.490997314453125	-3.70025634765625	-0.5340576171875	9.788693487548828	0.004189852905273437	0.17357962036132812	0.58746337890625	-5.05828857421875	-2.9296875	9.97184991455078	0.5410895751953124	-0.1640028137207031	2.655029296875	-4.5318603515625	-1.76239013671875	
177	0.708	0.0	0.0	0.0	0.0	0.003	0.003	0.003	0.0	9.858125335693359	0.15741875915527342	0.03651157531738281	2.4871826171875	-3.68499755859375	-0.553131103515625	9.785102185058593	-0.011971008300781249	0.16998831787109375	0.701904296875	-5.153656005859375	-3.07464599609375	9.97125136413574	0.5392939239501953	-0.16280571289062498	2.7313232421875	-4.69207763671875	-1.5716552734375	
178	0.712	0.0	0.0	0.0	0.0	0.003	0.003	0.006	0.003	9.865307940673828	0.15263035583496093	0.044292730712890624	2.307891845703125	-3.696441650390625	-0.70953369140625	9.785102185058593	0.00239420166015625	0.1592144104003906	0.553131103515625	-4.772186279296875	-3.124237060546875	9.962273107910155	0.5333084197998047	-0.17477672119140625	2.8533935546875	-4.730224609375	-1.873016357421875	
179	0.716	0.0	0.0	0.0	0.0	0.006	0.006	0.006	0.003	9.86291373901367	0.15442600708007811	0.037708676147460936	2.58636474609375	-3.673553466796875	-0.858306884765625	9.787496386718749	0.00718260498046875	0.16460136413574217	0.583648681640625	-4.8980712890625	-3.101348876953125	9.968258612060547	0.5374982727050781	-0.16819266662597654	2.674102783203125	-4.72259521484375	-1.8768310546875	
180	0.72	0.0	0.0	0.0	0.0	0.003	0.003	0.006	0.003	9.87069489440918	0.16041151123046873	0.033518823242187495	2.655029296875	-3.986358642578125	-0.835418701171875	9.78689783630371	0.002992752075195312	0.1610100616455078	0.591278076171875	-4.955291748046875	-3.01361083984375	9.976638317871092	0.5470750793457031	-0.17298106994628906	2.38037109375	-4.60052490234375	-1.781463623046875	
181	0.724	0.0	0.0	0.0	0.0	0.003	0.006	0.003	0.006	9.86411083984375	0.15741875915527342	0.04369418029785156	2.4261474609375	-3.59344482421875	-0.843048095703125	9.790489138793944	0.010175357055664061	0.16879121704101563	0.545501708984375	-5.10406494140625	-3.131866455078125	9.976638317871092	0.5470750793457031	-0.16460136413574217	2.819061279296875	-4.75311279296875	-1.659393310546875	
182	0.728	0.0	0.0	0.0	0.0	0.003	0.003	0.006	0.006	9.861716638183593	0.15682020874023436	0.03950432739257812	2.506256103515625	-3.955841064453125	-0.98419189453125	9.78629928588867	0.003591302490234375	0.1562216583251953	0.453948974609375	-5.229949951171875	-3.1890869140625	9.974842666625976	0.5500678314208984	-0.17417817077636719	2.73895263671875	-4.573822021484375	-1.636505126953125	
183	0.732	0.0	0.0	0.0	0.0	0.006	0.003	0.003	0.006	9.873687646484374	0.16280571289062498	0.03591302490234375	2.52532958984375	-3.749847412109375	-0.926971435546875	9.789890588378906	0.010175357055664061	0.16759411621093748	0.751495361328125	-5.199432373046875	-3.086090087890625	9.973047015380859	0.5482721801757812	-0.17417817077636719	2.61688232421875	-4.589080810546875	-1.41143798828125	
184	0.736	0.0	0.0	0.0	0.0	0.003	0.006	0.003	0.006	9.874884747314452	0.15562310791015624	0.037110125732421874	2.338409423828125	-3.82232666015625	-0.83160400390625	9.788693487548828	0.009576806640625	0.17357962036132812	0.579833984375	-5.100250244140625	-2.971649169921875	9.967061511230469	0.5416881256103515	-0.17357962036132812	2.7313232421875	-4.787445068359375	-1.720428466796875	
185	0.74	0.0	0.0	0.0	0.0	0.006	0.006	0.003	0.003	9.86291373901367	0.16699556579589842	0.037110125732421874	2.55584716796875	-3.795623779296875	-0.67138671875	9.785102185058593	0.005985504150390624	0.17298106994628906	0.728607177734375	-4.901885986328125	-3.055572509765625	9.961674557495117	0.5374982727050781	-0.1693897674560547	2.704620361328125	-4.749298095703125	-1.728057861328125	
186	0.744	0.0	0.0	0.0	0.0	0.003	0.003	0.006	0.003	9.873687646484374	0.1657984649658203	0.04129997863769531	2.468109130859375	-3.810882568359375	-0.8087158203125	9.785102185058593	-0.010175357055664061	0.17357962036132812	0.629425048828125	-5.306243896484375	-3.276824951171875	9.968258612060547	0.5321113189697265	-0.16280571289062498	2.79998779296875	-4.64630126953125	-1.743316650390625	
187	0.748	0.0	0.0	0.0	0.0	0.003	0.003	0.003	0.006	9.871891995239258	0.16639701538085935	0.04668693237304687	2.613067626953125	-3.742218017578125	-0.6103515625	9.78629928588867	0.002992752075195312	0.16639701538085935	0.60272216796875	-5.130767822265625	-3.18145751953125	9.968258612060547	0.5339069702148437	-0.16699556579589842	2.70843505859375	-4.673004150390625	-1.80816650390625	
188	0.752	0.0	0.0	0.0	0.0	0.006	0.006	0.006	0.006	9.86291373901367	0.16280571289062498	0.047884033203124995	2.666473388671875	-3.7689208984375	-0.84686279296875	9.78629928588867	-0.0017956512451171875	0.17058686828613281	0.583648681640625	-5.184173583984375	-3.040313720703125	9.961674557495117	0.5422866760253906	-0.16879121704101563	2.41851806640625	-4.802703857421875	-1.79290771484375	
189	0.756	0.0	0.0	0.0	0.0	0.003	0.006	0.006	0.003	9.871293444824218	0.16280571289062498	0.04548983154296875	2.4261474609375	-3.925323486328125	-0.823974609375	9.789890588378906	0.005985504150390624	0.16220716247558592	0.41961669921875	-4.78363037109375	-2.8533935546875	9.973645565795898	0.5428852264404297	-0.16340426330566404	2.79998779296875	-4.8065185546875	-1.766204833984375	
190	0.76	0.0	0.0	0.0	0.0	0.003	0.006	0.003	0.003	9.871293444824218	0.16160861206054686	0.040102877807617184	2.3345947265625	-3.631591796875	-0.949859619140625	9.777919580078125	0.010773907470703125	0.16639701538085935	0.583648681640625	-4.962921142578125	-3.017425537109375	9.96586441040039	0.5440823272705078	-0.17417817077636719	2.79998779296875	-4.55474853515625	-1.667022705078125	
191	0.764	0.0	0.0	0.0	0.0	0.006	0.006	0.006	0.006	9.867103591918944	0.1592144104003906	0.03411737365722656	2.55584716796875	-3.742218017578125	-0.896453857421875	9.783905084228515	0.010175357055664061	0.16220716247558592	0.484466552734375	-4.657745361328125	-2.98309326171875	9.96586441040039	0.5422866760253906	-0.1657984649658203	2.719879150390625	-4.711151123046875	-1.7852783203125	
192	0.768	0.0	0.0	0.0	0.0	0.003	0.003	0.006	0.006	9.867103591918944	0.16460136413574217	0.032920272827148434	2.58636474609375	-3.91387939453125	-0.774383544921875	9.782707983398437	0.013766659545898436	0.17178396911621094	0.60272216796875	-5.05828857421875	-2.960205078125	9.97125136413574	0.5404910247802734	-0.17058686828613281	2.582550048828125	-4.665374755859375	-1.918792724609375	
193	0.772	0.0	0.0	0.0	0.0	0.006	0.006	0.006	0.003	9.883264453125	0.16280571289062498	0.032920272827148434	2.300262451171875	-3.74603271484375	-0.823974609375	9.785700735473633	0.0143652099609375	0.16759411621093748	0.57220458984375	-5.153656005859375	-3.0517578125	9.96586441040039	0.5386953735351562	-0.16519991455078123	2.567291259765625	-4.718780517578125	-1.674652099609375	
194	0.776	0.0	0.0	0.0	0.0	0.003	0.006	0.003	0.003	9.867702142333984	0.16220716247558592	0.0383072265625	2.536773681640625	-3.84521484375	-0.7476806640625	9.789292037963866	0.013168109130859374	0.17118541870117188	0.720977783203125	-5.229949951171875	-3.173828125	9.964068759155273	0.536899722290039	-0.1693897674560547	2.61688232421875	-4.638671875	-1.67083740234375	
195	0.78	0.0	0.0	0.0	0.0	0.003	0.003	0.003	0.003	9.87069489440918	0.16639701538085935	0.040701428222656245	2.43377685546875	-3.742218017578125	-0.904083251953125	9.78629928588867	0.008978256225585938	0.1610100616455078	0.61798095703125	-5.023956298828125	-3.055572509765625	9.964068759155273	0.546476528930664	-0.1753752716064453	2.69317626953125	-4.6539306640625	-1.659393310546875	
196	0.784	0.0	0.0	0.0	0.0	0.009000000000000001	0.003	0.003	0.003	9.87009634399414	0.16819266662597654	0.037708676147460936	2.3651123046875	-3.818511962890625	-0.820159912109375	9.78629928588867	0.00718260498046875	0.16340426330566404	0.507354736328125	-4.787445068359375	-3.078460693359375	9.957484704589843	0.5410895751953124	-0.16220716247558592	2.651214599609375	-4.5623779296875	-1.7547607421875	
197	0.788	0.0	0.0	0.0	0.0	0.009000000000000001	0.003	0.003	0.003	9.879074600219726	0.16879121704101563	0.028131869506835935	2.529144287109375	-3.65447998046875	-0.58746337890625	9.783905084228515	0.008379705810546874	0.16699556579589842	0.675201416015625	-5.39398193359375	-3.0670166015625	9.962871658325195	0.5488707305908203	-0.17298106994628906	2.742767333984375	-4.520416259765625	-1.766204833984375	
198	0.792	0.0	0.0	0.0	0.0	0.009000000000000001	0.006	0.003	0.003	9.873687646484374	0.17238251953125	0.034715924072265626	2.51007080078125	-3.925323486328125	-0.820159912109375	9.78629928588867	0.007781155395507812	0.16879121704101563	0.29754638671875	-5.016326904296875	-2.964019775390625	9.964667309570311	0.5482721801757812	-0.17956512451171874	2.765655517578125	-4.78363037109375	-1.682281494140625	
199	0.796	0.0	0.0	0.0	0.0	0.003	0.003	0.006	0.006	9.87668039855957	0.1801636749267578	0.02693476867675781	2.46429443359375	-3.70025634765625	-0.827789306640625	9.785102185058593	0.008978256225585938	0.17238251953125	0.644683837890625	-4.852294921875	-3.10516357421875	9.964667309570311	0.5476736297607422	-0.17118541870117188	2.803802490234375	-4.52423095703125	-1.89208984375	
200	0.8	0.0	0.0	0.0	0.0	0.0	0.006	0.006	0.003	9.879673150634765	0.16879121704101563	0.03411737365722656	2.582550048828125	-3.70025634765625	-0.705718994140625	9.784503634643555	0.010175357055664061	0.15861585998535155	0.537872314453125	-5.10406494140625	-3.108978271484375	9.97184991455078	0.5566518859863281	-0.17896657409667968	2.735137939453125	-4.9285888671875	-1.613616943359375	
201	0.804	0.0	0.0	0.0	0.0	0.003	0.003	0.003	0.003	9.871293444824218	0.1753752716064453	0.03651157531738281	2.544403076171875	-3.7384033203125	-0.66375732421875	9.783905084228515	0.009576806640625	0.1693897674560547	0.545501708984375	-4.76837158203125	-3.22723388671875	9.97184991455078	0.5584475372314452	-0.17238251953125	2.529144287109375	-4.669189453125	-1.689910888671875	
202	0.808	0.0	0.0	0.0	0.0	0.006	0.006	0.006	0.006	9.868899243164062	0.17298106994628906	0.037110125732421874	2.750396728515625	-3.90625	-0.96893310546875	9.782707983398437	0.0143652099609375	0.17298106994628906	0.301361083984375	-5.023956298828125	-2.98309326171875	9.974244116210937	0.5500678314208984	-0.18136077575683593	2.704620361328125	-4.38690185546875	-1.804351806640625	
203	0.812	0.0	0.0	0.0	0.0	0.006	0.003	0.003	0.006	9.861118087768554	0.17776947326660156	0.029328970336914062	2.689361572265625	-3.936767578125	-0.8544921875	9.782109432983399	0.008379705810546874	0.17058686828613281	0.77056884765625	-4.909515380859375	-3.101348876953125	9.967061511230469	0.5458779785156249	-0.18435352783203124	2.7618408203125	-4.608154296875	-1.827239990234375	
204	0.8160000000000001	0.0	0.0	0.0	0.0	0.003	0.003	0.003	0.003	9.860519537353515	0.16160861206054686	0.04369418029785156	2.49481201171875	-3.795623779296875	-0.881195068359375	9.783905084228515	0.010773907470703125	0.1610100616455078	0.614166259765625	-5.062103271484375	-2.986907958984375	9.967660061645507	0.5458779785156249	-0.16819266662597654	2.532958984375	-4.634857177734375	-1.560211181640625	
205	0.8200000000000001	0.0	0.0	0.0	0.0	0.006	0.006	0.003	0.003	9.867702142333984	0.1580173095703125	0.03531447448730469	2.4261474609375	-3.932952880859375	-0.843048095703125	9.78629928588867	0.00239420166015625	0.17298106994628906	0.4425048828125	-4.87518310546875	-3.215789794921875	9.968258612060547	0.5374982727050781	-0.16759411621093748	2.643585205078125	-4.756927490234375	-1.93023681640625	
206	0.8240000000000001	0.0	0.0	0.0	0.0	0.006	0.003	0.003	0.006	9.86291373901367	0.1592144104003906	0.032920272827148434	2.47955322265625	-3.780364990234375	-0.885009765625	9.798270294189452	0.009576806640625	0.1693897674560547	0.80108642578125	-5.069732666015625	-2.964019775390625	9.967061511230469	0.5416881256103515	-0.1640028137207031	2.70843505859375	-4.7149658203125	-1.800537109375	
207	0.8280000000000001	0.0	0.0	0.0	0.0	0.006	0.006	0.006	0.006	9.87608184814453	0.16220716247558592	0.03232172241210937	2.422332763671875	-3.688812255859375	-0.66375732421875	9.790489138793944	0.011971008300781249	0.16819266662597654	0.545501708984375	-4.98199462890625	-3.01361083984375	9.96586441040039	0.5428852264404297	-0.15861585998535155	2.78472900390625	-4.512786865234375	-1.708984375	
208	0.8320000000000001	0.0	0.0	0.0	0.0	0.006	0.006	0.003	0.006	9.872490545654296	0.16041151123046873	0.029927520751953124	2.5482177734375	-3.902435302734375	-0.789642333984375	9.790489138793944	0.004189852905273437	0.1801636749267578	0.640869140625	-5.0811767578125	-3.170013427734375	9.97125136413574	0.5386953735351562	-0.16998831787109375	2.803802490234375	-4.79888916015625	-1.651763916015625	
209	0.836	0.0	0.0	0.0	0.0	0.0	0.006	0.003	0.003	9.874286196899414	0.15203180541992187	0.03531447448730469	2.613067626953125	-3.917694091796875	-0.782012939453125	9.78629928588867	0.0	0.17776947326660156	0.530242919921875	-4.90570068359375	-3.11279296875	9.96586441040039	0.5410895751953124	-0.16759411621093748	2.689361572265625	-4.64630126953125	-1.697540283203125	
210	0.84	0.0	0.0	0.0	0.0	0.003	0.006	0.006	0.006	9.87009634399414	0.1657984649658203	0.0430956298828125	2.5787353515625	-3.76129150390625	-0.797271728515625	9.788693487548828	0.008978256225585938	0.17178396911621094	0.48065185546875	-4.9896240234375	-3.208160400390625	9.964667309570311	0.536899722290039	-0.16759411621093748	2.727508544921875	-4.817962646484375	-1.651763916015625	
211	0.844	0.0	0.0	0.0	0.0	0.003	0.003	0.003	0.006	9.8694977935791	0.1580173095703125	0.034715924072265626	2.490997314453125	-3.4637451171875	-0.81634521484375	9.785102185058593	0.010773907470703125	0.17357962036132812	0.49591064453125	-4.9591064453125	-3.21197509765625	9.96047745666504	0.5440823272705078	-0.17776947326660156	2.75421142578125	-4.940032958984375	-1.800537109375	
212	0.848	0.0	0.0	0.0	0.0	0.006	0.003	0.006	0.006	9.872490545654296	0.16759411621093748	0.034715924072265626	2.605438232421875	-3.955841064453125	-0.644683837890625	9.794678991699218	0.011971008300781249	0.16879121704101563	0.576019287109375	-5.092620849609375	-3.108978271484375	9.956287603759765	0.5548562347412109	-0.17298106994628906	2.643585205078125	-4.611968994140625	-1.476287841796875	
213	0.852	0.0	0.0	0.0	0.0	0.006	0.003	0.003	0.003	9.882067352294921	0.16160861206054686	0.032920272827148434	2.521514892578125	-3.8604736328125	-0.766754150390625	9.788693487548828	0.006584054565429687	0.17178396911621094	0.675201416015625	-5.05828857421875	-3.063201904296875	9.96047745666504	0.5458779785156249	-0.17178396911621094	2.655029296875	-4.78363037109375	-1.617431640625	
214	0.856	0.0	0.0	0.0	0.0	0.012	0.006	0.003	0.006	9.881468801879882	0.15861585998535155	0.03531447448730469	2.57110595703125	-3.7689208984375	-0.888824462890625	9.785102185058593	0.00239420166015625	0.17238251953125	0.48065185546875	-5.062103271484375	-3.101348876953125	9.96586441040039	0.5404910247802734	-0.16759411621093748	2.8076171875	-4.6844482421875	-1.789093017578125	
215	0.86	0.0	0.0	0.0	0.0	0.006	0.006	0.006	0.003	9.867702142333984	0.16041151123046873	0.02633621826171875	2.5787353515625	-3.662109375	-0.652313232421875	9.783905084228515	-0.003591302490234375	0.1640028137207031	0.148773193359375	-4.901885986328125	-3.253936767578125	9.967061511230469	0.5392939239501953	-0.17417817077636719	2.765655517578125	-4.802703857421875	-1.71661376953125	
216	0.864	0.0	0.0	0.0	0.0	0.006	0.003	0.006	0.003	9.871293444824218	0.15502455749511718	0.030526071166992186	2.674102783203125	-3.8604736328125	-0.926971435546875	9.788693487548828	-0.002992752075195312	0.17178396911621094	0.41961669921875	-4.7760009765625	-2.81524658203125	9.967660061645507	0.5333084197998047	-0.17417817077636719	2.52532958984375	-4.520416259765625	-1.708984375	
217	0.868	0.0	0.0	0.0	0.0	0.0	0.006	0.006	0.006	9.872490545654296	0.1580173095703125	0.044891281127929686	2.513885498046875	-3.79180908203125	-0.705718994140625	9.78629928588867	0.0047884033203125	0.17058686828613281	0.5340576171875	-4.98199462890625	-3.093719482421875	9.967660061645507	0.5386953735351562	-0.16819266662597654	2.8076171875	-4.718780517578125	-1.720428466796875	
218	0.872	0.0	0.0	0.0	0.0	0.006	0.003	0.006	0.003	9.871891995239258	0.16759411621093748	0.059256491088867186	2.349853515625	-3.68499755859375	-0.896453857421875	9.78629928588867	0.002992752075195312	0.15981296081542967	0.244140625	-5.275726318359375	-3.055572509765625	9.967660061645507	0.5339069702148437	-0.17178396911621094	2.50244140625	-4.566192626953125	-1.800537109375	
219	0.876	0.0	0.0	0.0	0.0	0.003	0.003	0.006	0.003	9.87009634399414	0.16160861206054686	0.05087678527832031	2.521514892578125	-3.833770751953125	-0.690460205078125	9.78629928588867	0.0005985504150390625	0.16340426330566404	0.63323974609375	-4.802703857421875	-3.070831298828125	9.980229620361328	0.5392939239501953	-0.1693897674560547	2.758026123046875	-4.878997802734375	-1.9073486328125	
220	0.88	0.0	0.0	0.0	0.0	0.003	0.006	0.003	0.003	9.858723886108399	0.1514332550048828	0.04369418029785156	2.54058837890625	-3.97491455078125	-0.690460205078125	9.781510882568359	0.009576806640625	0.16519991455078123	0.63323974609375	-4.940032958984375	-3.101348876953125	9.975441217041014	0.5434837768554687	-0.1640028137207031	2.46429443359375	-4.665374755859375	-1.758575439453125	
221	0.884	0.0	0.0	0.0	0.0	0.003	0.006	0.003	0.006	9.871891995239258	0.15502455749511718	0.04548983154296875	2.536773681640625	-3.856658935546875	-0.8392333984375	9.788693487548828	0.002992752075195312	0.16759411621093748	0.61798095703125	-5.054473876953125	-3.017425537109375	9.97184991455078	0.5303156677246094	-0.16759411621093748	2.7008056640625	-4.7607421875	-1.705169677734375	
222	0.888	0.0	0.0	0.0	0.0	0.006	0.006	0.003	0.006	9.868300692749022	0.16340426330566404	0.04369418029785156	2.47955322265625	-3.002166748046875	-0.8087158203125	9.78629928588867	0.010175357055664061	0.16879121704101563	0.820159912109375	-5.115509033203125	-3.200531005859375	9.973047015380859	0.5476736297607422	-0.17298106994628906	2.582550048828125	-4.611968994140625	-1.800537109375	
223	0.892	0.0	0.0	0.0	0.0	0.003	0.003	0.003	0.003	9.86291373901367	0.15322890625	0.04129997863769531	2.471923828125	-4.047393798828125	-0.843048095703125	9.78629928588867	-0.0017956512451171875	0.1640028137207031	0.60272216796875	-4.566192626953125	-2.90679931640625	9.958681805419921	0.5518634826660156	-0.17118541870117188	2.758026123046875	-4.638671875	-1.430511474609375	
224	0.896	0.0	0.0	0.0	0.0	0.003	0.006	0.006	0.003	9.87069489440918	0.1562216583251953	0.04369418029785156	2.6092529296875	-3.8299560546875	-0.827789306640625	9.785102185058593	-0.00239420166015625	0.15382745666503905	0.637054443359375	-5.3863525390625	-3.223419189453125	9.969455712890625	0.5404910247802734	-0.17238251953125	2.6397705078125	-4.817962646484375	-1.712799072265625	
225	0.9	0.0	0.0	0.0	0.0	0.0	0.003	0.006	0.003	9.87009634399414	0.1562216583251953	0.04249707946777344	2.292633056640625	-3.83758544921875	-0.89263916015625	9.785102185058593	0.0017956512451171875	0.1592144104003906	0.469207763671875	-4.87518310546875	-3.0517578125	9.968258612060547	0.536899722290039	-0.1693897674560547	2.704620361328125	-4.673004150390625	-1.93023681640625	
226	0.904	0.0	0.0	0.0	0.0	0.006	0.003	0.006	0.006	9.853336932373047	0.17357962036132812	0.047285482788085934	2.44140625	-3.8299560546875	-0.743865966796875	9.783905084228515	0.023343466186523436	0.1610100616455078	0.415802001953125	-5.001068115234375	-3.1585693359375	9.955090502929687	0.5440823272705078	-0.16519991455078123	2.67791748046875	-4.711151123046875	-1.83868408203125	
227	0.908	0.0	0.0	0.0	0.0	0.009000000000000001	0.003	0.003	0.003	9.87069489440918	0.17657237243652343	0.05027823486328125	2.536773681640625	-3.833770751953125	-0.789642333984375	9.785102185058593	0.017956512451171875	0.16340426330566404	0.51116943359375	-5.0201416015625	-3.12042236328125	9.959280355834961	0.5626373901367188	-0.17238251953125	2.750396728515625	-4.82177734375	-1.758575439453125	
228	0.912	0.0	0.0	0.0	0.0	0.0	0.003	0.003	0.003	9.868300692749022	0.15981296081542967	0.058657940673828124	2.605438232421875	-3.88336181640625	-0.86212158203125	9.789890588378906	0.011372457885742187	0.17238251953125	0.335693359375	-4.96673583984375	-2.925872802734375	9.963470208740233	0.5416881256103515	-0.16759411621093748	2.2735595703125	-4.634857177734375	-1.628875732421875	
229	0.916	0.0	0.0	0.0	0.0	0.003	0.006	0.003	0.006	9.864709390258788	0.1592144104003906	0.04967968444824218	2.231597900390625	-3.917694091796875	-0.751495361328125	9.787496386718749	0.001197100830078125	0.16639701538085935	0.576019287109375	-5.16510009765625	-3.078460693359375	9.957484704589843	0.5410895751953124	-0.16220716247558592	2.63214111328125	-4.589080810546875	-1.758575439453125	
230	0.92	0.0	0.0	0.0	0.0	0.006	0.003	0.003	0.003	9.871293444824218	0.16460136413574217	0.044292730712890624	2.422332763671875	-3.734588623046875	-0.84686279296875	9.785700735473633	0.0143652099609375	0.1640028137207031	0.713348388671875	-5.1422119140625	-3.12042236328125	9.96586441040039	0.5500678314208984	-0.16160861206054686	2.552032470703125	-4.5928955078125	-1.89971923828125	
231	0.924	0.0	0.0	0.0	0.0	0.006	0.006	0.003	0.003	9.867103591918944	0.1640028137207031	0.044891281127929686	2.35748291015625	-3.8299560546875	-0.820159912109375	9.783306533813477	0.017956512451171875	0.1640028137207031	0.606536865234375	-5.084991455078125	-3.10516357421875	9.974842666625976	0.5590460876464843	-0.17118541870117188	2.685546875	-4.7760009765625	-1.438140869140625	
232	0.928	0.0	0.0	0.0	0.0	0.006	0.003	0.003	0.006	9.867103591918944	0.17178396911621094	0.04369418029785156	2.544403076171875	-3.711700439453125	-0.701904296875	9.785102185058593	0.016759411621093748	0.1592144104003906	0.614166259765625	-4.978179931640625	-3.208160400390625	9.965265859985351	0.5518634826660156	-0.1562216583251953	2.391815185546875	-4.46319580078125	-1.590728759765625	
233	0.932	0.0	0.0	0.0	0.0	0.006	0.003	0.003	0.006	9.866505041503906	0.1592144104003906	0.051475335693359374	2.559661865234375	-3.56292724609375	-0.67138671875	9.785102185058593	0.0053869537353515625	0.17357962036132812	0.431060791015625	-4.99725341796875	-2.948760986328125	9.957484704589843	0.5285200164794922	-0.1580173095703125	2.62451171875	-4.688262939453125	-1.6632080078125	
234	0.936	0.0	0.0	0.0	0.0	0.003	0.006	0.006	0.006	9.861716638183593	0.14784195251464843	0.04608838195800781	2.58636474609375	-3.94439697265625	-0.69427490234375	9.78629928588867	-0.011971008300781249	0.1771709228515625	0.5340576171875	-4.94384765625	-3.1280517578125	9.962871658325195	0.5237316131591797	-0.16340426330566404	2.5787353515625	-4.63104248046875	-1.68609619140625	
235	0.9400000000000001	0.0	0.0	0.0	0.0	0.003	0.006	0.003	0.009000000000000001	9.86291373901367	0.15861585998535155	0.031124621582031248	2.410888671875	-3.88336181640625	-0.942230224609375	9.78689783630371	-0.010175357055664061	0.17657237243652343	0.54931640625	-4.970550537109375	-3.05938720703125	9.970652813720703	0.5428852264404297	-0.1610100616455078	2.5482177734375	-4.669189453125	-1.743316650390625	
236	0.9440000000000001	0.0	0.0	0.0	0.0	0.009000000000000001	0.003	0.006	0.003	9.8694977935791	0.1592144104003906	0.037110125732421874	2.513885498046875	-3.803253173828125	-0.81634521484375	9.78629928588867	0.006584054565429687	0.16340426330566404	0.3662109375	-4.79888916015625	-3.143310546875	9.96586441040039	0.5410895751953124	-0.17477672119140625	2.391815185546875	-4.665374755859375	-1.79290771484375	
237	0.9480000000000001	0.0	0.0	0.0	0.0	0.006	0.006	0.003	0.003	9.86291373901367	0.1657984649658203	0.034715924072265626	2.521514892578125	-3.65447998046875	-0.6256103515625	9.789292037963866	0.002992752075195312	0.16699556579589842	0.759124755859375	-5.05828857421875	-3.1585693359375	9.967061511230469	0.5386953735351562	-0.16340426330566404	2.590179443359375	-4.45556640625	-1.678466796875	
238	0.9520000000000001	0.0	0.0	0.0	0.0	0.006	0.006	0.006	0.006	9.867702142333984	0.16280571289062498	0.05327098693847656	2.437591552734375	-3.84521484375	-0.858306884765625	9.789292037963866	0.004189852905273437	0.1657984649658203	0.52642822265625	-5.207061767578125	-3.01361083984375	9.956287603759765	0.5428852264404297	-0.1753752716064453	2.773284912109375	-4.638671875	-1.758575439453125	
239	0.9560000000000001	0.0	0.0	0.0	0.0	0.0	0.003	0.003	0.003	9.8694977935791	0.1562216583251953	0.04668693237304687	2.58636474609375	-3.99017333984375	-0.78582763671875	9.783905084228515	0.009576806640625	0.15023615417480468	0.70953369140625	-5.054473876953125	-3.07464599609375	9.96586441040039	0.5392939239501953	-0.1640028137207031	2.727508544921875	-4.688262939453125	-1.739501953125	
240	0.96	0.0	0.0	0.0	0.0	0.006	0.003	0.003	0.003	9.861118087768554	0.16220716247558592	0.04369418029785156	2.468109130859375	-3.772735595703125	-0.675201416015625	9.785102185058593	0.017956512451171875	0.15562310791015624	0.461578369140625	-4.852294921875	-3.0517578125	9.967660061645507	0.5374982727050781	-0.17298106994628906	2.67791748046875	-4.688262939453125	-1.77001953125	
241	0.964	0.0	0.0	0.0	0.0	0.006	0.006	0.003	0.006	9.864709390258788	0.17118541870117188	0.04908113403320312	2.483367919921875	-3.66973876953125	-0.644683837890625	9.782707983398437	0.023343466186523436	0.1657984649658203	0.705718994140625	-4.962921142578125	-3.33404541015625	9.975441217041014	0.5458779785156249	-0.17058686828613281	2.880096435546875	-4.833221435546875	-1.743316650390625	
242	0.968	0.0	0.0	0.0	0.0	-0.003	0.003	0.003	0.003	9.87668039855957	0.17298106994628906	0.04369418029785156	2.544403076171875	-3.631591796875	-0.80108642578125	9.783306533813477	0.022146365356445312	0.1610100616455078	0.61798095703125	-4.932403564453125	-3.147125244140625	9.97244846496582	0.5446808776855468	-0.18315642700195311	2.6092529296875	-4.669189453125	-1.758575439453125	
243	0.972	0.0	0.0	0.0	0.0	0.003	0.006	0.006	0.006	9.85692823486328	0.15741875915527342	0.0430956298828125	2.49481201171875	-3.742218017578125	-0.926971435546875	9.78629928588867	0.0143652099609375	0.17357962036132812	0.34332275390625	-4.98199462890625	-3.04412841796875	9.968258612060547	0.5398924743652344	-0.1801636749267578	2.712249755859375	-4.364013671875	-1.80816650390625	
244	0.976	0.0	0.0	0.0	0.0	0.006	0.003	0.006	0.006	9.860519537353515	0.16998831787109375	0.05686228942871093	2.49481201171875	-3.88336181640625	-0.743865966796875	9.784503634643555	0.0143652099609375	0.15741875915527342	0.743865966796875	-5.07354736328125	-3.017425537109375	9.96586441040039	0.5524620330810547	-0.1879448303222656	2.513885498046875	-4.772186279296875	-1.560211181640625	
245	0.98	0.0	0.0	0.0	0.0	0.006	0.006	0.003	0.003	9.867702142333984	0.1867477294921875	0.05626373901367187	2.35748291015625	-3.711700439453125	-0.751495361328125	9.783306533813477	0.03232172241210937	0.1801636749267578	0.52642822265625	-5.039215087890625	-2.971649169921875	9.959280355834961	0.5722141967773438	-0.18555062866210936	2.67791748046875	-4.627227783203125	-1.71661376953125	
246	0.984	0.0	0.0	0.0	0.0	0.006	0.003	0.006	0.006	9.868899243164062	0.18315642700195311	0.07781155395507812	2.353668212890625	-3.665924072265625	-0.835418701171875	9.783306533813477	0.029927520751953124	0.17357962036132812	0.278472900390625	-5.001068115234375	-3.082275390625	9.958681805419921	0.5680243438720702	-0.18136077575683593	2.63214111328125	-4.73785400390625	-1.739501953125	
247	0.988	0.0	0.0	0.0	0.0	0.003	0.003	0.003	0.003	9.883264453125	0.16041151123046873	0.0796072052001953	2.410888671875	-3.86810302734375	-0.8087158203125	9.804255798339844	-0.011971008300781249	0.1801636749267578	0.52642822265625	-4.825592041015625	-2.98309326171875	9.986813674926758	0.5231330627441406	-0.16819266662597654	2.52532958984375	-4.711151123046875	-1.628875732421875	
248	0.992	0.0	0.0	0.0	0.0	0.006	0.003	0.006	0.003	9.87608184814453	0.1484405029296875	0.08439560852050781	2.437591552734375	-3.65447998046875	-0.652313232421875	9.803058697509766	-0.011971008300781249	0.19033903198242186	0.522613525390625	-4.8828125	-3.108978271484375	9.984419473266602	0.5189432098388671	-0.14484920043945312	2.506256103515625	-4.634857177734375	-1.739501953125	
249	0.996	0.0	0.0	0.0	0.0	0.003	0.006	0.003	0.003	9.882067352294921	0.14125789794921875	0.06464344482421874	2.651214599609375	-3.993988037109375	-0.690460205078125	9.794678991699218	0.0047884033203125	0.1975216369628906	0.45013427734375	-5.18035888671875	-3.0670166015625	9.976638317871092	0.5339069702148437	-0.12150573425292968	2.490997314453125	-4.787445068359375	-1.922607421875	
250	1.0	0.0	0.0	0.0	0.0	0.003	0.003	0.003	0.003	9.880870251464843	0.12449848632812499	0.06284779357910156	2.384185791015625	-3.62396240234375	-1.12152099609375	9.783905084228515	-0.04608838195800781	0.20051438903808594	0.75531005859375	-5.31005859375	-3.01361083984375	9.981426721191406	0.48662148742675776	-0.12689268798828124	2.765655517578125	-4.581451416015625	-1.590728759765625	
251	1.004	0.0	0.0	0.0	0.0	0.006	0.006	0.006	0.003	9.832986218261718	0.10354922180175781	0.07362170104980469	2.513885498046875	-3.696441650390625	-0.690460205078125	9.743203656005859	-0.03890577697753906	0.2154781494140625	0.67138671875	-5.138397216796875	-3.139495849609375	9.94072529296875	0.4878185882568359	-0.09696516723632811	2.75421142578125	-4.734039306640625	-1.842498779296875	
252	1.008	0.0	0.0	0.0	0.0	0.006	0.003	0.003	0.006	9.816226806640625	0.09038111267089843	0.055066638183593745	2.46429443359375	-3.6468505859375	-0.644683837890625	9.746794958496093	-0.04369418029785156	0.22445640563964842	0.51116943359375	-4.7760009765625	-3.086090087890625	9.943119494628906	0.4752490295410156	-0.06943184814453125	2.6702880859375	-4.974365234375	-1.750946044921875	
253	1.012	0.0	0.0	0.0	0.0	0.006	0.006	0.003	0.006	9.865906491088866	0.08140285644531249	0.04668693237304687	2.60162353515625	-3.742218017578125	-0.881195068359375	9.78629928588867	-0.07422025146484375	0.17238251953125	0.6103515625	-5.035400390625	-3.200531005859375	9.976638317871092	0.4578910675048828	-0.12629413757324218	2.819061279296875	-4.791259765625	-1.804351806640625	
254	1.016	0.0	0.0	0.0	0.0	0.006	0.003	0.003	0.006	9.86291373901367	0.12150573425292968	0.04189852905273437	2.8228759765625	-3.65447998046875	-0.83160400390625	9.778518130493163	-0.028730419921875	0.1897404815673828	0.690460205078125	-4.978179931640625	-3.131866455078125	9.952097750854492	0.4991910461425781	-0.11133037719726561	2.7618408203125	-4.718780517578125	-1.88446044921875	
255	1.02	0.0	0.0	0.0	0.0	0.003	0.003	0.006	0.003	9.879673150634765	0.16879121704101563	0.033518823242187495	2.582550048828125	-3.849029541015625	-0.8697509765625	9.788693487548828	0.013766659545898436	0.17956512451171874	0.63323974609375	-5.321502685546875	-3.01361083984375	9.965265859985351	0.556053335571289	-0.16519991455078123	2.918243408203125	-4.6844482421875	-1.73187255859375	
256	1.024	0.0	0.0	0.0	0.0	0.006	0.003	0.003	0.006	9.89583401184082	0.17776947326660156	0.014963760375976562	2.544403076171875	-3.8299560546875	-0.66375732421875	9.796474642944336	0.015562310791015624	0.13646949462890623	0.49591064453125	-4.93621826171875	-3.192901611328125	9.974244116210937	0.5548562347412109	-0.20530279235839843	2.971649169921875	-4.87518310546875	-1.651763916015625	
257	1.028	0.0	0.0	0.0	0.0	0.006	0.006	0.003	0.006	9.894038360595703	0.19572598571777342	0.017956512451171875	2.75421142578125	-3.894805908203125	-0.621795654296875	9.804854348754882	0.034715924072265626	0.12808978881835936	0.804901123046875	-5.229949951171875	-3.147125244140625	9.988010775756836	0.5626373901367188	-0.23582886352539062	2.513885498046875	-4.528045654296875	-1.7852783203125	
258	1.032	0.0	0.0	0.0	0.0	0.006	0.006	0.006	0.003	9.9078050201416	0.24061726684570311	0.010773907470703125	2.74658203125	-3.696441650390625	-0.9918212890625	9.80006594543457	0.09337386474609374	0.11791443176269531	0.690460205078125	-5.229949951171875	-3.108978271484375	9.982025271606444	0.632667788696289	-0.26276363220214843	2.55584716796875	-4.6844482421875	-1.8463134765625	
259	1.036	0.0	0.0	0.0	0.0	0.003	0.006	0.003	0.006	9.87009634399414	0.20709844360351562	0.004189852905273437	2.4566650390625	-3.84521484375	-0.682830810546875	9.787496386718749	0.07302315063476562	0.11731588134765625	0.476837158203125	-4.962921142578125	-2.960205078125	9.968258612060547	0.6027402679443359	-0.26276363220214843	2.52532958984375	-4.344940185546875	-1.590728759765625	
260	1.04	0.0	0.0	0.0	0.0	0.003	0.003	0.003	0.009000000000000001	9.847351428222655	0.17298106994628906	-0.007781155395507812	2.410888671875	-3.65447998046875	-0.926971435546875	9.782707983398437	0.010175357055664061	0.10714052429199218	0.423431396484375	-5.10406494140625	-3.185272216796875	9.976039767456054	0.5327098693847656	-0.26815058593749996	2.681732177734375	-4.566192626953125	-1.758575439453125	
261	1.044	0.0	0.0	0.0	0.0	0.006	0.003	0.006	0.003	9.83897172241211	0.1927332336425781	0.0047884033203125	2.437591552734375	-3.570556640625	-0.6256103515625	9.763554370117188	0.05386953735351562	0.12808978881835936	0.4425048828125	-4.886627197265625	-2.956390380859375	9.93952819213867	0.5764040496826172	-0.24959552307128904	2.590179443359375	-4.7149658203125	-1.819610595703125	
262	1.048	0.0	0.0	0.0	0.0	0.003	0.003	0.003	0.006	9.840168823242188	0.2214636535644531	-0.009576806640625	2.197265625	-3.772735595703125	-0.850677490234375	9.765948571777344	0.07122749938964844	0.11192892761230468	0.40435791015625	-5.22613525390625	-2.99072265625	9.92755718383789	0.6075286712646484	-0.24839842224121092	2.750396728515625	-4.673004150390625	-1.613616943359375	
263	1.052	0.0	0.0	0.0	0.0	0.003	0.003	0.006	0.003	9.871891995239258	0.21248539733886718	-0.012569558715820313	2.64739990234375	-3.997802734375	-0.797271728515625	9.791686239624022	0.05386953735351562	0.10295067138671875	0.54931640625	-5.04302978515625	-2.99835205078125	9.967061511230469	0.5787982513427734	-0.2645592834472656	2.5787353515625	-4.6539306640625	-1.71661376953125	
264	1.056	0.0	0.0	0.0	0.0	0.003	0.006	0.003	0.006	9.891644158935547	0.20949264526367187	-0.013168109130859374	2.246856689453125	-3.643035888671875	-0.7171630859375	9.798868844604492	0.055066638183593745	0.12808978881835936	0.484466552734375	-5.0201416015625	-2.918243408203125	9.98561657409668	0.5758054992675781	-0.2232593048095703	2.422332763671875	-4.41741943359375	-1.60980224609375	
265	1.06	0.0	0.0	0.0	0.0	0.006	0.003	0.003	0.006	9.87009634399414	0.19572598571777342	0.02454056701660156	2.620697021484375	-3.94439697265625	-0.823974609375	9.787496386718749	0.044292730712890624	0.16519991455078123	0.331878662109375	-5.10406494140625	-3.02886962890625	9.970652813720703	0.5746083984375	-0.17657237243652343	2.735137939453125	-4.791259765625	-1.758575439453125	
266	1.064	0.0	0.0	0.0	0.0	0.006	0.003	0.003	0.003	9.874286196899414	0.19393033447265623	0.022146365356445312	2.471923828125	-3.818511962890625	-0.72479248046875	9.787496386718749	0.03411737365722656	0.1640028137207031	0.499725341796875	-5.10406494140625	-3.170013427734375	9.968857162475585	0.5686228942871093	-0.17298106994628906	2.7923583984375	-4.695892333984375	-1.804351806640625	
267	1.068	0.0	0.0	0.0	0.0	0.009000000000000001	0.006	0.003	0.003	9.891644158935547	0.20350714111328125	-0.003591302490234375	2.422332763671875	-3.59344482421875	-0.9765625	9.791087689208984	0.02633621826171875	0.15502455749511718	0.54168701171875	-4.87518310546875	-3.185272216796875	9.958681805419921	0.575206948852539	-0.18375497741699218	2.593994140625	-4.680633544921875	-1.964569091796875	
268	1.072	0.0	0.0	0.0	0.0	0.003	0.003	0.003	0.006	9.883264453125	0.19991583862304688	0.013168109130859374	2.536773681640625	-3.6163330078125	-0.614166259765625	9.788693487548828	0.03890577697753906	0.1640028137207031	0.751495361328125	-4.909515380859375	-3.143310546875	9.958083255004881	0.5817910034179687	-0.1592144104003906	2.57110595703125	-4.573822021484375	-1.613616943359375	
269	1.076	0.0	0.0	0.0	0.0	0.003	0.003	0.006	0.003	9.871891995239258	0.14784195251464843	0.03172317199707031	2.25067138671875	-3.7994384765625	-0.682830810546875	9.781510882568359	0.0053869537353515625	0.17896657409667968	0.736236572265625	-5.146026611328125	-3.13568115234375	9.96586441040039	0.5279214660644531	-0.11432312927246092	2.7618408203125	-4.4708251953125	-1.483917236328125	
270	1.08	0.0	0.0	0.0	0.0	0.003	0.003	0.003	0.006	9.86291373901367	0.12449848632812499	0.04608838195800781	2.44140625	-3.5552978515625	-0.91552734375	9.785102185058593	-0.029328970336914062	0.19333178405761717	0.530242919921875	-4.8828125	-3.265380859375	9.982025271606444	0.5039794494628906	-0.1083376251220703	2.887725830078125	-4.974365234375	-1.83868408203125	
271	1.084	0.0	0.0	0.0	0.0	0.006	0.003	0.006	0.006	9.854534033203125	0.13347674255371092	0.055066638183593745	2.620697021484375	-3.7841796875	-0.67901611328125	9.784503634643555	-0.011971008300781249	0.1945288848876953	0.45013427734375	-4.92095947265625	-3.055572509765625	9.970054263305663	0.5147533569335937	-0.11851298217773437	2.460479736328125	-4.619598388671875	-1.62506103515625	
272	1.088	0.0	0.0	0.0	0.0	0.003	0.006	0.003	0.003	9.865307940673828	0.15741875915527342	0.04548983154296875	2.6702880859375	-3.79180908203125	-0.69427490234375	9.775525378417969	0.00718260498046875	0.19333178405761717	0.64849853515625	-4.82177734375	-3.16619873046875	9.945513696289062	0.5392939239501953	-0.1304839904785156	2.811431884765625	-4.7454833984375	-1.903533935546875	
273	1.092	0.0	0.0	0.0	0.0	0.009000000000000001	0.003	0.003	0.006	9.86351228942871	0.15203180541992187	0.04189852905273437	2.483367919921875	-3.8604736328125	-0.8087158203125	9.785102185058593	-0.004189852905273437	0.18914193115234373	0.67138671875	-4.909515380859375	-3.162384033203125	9.94671079711914	0.536899722290039	-0.143652099609375	2.819061279296875	-4.489898681640625	-1.64794921875	
274	1.096	0.0	0.0	0.0	0.0	0.003	0.003	0.003	0.006	9.872490545654296	0.1322796417236328	0.05626373901367187	2.66265869140625	-3.536224365234375	-0.87738037109375	9.788693487548828	-0.020949264526367185	0.181959326171875	0.759124755859375	-5.340576171875	-3.162384033203125	9.964068759155273	0.51714755859375	-0.15322890625	2.834320068359375	-4.741668701171875	-1.64794921875	
275	1.1	0.0	0.0	0.0	0.0	0.009000000000000001	0.003	0.003	0.006	9.87069489440918	0.13766659545898435	0.07362170104980469	2.63214111328125	-3.7689208984375	-0.698089599609375	9.784503634643555	-0.0143652099609375	0.17477672119140625	0.4730224609375	-4.94384765625	-3.204345703125	9.97184991455078	0.51714755859375	-0.17417817077636719	2.727508544921875	-4.520416259765625	-1.8157958984375	
276	1.104	0.0	0.0	0.0	0.0	0.003	0.003	0.006	0.0	9.871293444824218	0.1592144104003906	0.07122749938964844	2.674102783203125	-3.742218017578125	-0.762939453125	9.785102185058593	0.0017956512451171875	0.1580173095703125	0.48828125	-5.01251220703125	-3.0975341796875	9.967061511230469	0.5392939239501953	-0.18136077575683593	3.086090087890625	-4.962921142578125	-1.800537109375	
277	1.108	0.0	0.0	0.0	0.0	0.003	0.006	0.003	0.006	9.878476049804688	0.16519991455078123	0.05805939025878906	2.55584716796875	-3.631591796875	-0.83160400390625	9.785700735473633	0.018555062866210937	0.16160861206054686	0.370025634765625	-4.95147705078125	-3.0059814453125	9.97903251953125	0.5512649322509765	-0.1975216369628906	2.838134765625	-4.669189453125	-1.781463623046875	
278	1.112	0.0	0.0	0.0	0.0	0.006	0.003	0.006	0.0	9.879074600219726	0.15023615417480468	0.05985504150390625	2.34222412109375	-3.757476806640625	-0.80108642578125	9.785102185058593	-0.00239420166015625	0.16819266662597654	0.553131103515625	-5.008697509765625	-3.116607666015625	9.974244116210937	0.5315127685546874	-0.20290859069824219	2.44140625	-4.581451416015625	-1.758575439453125	
279	1.116	0.0	0.0	0.0	0.0	0.003	0.006	0.003	0.006	9.867702142333984	0.13766659545898435	0.06883329772949218	2.300262451171875	-3.9825439453125	-0.865936279296875	9.787496386718749	-0.015562310791015624	0.18555062866210936	0.61798095703125	-5.146026611328125	-3.05938720703125	9.964068759155273	0.5159504577636719	-0.18255787658691405	2.46429443359375	-4.66156005859375	-1.83868408203125	
280	1.12	0.0	0.0	0.0	0.0	0.003	0.003	0.006	0.006	9.873687646484374	0.14006079711914063	0.0718260498046875	2.307891845703125	-3.932952880859375	-0.7781982421875	9.78629928588867	-0.020949264526367185	0.1897404815673828	0.28228759765625	-4.81414794921875	-2.89154052734375	9.962273107910155	0.5135562561035156	-0.1753752716064453	2.666473388671875	-4.711151123046875	-1.67083740234375	
281	1.124	0.0	0.0	0.0	0.0	0.003	0.006	0.003	0.003	9.879074600219726	0.12509703674316405	0.08140285644531249	2.410888671875	-3.917694091796875	-0.7476806640625	9.791686239624022	-0.022744915771484374	0.20051438903808594	0.438690185546875	-4.791259765625	-3.13568115234375	9.97125136413574	0.5015852478027344	-0.15322890625	2.67791748046875	-4.5318603515625	-1.903533935546875	
282	1.1280000000000001	0.0	0.0	0.0	0.0	0.0	0.003	0.006	0.003	9.873687646484374	0.1227028350830078	0.08678981018066406	2.368927001953125	-3.757476806640625	-0.766754150390625	9.783905084228515	-0.025737667846679687	0.21068974609375	0.34332275390625	-5.24139404296875	-3.017425537109375	9.976638317871092	0.5093664031982421	-0.12389993591308593	2.8076171875	-4.730224609375	-1.8157958984375	
283	1.1320000000000001	0.0	0.0	0.0	0.0	0.003	0.003	0.003	0.003	9.865906491088866	0.11133037719726561	0.08978256225585937	2.410888671875	-3.673553466796875	-0.881195068359375	9.78629928588867	-0.03531447448730469	0.22505495605468748	0.408172607421875	-4.970550537109375	-3.31878662109375	9.970652813720703	0.4896142395019531	-0.11192892761230468	2.483367919921875	-4.5318603515625	-1.5411376953125	
284	1.1360000000000001	0.0	0.0	0.0	0.0	0.0	0.006	0.003	0.003	9.871891995239258	0.09516951599121093	0.08798691101074219	2.429962158203125	-3.76129150390625	-0.74005126953125	9.788693487548828	-0.06284779357910156	0.2292448089599609	0.28228759765625	-5.035400390625	-2.986907958984375	9.97244846496582	0.4704606262207031	-0.1083376251220703	2.51007080078125	-4.558563232421875	-1.682281494140625	
285	1.1400000000000001	0.0	0.0	0.0	0.0	0.003	0.003	0.006	0.003	9.86411083984375	0.1005564697265625	0.08259995727539061	2.63214111328125	-3.749847412109375	-0.820159912109375	9.783905084228515	-0.052073886108398436	0.23104046020507812	0.591278076171875	-5.035400390625	-2.986907958984375	9.974244116210937	0.4752490295410156	-0.09516951599121093	2.6702880859375	-4.6234130859375	-1.735687255859375	
286	1.1440000000000001	0.0	0.0	0.0	0.0	0.003	0.003	0.003	0.006	9.867103591918944	0.1197100830078125	0.08678981018066406	2.445220947265625	-3.849029541015625	-0.820159912109375	9.776123928833007	-0.025737667846679687	0.23104046020507812	0.720977783203125	-5.1727294921875	-3.147125244140625	9.963470208740233	0.5195417602539062	-0.08439560852050781	2.956390380859375	-4.711151123046875	-1.720428466796875	
287	1.1480000000000001	0.0	0.0	0.0	0.0	0.006	0.003	0.006	0.003	9.87009634399414	0.12629413757324218	0.086191259765625	2.590179443359375	-3.688812255859375	-0.850677490234375	9.785102185058593	-0.018555062866210937	0.22266075439453123	0.60272216796875	-5.02777099609375	-3.173828125	9.981426721191406	0.5135562561035156	-0.09636661682128905	2.7313232421875	-4.6234130859375	-1.773834228515625	
288	1.1520000000000001	0.0	0.0	0.0	0.0	0.009000000000000001	0.006	0.006	0.006	9.86291373901367	0.12988544006347655	0.08319850769042968	2.79998779296875	-3.7689208984375	-0.888824462890625	9.785700735473633	-0.017357962036132813	0.21727380065917967	0.69427490234375	-5.222320556640625	-3.25775146484375	9.976638317871092	0.5111620544433594	-0.11611878051757812	2.696990966796875	-4.566192626953125	-1.705169677734375	
289	1.156	0.0	0.0	0.0	0.0	0.003	0.003	0.003	0.006	9.87727894897461	0.14425065002441406	0.0718260498046875	2.552032470703125	-3.711700439453125	-0.904083251953125	9.7928833404541	-0.0143652099609375	0.201112939453125	0.7781982421875	-4.970550537109375	-3.360748291015625	9.980229620361328	0.5255272644042969	-0.13108254089355467	2.658843994140625	-4.72259521484375	-1.953125	
290	1.16	0.0	0.0	0.0	0.0	0.003	0.006	0.003	0.006	9.87727894897461	0.17178396911621094	0.06105214233398437	2.666473388671875	-3.7078857421875	-0.90789794921875	9.781510882568359	0.020350714111328123	0.17956512451171874	0.46539306640625	-4.848480224609375	-2.910614013671875	9.970652813720703	0.5476736297607422	-0.1610100616455078	2.742767333984375	-4.909515380859375	-1.77001953125	
291	1.164	0.0	0.0	0.0	0.0	0.0	0.006	0.003	0.006	9.87009634399414	0.18136077575683593	0.04129997863769531	2.552032470703125	-3.696441650390625	-1.007080078125	9.784503634643555	0.02693476867675781	0.16639701538085935	0.827789306640625	-5.0048828125	-2.841949462890625	9.967660061645507	0.5734112976074218	-0.181959326171875	2.933502197265625	-4.695892333984375	-1.7242431640625	
292	1.168	0.0	0.0	0.0	0.0	0.006	0.006	0.003	0.009000000000000001	9.868899243164062	0.19333178405761717	0.03591302490234375	2.60162353515625	-3.719329833984375	-0.591278076171875	9.78629928588867	0.03531447448730469	0.16460136413574217	0.70953369140625	-4.96673583984375	-3.139495849609375	9.97184991455078	0.5793968017578125	-0.20290859069824219	2.887725830078125	-4.5166015625	-1.621246337890625	
293	1.172	0.0	0.0	0.0	0.0	0.003	0.003	0.003	0.003	9.867103591918944	0.19033903198242186	0.03531447448730469	2.658843994140625	-3.76129150390625	-0.888824462890625	9.780912332153319	0.047884033203124995	0.15382745666503905	0.77056884765625	-5.01251220703125	-3.246307373046875	9.966462960815429	0.5770026000976562	-0.20530279235839843	2.819061279296875	-4.76837158203125	-1.678466796875	
294	1.176	0.0	0.0	0.0	0.0	0.003	0.006	0.006	0.0	9.868300692749022	0.21068974609375	0.016160861206054686	2.300262451171875	-3.662109375	-0.850677490234375	9.785102185058593	0.062249243164062495	0.13347674255371092	0.54931640625	-5.2337646484375	-3.12042236328125	9.973047015380859	0.5859808563232421	-0.22864625854492185	2.674102783203125	-4.627227783203125	-1.74713134765625	
295	1.18	0.0	0.0	0.0	0.0	0.0	0.003	0.006	0.006	9.874286196899414	0.2184709014892578	0.008978256225585938	2.57110595703125	-3.810882568359375	-0.7171630859375	9.785102185058593	0.06045359191894531	0.12330138549804687	0.43487548828125	-5.04302978515625	-3.082275390625	9.97184991455078	0.5955576629638671	-0.24600422058105467	2.620697021484375	-4.69207763671875	-1.857757568359375	
296	1.184	0.0	0.0	0.0	0.0	0.006	0.003	0.003	0.003	9.87009634399414	0.229843359375	0.0143652099609375	2.3956298828125	-3.604888916015625	-0.6561279296875	9.784503634643555	0.07900865478515624	0.1197100830078125	0.6103515625	-4.85992431640625	-3.063201904296875	9.963470208740233	0.6183025787353515	-0.239420166015625	2.6397705078125	-4.5166015625	-1.636505126953125	
297	1.188	0.0	0.0	0.0	0.0	0.003	0.003	0.003	0.003	9.868300692749022	0.23403321228027343	0.015562310791015624	2.25830078125	-3.753662109375	-0.720977783203125	9.783905084228515	0.07003039855957031	0.12210428466796874	0.55694580078125	-5.08880615234375	-3.08990478515625	9.964068759155273	0.6057330200195312	-0.2280477081298828	2.819061279296875	-4.764556884765625	-1.85394287109375	
298	1.192	0.0	0.0	0.0	0.0	0.006	0.003	0.003	0.006	9.874884747314452	0.21727380065917967	-0.003591302490234375	2.368927001953125	-3.96728515625	-0.843048095703125	9.787496386718749	0.05626373901367187	0.12449848632812499	0.78582763671875	-5.3863525390625	-3.10516357421875	9.97783541870117	0.5967547637939453	-0.2136824981689453	2.559661865234375	-4.7149658203125	-1.674652099609375	
299	1.196	0.0	0.0	0.0	0.0	0.006	0.006	0.003	0.003	9.872490545654296	0.20709844360351562	-0.002992752075195312	2.2125244140625	-3.80706787109375	-0.591278076171875	9.787496386718749	0.05327098693847656	0.1292868896484375	0.507354736328125	-5.05828857421875	-2.964019775390625	9.963470208740233	0.5913678100585937	-0.21428104858398436	2.590179443359375	-4.49371337890625	-1.499176025390625	
300	1.2	0.0	0.0	0.0	0.0	0.003	0.006	0.003	0.003	9.873089096069336	0.21727380065917967	-0.012569558715820313	2.399444580078125	-3.71551513671875	-0.96893310546875	9.78629928588867	0.06284779357910156	0.12449848632812499	0.156402587890625	-4.909515380859375	-3.07464599609375	9.962273107910155	0.6015431671142578	-0.2088940948486328	2.643585205078125	-4.66156005859375	-1.659393310546875	
301	1.204	0.0	0.0	0.0	0.0	0.003	0.003	0.003	0.006	9.871293444824218	0.20709844360351562	-0.006584054565429687	2.532958984375	-3.902435302734375	-0.766754150390625	9.785102185058593	0.044292730712890624	0.1592144104003906	0.49591064453125	-5.016326904296875	-3.18145751953125	9.956287603759765	0.5823895538330078	-0.19333178405761717	2.75421142578125	-4.913330078125	-1.796722412109375	
302	1.208	0.0	0.0	0.0	0.0	0.003	0.003	0.003	0.006	9.855731134033203	0.17836802368164062	0.0	2.414703369140625	-4.077911376953125	-0.86212158203125	9.783306533813477	0.017956512451171875	0.16879121704101563	0.5950927734375	-5.039215087890625	-3.093719482421875	9.969455712890625	0.5416881256103515	-0.16519991455078123	2.468109130859375	-4.5623779296875	-1.80816650390625	
303	1.212	0.0	0.0	0.0	0.0	0.003	0.003	0.003	0.003	9.861716638183593	0.17357962036132812	0.007781155395507812	2.597808837890625	-3.5400390625	-0.705718994140625	9.784503634643555	0.010773907470703125	0.15562310791015624	0.545501708984375	-5.0048828125	-3.02886962890625	9.97244846496582	0.5506663818359374	-0.16699556579589842	2.643585205078125	-4.863739013671875	-1.94549560546875	
304	1.216	0.0	0.0	0.0	0.0	0.003	0.006	0.003	0.003	9.864709390258788	0.17836802368164062	0.011971008300781249	2.315521240234375	-3.749847412109375	-0.80108642578125	9.783306533813477	0.03411737365722656	0.15203180541992187	0.78582763671875	-4.817962646484375	-3.22723388671875	9.95389340209961	0.5776011505126952	-0.15861585998535155	2.574920654296875	-4.558563232421875	-1.7242431640625	
305	1.22	0.0	0.0	0.0	0.0	0.003	0.006	0.006	0.006	9.878476049804688	0.1693897674560547	0.006584054565429687	2.574920654296875	-3.917694091796875	-0.78582763671875	9.787496386718749	0.02693476867675781	0.15203180541992187	0.743865966796875	-5.42449951171875	-2.857208251953125	9.955689053344726	0.5572504364013672	-0.16460136413574217	2.597808837890625	-4.734039306640625	-1.590728759765625	
306	1.224	0.0	0.0	0.0	0.0	0.006	0.003	0.003	0.006	9.878476049804688	0.17657237243652343	0.007781155395507812	2.593994140625	-3.765106201171875	-0.736236572265625	9.795876092529296	0.011372457885742187	0.15203180541992187	0.45013427734375	-5.0811767578125	-3.1280517578125	9.976638317871092	0.5422866760253906	-0.18375497741699218	2.838134765625	-4.69207763671875	-1.7547607421875	
307	1.228	0.0	0.0	0.0	0.0	0.006	0.003	0.006	0.006	9.864709390258788	0.1771709228515625	0.016160861206054686	2.6092529296875	-3.711700439453125	-0.79345703125	9.78629928588867	0.028730419921875	0.15382745666503905	0.81634521484375	-5.214691162109375	-3.055572509765625	9.969455712890625	0.556053335571289	-0.17178396911621094	2.849578857421875	-4.57000732421875	-1.79290771484375	
