	time	dac1	dac2	dac3	dac4	adc1.3	adc2.3	adc3.3	adc4.3	imu1accx	imu1accy	imu1accz	imu1gyrox	imu1gyroy	imu1gyroz	imu2accx	imu2accy	imu2accz	imu2gyrox	imu2gyroy	imu2gyroz	imu3accx	imu3accy	imu3accz	imu3gyrox	imu3gyroy	imu3gyroz	log
0	0.0	0.0	0.0	0.0	0.0	4.644	4.671	4.671	4.644	9.874884747314452	0.10235212097167969	0.037110125732421874	2.54058837890625	-3.917694091796875	-0.759124755859375	9.784503634643555	-0.05686228942871093	0.16699556579589842	0.55694580078125	-4.741668701171875	-3.139495849609375	9.991003527832031	0.32082302246093747	-0.17178396911621094	2.635955810546875	-4.5928955078125	-1.453399658203125	Estabizou em 6s, 1158 rpm
1	0.004	0.0	0.0	0.0	0.0	4.638	4.671	4.671	4.647	9.871891995239258	0.10115502014160156	0.033518823242187495	2.490997314453125	-3.673553466796875	-0.797271728515625	9.779715231323241	-0.0526724365234375	0.18076222534179687	0.69427490234375	-5.22613525390625	-3.1890869140625	9.979631069946288	0.3130418670654297	-0.17956512451171874	2.429962158203125	-4.82940673828125	-1.33514404296875	Started
2	0.008	0.0	0.0	0.0	0.0	4.647	4.671	4.665	4.644	9.880271701049804	0.08738836059570312	0.0430956298828125	2.38037109375	-3.79180908203125	-0.80108642578125	9.780912332153319	-0.05386953735351562	0.1693897674560547	0.67901611328125	-5.035400390625	-3.215789794921875	9.97903251953125	0.3220201232910156	-0.18315642700195311	2.742767333984375	-4.619598388671875	-1.64794921875	IMU1|LSM6DS3|0x6A|I2C-1|±2g (±19,6m/s²)|±125º/s|400Hz
3	0.012	0.0	0.0	0.0	0.0	4.644	4.671	4.674	4.632	9.878476049804688	0.09816226806640624	0.029927520751953124	2.506256103515625	-3.864288330078125	-0.949859619140625	9.782707983398437	-0.05805939025878906	0.16699556579589842	0.667572021484375	-5.08880615234375	-3.215789794921875	9.967660061645507	0.32620997619628905	-0.17597382202148437	2.696990966796875	-4.589080810546875	-1.617431640625	IMU2|LSM6DS3|0x6B|I2C-1|±2g (±19,6m/s²)|±125º/s|400Hz
4	0.016	0.0	0.0	0.0	0.0	4.644	4.671	4.671	4.626	9.87668039855957	0.10773907470703124	0.02633621826171875	2.552032470703125	-3.80706787109375	-0.881195068359375	9.78629928588867	-0.04967968444824218	0.16460136413574217	0.7781982421875	-5.2642822265625	-3.21197509765625	9.97783541870117	0.3298012786865234	-0.17896657409667968	2.52532958984375	-4.50897216796875	-1.64794921875	IMU3|LSM6DS3|0x6B|I2C-2|±2g (±19,6m/s²)|±125º/s|400Hz
5	0.02	0.0	0.0	0.0	0.0	4.644	4.668	4.671	4.635	9.872490545654296	0.10654197387695312	0.037110125732421874	2.5787353515625	-3.74603271484375	-0.86212158203125	9.78629928588867	-0.04608838195800781	0.1640028137207031	0.553131103515625	-5.123138427734375	-3.055572509765625	9.97184991455078	0.3333925811767578	-0.18076222534179687	2.658843994140625	-4.642486572265625	-1.674652099609375	ADC|ADS1015|0|0|1|0|±6,144 V|2400 SPS
6	0.024	0.0	0.0	0.0	0.0	4.644	4.665	4.671	4.638	9.879074600219726	0.11192892761230468	0.034715924072265626	2.655029296875	-3.765106201171875	-0.804901123046875	9.785102185058593	-0.037110125732421874	0.15682020874023436	0.637054443359375	-4.703521728515625	-3.101348876953125	9.97125136413574	0.34177228698730466	-0.20470424194335937	2.681732177734375	-4.63104248046875	-1.506805419921875	Gen1|Disabled
7	0.028	0.0	0.0	0.0	0.0	4.644	4.671	4.671	4.644	9.87727894897461	0.1197100830078125	0.02693476867675781	2.574920654296875	-3.6773681640625	-0.690460205078125	9.788693487548828	-0.025737667846679687	0.15322890625	0.438690185546875	-5.0201416015625	-3.0364990234375	9.974842666625976	0.35015199279785153	-0.1945288848876953	2.643585205078125	-4.833221435546875	-1.52587890625	Gen2|Enabled|Noise|0.0|10.0|1668
8	0.032	0.0	0.0	0.0	0.0	4.638	4.671	4.671	4.641	9.880271701049804	0.13646949462890623	0.031124621582031248	2.67791748046875	-3.94439697265625	-0.904083251953125	9.787496386718749	-0.02454056701660156	0.1657984649658203	0.667572021484375	-5.153656005859375	-3.204345703125	9.97125136413574	0.36152445068359373	-0.19512743530273435	2.532958984375	-4.810333251953125	-1.67083740234375	Gen3|Enabled|Noise|0.0|10.0|128
9	0.036000000000000004	0.0	0.0	0.0	0.0	4.641	4.671	4.668	4.644	9.881468801879882	0.13108254089355467	0.022146365356445312	2.66265869140625	-3.749847412109375	-0.885009765625	9.785102185058593	-0.0143652099609375	0.15741875915527342	0.644683837890625	-4.947662353515625	-2.99835205078125	9.976039767456054	0.3705027069091797	-0.20171148986816406	2.529144287109375	-4.543304443359375	-1.51824951171875	Gen4|Enabled|Noise|0.0|10.0|128
10	0.04	0.0	0.0	0.0	0.0	4.644	4.671	4.674	4.632	9.879673150634765	0.14006079711914063	0.027533319091796873	2.315521240234375	-3.726959228515625	-0.75531005859375	9.785102185058593	-0.006584054565429687	0.15083470458984374	0.576019287109375	-4.87518310546875	-3.055572509765625	9.976638317871092	0.38367081604003905	-0.20470424194335937	2.76947021484375	-4.673004150390625	-1.636505126953125	Ctrl|Disabled
11	0.044	0.0	0.0	0.0	0.0	4.65	4.671	4.671	4.623	9.878476049804688	0.16340426330566404	0.02693476867675781	2.50244140625	-3.795623779296875	-0.736236572265625	9.788693487548828	0.0017956512451171875	0.14185644836425781	0.637054443359375	-5.11932373046875	-3.19671630859375	9.95987890625	0.3872621185302734	-0.1975216369628906	2.597808837890625	-4.6539306640625	-1.82342529296875	
12	0.048	0.0	0.0	0.0	0.0	4.644	4.668	4.671	4.632	9.868899243164062	0.17956512451171874	0.022146365356445312	2.452850341796875	-3.787994384765625	-0.9613037109375	9.788094937133788	0.018555062866210937	0.15203180541992187	0.43487548828125	-5.001068115234375	-3.0517578125	9.96586441040039	0.3968389251708984	-0.2041056915283203	2.628326416015625	-4.63104248046875	-1.598358154296875	
13	0.052000000000000005	0.0	0.0	0.0	0.0	4.644	4.665	4.671	4.641	9.87069489440918	0.18555062866210936	0.032920272827148434	2.2735595703125	-3.635406494140625	-0.77056884765625	9.785102185058593	0.01975216369628906	0.1640028137207031	0.637054443359375	-4.901885986328125	-3.143310546875	9.968857162475585	0.40402153015136716	-0.19333178405761717	2.719879150390625	-4.611968994140625	-1.5716552734375	
14	0.056	0.0	0.0	0.0	0.0	4.638	4.671	4.671	4.644	9.855731134033203	0.18076222534179687	0.010175357055664061	2.574920654296875	-3.753662109375	-0.797271728515625	9.785102185058593	0.02693476867675781	0.16998831787109375	0.759124755859375	-5.191802978515625	-3.078460693359375	9.968857162475585	0.40282442932128903	-0.16998831787109375	2.410888671875	-4.779815673828125	-1.7547607421875	
15	0.06	0.0	0.0	0.0	0.0	4.644	4.671	4.671	4.644	9.873687646484374	0.23343466186523437	0.03531447448730469	2.34222412109375	-3.940582275390625	-0.629425048828125	9.787496386718749	0.10594342346191406	0.1657984649658203	0.732421875	-5.184173583984375	-3.34930419921875	9.950302099609374	0.48123453369140623	-0.1693897674560547	2.407073974609375	-4.779815673828125	-1.537322998046875	
16	0.064	0.0	0.0	0.0	0.0	4.638	4.671	4.668	4.644	9.87727894897461	0.17776947326660156	0.023942016601562498	2.048492431640625	-3.82232666015625	-0.74005126953125	9.782707983398437	0.010773907470703125	0.1580173095703125	0.438690185546875	-5.07354736328125	-2.994537353515625	9.937133990478515	0.38247371520996093	-0.13347674255371092	2.90679931640625	-4.8980712890625	-1.3885498046875	
17	0.068	0.0	0.0	0.0	0.0	4.644	4.671	4.671	4.6290000000000004	9.873089096069336	0.21248539733886718	0.04189852905273437	2.437591552734375	-3.589630126953125	-0.69427490234375	9.785102185058593	0.11911153259277343	0.17657237243652343	0.61798095703125	-5.01251220703125	-3.330230712890625	9.944316595458984	0.4537012145996093	-0.143652099609375	2.681732177734375	-4.58526611328125	-1.76239013671875	
18	0.07200000000000001	0.0	0.0	0.0	0.0	4.65	4.671	4.671	4.626	9.890447058105469	0.22266075439453123	0.023343466186523436	2.46429443359375	-3.757476806640625	-0.751495361328125	9.782109432983399	0.12689268798828124	0.17118541870117188	0.522613525390625	-4.917144775390625	-3.101348876953125	9.93354268798828	0.5039794494628906	-0.09516951599121093	2.72369384765625	-4.6234130859375	-1.47247314453125	
19	0.076	0.0	0.0	0.0	0.0	4.644	4.668	4.671	4.632	9.86351228942871	0.1867477294921875	0.06883329772949218	2.7313232421875	-4.0283203125	-0.9613037109375	9.78689783630371	0.03591302490234375	0.15981296081542967	0.701904296875	-5.0201416015625	-3.28826904296875	9.983222372436522	0.3705027069091797	-0.1867477294921875	2.628326416015625	-4.451751708984375	-1.598358154296875	
20	0.08	0.0	0.0	0.0	0.0	4.65	4.665	4.671	4.641	9.885658654785155	0.20171148986816406	0.037110125732421874	2.353668212890625	-3.635406494140625	-0.743865966796875	9.7683427734375	0.08918401184082031	0.1771709228515625	0.54931640625	-5.2642822265625	-3.170013427734375	9.931148486328125	0.42497079467773435	-0.08259995727539061	2.7618408203125	-4.79888916015625	-1.6326904296875	
21	0.084	0.0	0.0	0.0	0.0	4.644	4.671	4.671	4.641	9.897031112670899	0.2232593048095703	0.010175357055664061	2.00653076171875	-3.772735595703125	-0.8697509765625	9.801263046264648	0.12449848632812499	0.16879121704101563	0.70953369140625	-4.90570068359375	-3.101348876953125	10.01733974609375	0.45549686584472654	-0.20829554443359374	2.796173095703125	-4.573822021484375	-1.54876708984375	
22	0.088	0.0	0.0	0.0	0.0	4.644	4.671	4.671	4.644	9.881468801879882	0.21727380065917967	0.06344634399414062	2.346038818359375	-3.88336181640625	-1.010894775390625	9.76235726928711	0.08259995727539061	0.2603694305419922	0.49591064453125	-4.974365234375	-2.98309326171875	9.943718045043944	0.5315127685546874	-0.14425065002441406	2.948760986328125	-4.852294921875	-1.4190673828125	
23	0.092	0.0	0.0	0.0	0.0	4.635	4.671	4.668	4.644	9.910797772216796	0.14903905334472656	0.011971008300781249	1.773834228515625	-3.520965576171875	-0.823974609375	9.804854348754882	0.031124621582031248	0.1514332550048828	0.530242919921875	-5.0506591796875	-3.246307373046875	10.02392380065918	0.32561142578124996	-0.2316390106201172	2.70843505859375	-4.73785400390625	-1.827239990234375	
24	0.096	0.0	0.0	0.0	0.0	4.644	4.671	4.671	4.632	9.880870251464843	0.2555810272216797	0.0526724365234375	2.346038818359375	-3.71551513671875	-0.9307861328125	9.777919580078125	0.13946224670410157	0.2555810272216797	0.69427490234375	-5.0201416015625	-3.082275390625	9.967061511230469	0.5913678100585937	-0.1693897674560547	2.79998779296875	-4.558563232421875	-1.506805419921875	
25	0.1	0.0	0.0	0.0	0.0	4.647	4.671	4.671	4.6290000000000004	9.91498762512207	0.1352723937988281	0.012569558715820313	1.60980224609375	-3.5247802734375	-0.911712646484375	9.855731134033203	-0.09696516723632811	0.1083376251220703	0.774383544921875	-5.14984130859375	-3.25775146484375	10.020931048583984	0.3489548919677734	-0.22445640563964842	2.765655517578125	-4.779815673828125	-1.62506103515625	
26	0.10400000000000001	0.0	0.0	0.0	0.0	4.644	4.668	4.671	4.632	9.802460147094726	0.2537853759765625	0.13946224670410157	2.98309326171875	-3.971099853515625	-0.52642822265625	9.773131176757811	0.06404489440917968	0.2825157958984375	0.43487548828125	-5.04302978515625	-2.933502197265625	9.955090502929687	0.5165490081787109	-0.17238251953125	2.750396728515625	-4.3182373046875	-1.2969970703125	
27	0.108	0.0	0.0	0.0	0.0	4.644	4.665	4.671	4.638	9.935936889648437	0.09816226806640624	-0.009576806640625	1.3275146484375	-3.231048583984375	-1.06048583984375	9.890447058105469	-0.1352723937988281	0.0939724151611328	0.453948974609375	-4.96673583984375	-3.265380859375	10.078990438842773	0.2699462371826172	-0.29448680419921874	2.838134765625	-4.611968994140625	-1.605987548828125	
28	0.112	0.0	0.0	0.0	0.0	4.644	4.671	4.671	4.635	9.80665	0.26276363220214843	0.12988544006347655	3.368377685546875	-4.207611083984375	-0.644683837890625	9.755773214721678	0.14724340209960937	0.2166752502441406	0.705718994140625	-5.016326904296875	-3.124237060546875	9.952097750854492	0.6009446166992187	-0.14784195251464843	2.86865234375	-4.909515380859375	-1.5411376953125	
29	0.116	0.0	0.0	0.0	0.0	4.638	4.671	4.671	4.644	9.937133990478515	0.058657940673828124	0.0005985504150390625	2.582550048828125	-3.635406494140625	-1.5411376953125	9.90840357055664	-0.2232593048095703	0.08738836059570312	0.48828125	-5.367279052734375	-3.265380859375	10.057442623901366	0.19393033447265623	-0.28790274963378903	2.75421142578125	-4.825592041015625	-1.59454345703125	
30	0.12	0.0	0.0	0.0	0.0	4.638	4.671	4.668	4.647	9.82460651245117	0.23223756103515625	0.12150573425292968	3.154754638671875	-3.955841064453125	-0.60272216796875	9.760561618041992	0.08738836059570312	0.2154781494140625	0.89263916015625	-5.096435546875	-3.082275390625	9.92755718383789	0.5243301635742187	-0.1131260284423828	2.704620361328125	-4.92095947265625	-1.67083740234375	
31	0.124	0.0	0.0	0.0	0.0	4.647	4.671	4.671	4.632	9.926360083007811	0.14305354919433594	0.07841010437011718	2.773284912109375	-3.841400146484375	-0.762939453125	9.815029705810547	-0.1406593475341797	0.14305354919433594	0.339508056640625	-4.863739013671875	-2.99835205078125	10.102333905029296	0.20829554443359374	-0.32501287536621093	2.9144287109375	-4.67681884765625	-1.48773193359375	
32	0.128	0.0	0.0	0.0	0.0	4.65	4.671	4.671	4.626	9.801861596679688	0.19692308654785154	0.1352723937988281	3.02886962890625	-4.12750244140625	-0.598907470703125	9.742605105590819	0.0526724365234375	0.2316390106201172	0.52642822265625	-5.329132080078125	-3.07464599609375	9.893439810180663	0.51714755859375	-0.08319850769042968	2.811431884765625	-4.638671875	-1.873016357421875	
33	0.132	0.0	0.0	0.0	0.0	4.644	4.671	4.671	4.635	9.909600671386718	0.11552023010253906	0.07541735229492187	2.552032470703125	-3.8604736328125	-0.4730224609375	9.815029705810547	-0.23223756103515625	0.14245499877929688	0.63323974609375	-5.092620849609375	-2.96783447265625	9.93414123840332	0.2232593048095703	-0.08858546142578125	2.62451171875	-4.8980712890625	-1.77001953125	
34	0.136	0.0	0.0	0.0	0.0	4.647	4.665	4.671	4.638	9.827599264526366	-0.00239420166015625	0.017956512451171875	2.44140625	-3.48663330078125	-0.66375732421875	9.759963067626952	0.032920272827148434	0.20829554443359374	0.67901611328125	-4.657745361328125	-3.360748291015625	9.92755718383789	0.5015852478027344	-0.10414777221679687	2.76947021484375	-4.596710205078125	-1.834869384765625	
35	0.14	0.0	0.0	0.0	0.0	4.644	4.671	4.671	0.7020000000000001	9.916783276367187	0.1149216796875	0.061650692749023434	3.040313720703125	-3.864288330078125	-0.58746337890625	9.815029705810547	-0.25318682556152344	0.1304839904785156	0.8392333984375	-5.18035888671875	-3.021240234375	9.931747036743163	0.23343466186523437	-0.07003039855957031	2.353668212890625	-4.871368408203125	-1.6326904296875	
36	0.14400000000000002	0.0	0.0	0.0	0.0	0.006	0.006	0.006	0.003	9.817423907470703	-0.0143652099609375	0.03531447448730469	2.4871826171875	-3.818511962890625	-0.8697509765625	9.657012396240233	0.13826514587402344	0.19991583862304688	0.576019287109375	-4.901885986328125	-3.337860107421875	9.913191973876952	0.46806642456054687	-0.031124621582031248	2.4566650390625	-4.642486572265625	-2.025604248046875	
37	0.148	0.0	0.0	0.0	0.0	0.003	0.006	0.003	0.006	9.941922393798828	0.10654197387695312	0.044292730712890624	2.956390380859375	-3.940582275390625	-0.499725341796875	9.834781869506836	-0.31004911499023435	0.09576806640624999	0.69427490234375	-4.98199462890625	-2.941131591796875	9.949104998779296	0.1801636749267578	-0.06823474731445311	2.719879150390625	-4.795074462890625	-1.5869140625	
38	0.152	0.0	0.0	0.0	0.0	0.006	0.006	0.003	0.006	9.828197814941406	-0.027533319091796873	0.016160861206054686	2.41851806640625	-3.66973876953125	-1.02996826171875	9.662997900390625	0.1610100616455078	0.18734627990722655	0.732421875	-4.98199462890625	-3.36456298828125	9.860519537353515	0.3028665100097656	-0.051475335693359374	2.50244140625	-4.791259765625	-2.193450927734375	
39	0.156	0.0	0.0	0.0	0.0	0.003	0.006	0.003	0.006	9.85094273071289	0.23403321228027343	-0.08379705810546874	2.910614013671875	-4.177093505859375	-0.568389892578125	9.675567459106444	0.10714052429199218	0.22744915771484372	0.568389892578125	-5.023956298828125	-3.143310546875	9.89583401184082	0.1945288848876953	-0.06943184814453125	2.5482177734375	-4.913330078125	-1.659393310546875	
40	0.16	0.0	0.0	0.0	0.0	0.003	0.003	0.003	0.003	9.809642752075195	-0.04548983154296875	0.011372457885742187	2.09808349609375	-3.566741943359375	-0.701904296875	9.660603698730467	0.12449848632812499	0.17776947326660156	1.026153564453125	-4.92095947265625	-3.566741943359375	9.860519537353515	0.3076549133300781	-0.07122749938964844	2.41851806640625	-4.50897216796875	-2.03704833984375	
41	0.164	0.0	0.0	0.0	0.0	0.006	0.003	0.006	0.003	9.861118087768554	0.2292448089599609	-0.11611878051757812	3.253936767578125	-4.306793212890625	-0.74005126953125	9.680954412841796	0.10594342346191406	0.21188684692382811	0.75531005859375	-5.31768798828125	-3.08990478515625	9.843760125732421	0.4626794708251953	0.001197100830078125	2.57110595703125	-4.497528076171875	-1.4495849609375	
42	0.168	0.0	0.0	0.0	0.0	0.006	0.006	0.003	0.003	9.81263550415039	-0.040102877807617184	0.04129997863769531	1.567840576171875	-3.208160400390625	-0.16021728515625	9.790489138793944	0.06344634399414062	0.17357962036132812	0.827789306640625	-4.688262939453125	-3.536224365234375	9.835978970336914	0.30526071166992186	-0.05087678527832031	2.3651123046875	-4.650115966796875	-2.101898193359375	
43	0.17200000000000001	0.0	0.0	0.0	0.0	0.009000000000000001	0.006	0.003	0.006	9.854534033203125	0.24001871643066405	-0.09157821350097656	3.31878662109375	-4.169464111328125	-0.75531005859375	9.680954412841796	0.12090718383789062	0.22385785522460935	0.63323974609375	-5.229949951171875	-3.143310546875	9.833584768676758	0.49021278991699213	0.013168109130859374	2.452850341796875	-4.825592041015625	-1.36566162109375	
44	0.176	0.0	0.0	0.0	0.0	0.003	0.006	0.003	0.003	9.873687646484374	0.2328361114501953	0.02454056701660156	1.468658447265625	-3.39508056640625	-1.0528564453125	9.810241302490233	0.09816226806640624	0.15502455749511718	0.888824462890625	-4.734039306640625	-3.627777099609375	10.159794744873047	0.2088940948486328	-0.3962403747558593	2.86102294921875	-4.482269287109375	-1.77764892578125	
45	0.18	0.0	0.0	0.0	0.0	0.003	0.006	0.003	0.006	9.880870251464843	0.21128829650878905	-0.09636661682128905	2.95257568359375	-4.467010498046875	-0.80108642578125	9.834183319091796	0.16699556579589842	0.22505495605468748	0.469207763671875	-5.268096923828125	-2.979278564453125	9.842563024902343	0.48063598327636714	0.006584054565429687	2.773284912109375	-4.82940673828125	-1.377105712890625	
46	0.184	0.0	0.0	0.0	0.0	0.006	0.003	0.006	0.006	9.862315188598632	0.2376245147705078	0.020949264526367185	1.18255615234375	-3.376007080078125	-1.190185546875	9.801861596679688	0.11192892761230468	0.15382745666503905	0.827789306640625	-4.734039306640625	-3.63922119140625	10.159794744873047	0.20649989318847656	-0.3968389251708984	2.483367919921875	-4.299163818359375	-1.86920166015625	
47	0.188	0.0	0.0	0.0	0.0	0.0	0.006	0.003	0.003	9.798868844604492	0.2914940521240234	0.21966800231933592	3.551483154296875	-4.3792724609375	-0.93841552734375	9.834183319091796	0.24361001892089842	0.19093758239746092	0.244140625	-5.176544189453125	-3.10516357421875	9.86291373901367	0.718260498046875	-0.20949264526367187	2.75421142578125	-4.611968994140625	-1.567840576171875	
48	0.192	0.0	0.0	0.0	0.0	0.009000000000000001	0.003	0.006	0.003	9.897031112670899	0.20350714111328125	-0.030526071166992186	1.110076904296875	-3.1280517578125	-1.285552978515625	9.987412225341796	-0.3016694091796875	-0.037708676147460936	0.701904296875	-4.95147705078125	-3.017425537109375	10.182539660644531	0.1801636749267578	-0.4165910888671875	2.8533935546875	-4.222869873046875	-1.590728759765625	
49	0.196	0.0	0.0	0.0	0.0	0.006	0.003	0.006	0.003	9.77432827758789	0.258573779296875	0.23702596435546874	3.6163330078125	-4.505157470703125	-0.58746337890625	9.824007962036132	0.2292448089599609	0.201112939453125	0.152587890625	-5.24139404296875	-2.971649169921875	10.006565838623047	0.7015010864257812	-0.2088940948486328	2.86865234375	-4.695892333984375	-1.483917236328125	
50	0.2	0.0	0.0	0.0	0.0	0.003	0.003	0.003	0.009000000000000001	9.90900212097168	0.22505495605468748	-0.05805939025878906	1.201629638671875	-3.1280517578125	-1.255035400390625	9.982623822021484	-0.24600422058105467	-0.01975216369628906	0.72479248046875	-4.99725341796875	-3.11279296875	10.192116467285155	0.2454056701660156	-0.42018239135742186	2.5787353515625	-4.5166015625	-1.7852783203125	
51	0.20400000000000001	0.0	0.0	0.0	0.0	0.003	0.003	0.003	0.009000000000000001	9.762955819702148	0.22086510314941404	0.22505495605468748	3.787994384765625	-4.2572021484375	-0.7171630859375	9.709086282348633	0.16340426330566404	0.2501940734863281	0.6561279296875	-5.023956298828125	-2.803802490234375	10.00955859069824	0.7392097625732421	-0.201112939453125	3.01361083984375	-4.711151123046875	-1.3885498046875	
52	0.20800000000000002	0.0	0.0	0.0	0.0	0.009000000000000001	0.003	0.003	0.006	10.016142645263672	-0.12808978881835936	-0.03890577697753906	1.842498779296875	-3.345489501953125	-0.66375732421875	9.981426721191406	-0.2454056701660156	-0.028131869506835935	0.66375732421875	-4.99725341796875	-2.9296875	10.16338604736328	0.03172317199707031	-0.37768531188964843	3.108978271484375	-4.5928955078125	-1.468658447265625	
53	0.212	0.0	0.0	0.0	0.0	0.006	0.003	0.003	0.006	9.758167416381836	0.18136077575683593	0.21188684692382811	3.345489501953125	-4.2572021484375	-0.782012939453125	9.695319622802733	0.23343466186523437	0.2825157958984375	0.476837158203125	-5.06591796875	-2.63214111328125	10.002974536132811	0.805050308227539	-0.17896657409667968	3.055572509765625	-4.802703857421875	-1.4495849609375	
54	0.216	0.0	0.0	0.0	0.0	0.009000000000000001	0.006	0.003	0.006	10.013748443603514	-0.13287819213867186	-0.030526071166992186	1.83868408203125	-3.505706787109375	-0.614166259765625	9.961674557495117	-0.2184709014892578	-0.033518823242187495	0.640869140625	-5.035400390625	-2.880096435546875	10.172962854003906	0.047285482788085934	-0.35613749694824215	2.941131591796875	-4.772186279296875	-1.434326171875	
55	0.22	0.0	0.0	0.0	0.0	0.009000000000000001	0.003	0.006	0.003	9.740809454345703	0.12509703674316405	0.20231004028320312	2.00653076171875	-4.5013427734375	-0.682830810546875	9.687538467407226	0.2292448089599609	0.2902969512939453	0.3814697265625	-4.993438720703125	-2.7618408203125	9.815029705810547	0.5434837768554687	0.02693476867675781	2.73895263671875	-4.608154296875	-1.97601318359375	
56	0.224	0.0	0.0	0.0	0.0	0.003	0.003	0.006	0.003	10.008960040283203	-0.12030863342285156	-0.022146365356445312	1.9989013671875	-3.39508056640625	-0.560760498046875	9.854534033203125	-0.36152445068359373	0.14006079711914063	0.263214111328125	-5.18798828125	-2.964019775390625	10.178349807739258	0.086191259765625	-0.364517202758789	3.04412841796875	-4.734039306640625	-1.373291015625	
57	0.228	0.0	0.0	0.0	0.0	0.003	0.003	0.006	0.003	9.826402163696288	0.0987608184814453	0.08080430603027343	1.979827880859375	-3.612518310546875	-0.789642333984375	9.695319622802733	0.2771288421630859	0.2998737579345703	0.030517578125	-4.962921142578125	-2.7313232421875	9.805452899169921	0.5740098480224609	0.04369418029785156	2.620697021484375	-4.611968994140625	-1.922607421875	
58	0.232	0.0	0.0	0.0	0.0	0.009000000000000001	0.003	0.006	0.003	9.989806427001952	-0.1322796417236328	-0.008978256225585938	2.368927001953125	-3.53240966796875	-0.553131103515625	9.85692823486328	-0.38367081604003905	0.12868833923339842	0.396728515625	-5.05828857421875	-2.87628173828125	9.90840357055664	0.22206220397949217	-0.030526071166992186	2.44140625	-5.11932373046875	-1.468658447265625	
59	0.23600000000000002	0.0	0.0	0.0	0.0	0.003	0.003	0.006	0.006	9.79946739501953	0.1292868896484375	0.08798691101074219	1.8463134765625	-3.688812255859375	-1.087188720703125	9.6779616607666	0.22385785522460935	0.2825157958984375	0.89263916015625	-5.031585693359375	-3.337860107421875	9.812036953735351	0.5728127471923827	0.02454056701660156	2.506256103515625	-4.787445068359375	-1.800537109375	
60	0.24	0.0	0.0	0.0	0.0	0.003	0.003	0.006	0.006	9.813832604980469	0.5680243438720702	0.07422025146484375	4.299163818359375	-4.53948974609375	-0.67138671875	9.853935482788085	-0.3238157745361328	0.15382745666503905	0.537872314453125	-4.9591064453125	-3.047943115234375	9.900023864746093	0.2825157958984375	-0.044891281127929686	2.6702880859375	-4.909515380859375	-1.445770263671875	
61	0.244	0.0	0.0	0.0	0.0	0.006	0.003	0.003	0.006	9.7928833404541	0.13766659545898435	0.0796072052001953	1.983642578125	-3.398895263671875	-1.03759765625	9.67137760620117	0.19692308654785154	0.28969840087890625	1.056671142578125	-5.031585693359375	-3.34930419921875	9.812036953735351	0.5572504364013672	0.03950432739257812	2.140045166015625	-4.7149658203125	-1.941680908203125	
62	0.248	0.0	0.0	0.0	0.0	0.006	0.006	0.003	0.006	9.804854348754882	0.5279214660644531	0.06943184814453125	4.322052001953125	-4.73785400390625	-0.507354736328125	9.67137760620117	0.03172317199707031	0.2693476867675781	0.484466552734375	-5.25665283203125	-2.8533935546875	9.879673150634765	0.24001871643066405	-0.037708676147460936	2.254486083984375	-4.863739013671875	-1.4190673828125	
63	0.252	0.0	0.0	0.0	0.0	0.006	0.003	0.003	0.006	9.780912332153319	0.16160861206054686	0.07003039855957031	1.811981201171875	-3.37982177734375	-1.010894775390625	9.6917283203125	0.22864625854492185	0.28909985046386716	1.07574462890625	-4.82940673828125	-3.421783447265625	9.840168823242188	0.4159925384521484	-0.08200140686035155	2.437591552734375	-4.764556884765625	-2.231597900390625	
64	0.256	0.0	0.0	0.0	0.0	0.006	0.003	0.003	0.006	9.777919580078125	0.5668272430419922	0.061650692749023434	4.37164306640625	-4.764556884765625	-0.51116943359375	9.654618194580078	0.05746083984375	0.2932897033691406	0.64849853515625	-5.10406494140625	-2.880096435546875	9.877877499389648	0.25438392639160157	-0.016759411621093748	2.46429443359375	-5.001068115234375	-1.789093017578125	
65	0.26	0.0	0.0	0.0	0.0	0.003	0.006	0.006	0.003	9.916184725952148	0.4590881683349609	0.09696516723632811	1.6632080078125	-3.51715087890625	-1.094818115234375	9.7928833404541	0.08319850769042968	0.14305354919433594	0.5950927734375	-5.07354736328125	-3.513336181640625	9.83777462158203	0.421978042602539	-0.06284779357910156	2.46429443359375	-4.558563232421875	-2.227783203125	
66	0.264	0.0	0.0	0.0	0.0	0.003	0.003	0.003	0.003	9.778518130493163	0.5249287139892578	0.04369418029785156	4.37164306640625	-4.8370361328125	-0.698089599609375	9.652223992919922	-0.020949264526367185	0.30346506042480464	0.701904296875	-5.0811767578125	-2.8076171875	9.80665	0.5805939025878906	0.044891281127929686	2.750396728515625	-4.6234130859375	-1.346588134765625	
67	0.268	0.0	0.0	0.0	0.0	0.006	0.006	0.006	0.003	9.9078050201416	0.43933600463867184	0.12210428466796874	1.720428466796875	-3.398895263671875	-1.216888427734375	9.77492682800293	0.02693476867675781	0.15682020874023436	0.640869140625	-4.901885986328125	-3.734588623046875	9.840767373657226	0.3573345977783203	-0.061650692749023434	2.25067138671875	-4.581451416015625	-2.32696533203125	
68	0.272	0.0	0.0	0.0	0.0	0.003	0.003	0.003	0.003	9.782707983398437	0.5476736297607422	0.032920272827148434	4.24957275390625	-4.7760009765625	-0.637054443359375	9.78031378173828	0.29388825378417965	0.1406593475341797	0.1678466796875	-5.031585693359375	-2.86102294921875	9.803058697509766	0.6649895111083984	0.05746083984375	2.67791748046875	-4.703521728515625	-1.068115234375	
69	0.276	0.0	0.0	0.0	0.0	0.009000000000000001	0.003	0.003	0.003	9.904213717651366	0.4321533996582031	0.11432312927246092	1.781463623046875	-3.170013427734375	-1.46484375	9.789292037963866	-0.031124621582031248	0.15562310791015624	0.499725341796875	-4.589080810546875	-3.5552978515625	10.250774407958984	0.15023615417480468	-0.44113165588378905	2.857208251953125	-4.44793701171875	-1.598358154296875	
70	0.28	0.0	0.0	0.0	0.0	0.006	0.003	0.006	0.003	9.90122096557617	0.05985504150390625	0.08319850769042968	2.208709716796875	-3.871917724609375	-1.346588134765625	9.791087689208984	0.09576806640624999	0.1388636962890625	0.392913818359375	-5.33294677734375	-2.98309326171875	9.809044201660155	0.517746109008789	0.03651157531738281	2.735137939453125	-4.608154296875	-1.1749267578125	
71	0.28400000000000003	0.0	0.0	0.0	0.0	0.006	0.003	0.003	0.003	9.873687646484374	0.45968671875	0.10714052429199218	2.105712890625	-3.559112548828125	-1.422882080078125	9.964068759155273	-0.2280477081298828	-0.06404489440917968	0.3814697265625	-4.5928955078125	-3.337860107421875	10.271125122070313	0.19871873779296872	-0.47285482788085936	2.849578857421875	-4.589080810546875	-2.01416015625	
72	0.28800000000000003	0.0	0.0	0.0	0.0	0.006	0.006	0.006	0.003	9.886257205200195	0.13766659545898435	0.09935936889648436	1.941680908203125	-3.68499755859375	-1.117706298828125	9.776722479248047	0.23822306518554687	0.1388636962890625	0.194549560546875	-5.13458251953125	-2.834320068359375	9.79408044128418	0.7038952880859375	0.05087678527832031	2.948760986328125	-4.695892333984375	-1.13677978515625	
73	0.292	0.0	0.0	0.0	0.0	0.003	0.006	0.006	0.003	9.83777462158203	0.39803602600097654	-0.22744915771484372	0.58746337890625	-2.75421142578125	-0.942230224609375	9.950900650024414	-0.3597287994384765	-0.07302315063476562	0.6103515625	-4.909515380859375	-3.192901611328125	10.273519323730468	0.04848258361816406	-0.5183446594238281	2.758026123046875	-4.444122314453125	-1.926422119140625	
74	0.296	0.0	0.0	0.0	0.0	0.003	0.003	0.006	0.003	9.900023864746093	0.029328970336914062	0.05626373901367187	1.99127197265625	-3.635406494140625	-0.835418701171875	9.781510882568359	0.16280571289062498	0.10773907470703124	0.54931640625	-4.94384765625	-2.712249755859375	10.026916552734374	0.7739256866455078	-0.11432312927246092	3.231048583984375	-4.650115966796875	-1.62506103515625	
75	0.3	0.0	0.0	0.0	0.0	0.003	0.003	0.006	0.006	10.153210690307617	-0.316034619140625	-0.22744915771484372	0.6256103515625	-3.055572509765625	-0.74005126953125	9.941323843383788	-0.23104046020507812	-0.04848258361816406	0.45013427734375	-5.084991455078125	-3.11279296875	10.280701928710936	0.24600422058105467	-0.5189432098388671	3.021240234375	-4.5928955078125	-1.873016357421875	
76	0.304	0.0	0.0	0.0	0.0	0.006	0.006	0.006	0.003	9.884461553955077	-0.028131869506835935	0.06105214233398437	1.8463134765625	-3.7689208984375	-0.9613037109375	9.698910925292969	0.2501940734863281	0.33758243408203126	0.507354736328125	-5.084991455078125	-2.613067626953125	9.996989031982421	0.7356184600830078	-0.09995791931152344	3.1585693359375	-4.72259521484375	-1.21307373046875	
77	0.308	0.0	0.0	0.0	0.0	0.006	0.006	0.003	0.003	10.159196194458007	-0.42317514343261714	-0.20949264526367187	0.965118408203125	-3.082275390625	-0.86212158203125	9.967061511230469	-0.3136404174804687	-0.0909796630859375	0.732421875	-4.306793212890625	-3.0975341796875	10.202890374755858	-0.22505495605468748	-0.3028665100097656	3.07464599609375	-4.7607421875	-1.483917236328125	
78	0.312	0.0	0.0	0.0	0.0	0.003	0.003	0.006	0.006	9.745597857666015	0.16460136413574217	0.21248539733886718	2.437591552734375	-3.79180908203125	-0.396728515625	9.714473236083984	0.32082302246093747	0.30047230834960936	0.606536865234375	-5.199432373046875	-2.727508544921875	9.9981861328125	0.843956085205078	-0.11133037719726561	3.269195556640625	-4.581451416015625	-1.57928466796875	
79	0.316	0.0	0.0	0.0	0.0	0.009000000000000001	0.003	0.006	0.003	10.141838232421874	-0.46627077331542965	-0.181959326171875	1.163482666015625	-3.01361083984375	-0.48065185546875	9.90840357055664	-0.38307226562499996	0.09277531433105468	0.667572021484375	-5.107879638671875	-2.895355224609375	10.172364303588866	-0.1879448303222656	-0.27832594299316404	2.8533935546875	-4.459381103515625	-1.125335693359375	
80	0.32	0.0	0.0	0.0	0.0	0.003	0.006	0.003	0.003	9.713874685668944	0.36152445068359373	0.24301146850585936	2.9144287109375	-3.7841796875	-0.37384033203125	9.713276135253906	0.13766659545898435	0.3136404174804687	0.6256103515625	-5.02777099609375	-2.5634765625	9.782707983398437	0.2825157958984375	0.054468087768554684	2.32696533203125	-4.673004150390625	-2.0599365234375	
81	0.324	0.0	0.0	0.0	0.0	0.006	0.006	0.003	0.003	10.025719451904296	-0.15322890625	-0.12689268798828124	1.270294189453125	-3.635406494140625	-0.87738037109375	9.957484704589843	-0.45489831542968745	0.029927520751953124	1.018524169921875	-5.115509033203125	-3.36456298828125	10.218452685546874	-0.201112939453125	-0.32620997619628905	2.933502197265625	-4.482269287109375	-1.773834228515625	
82	0.328	0.0	0.0	0.0	0.0	0.003	0.003	0.003	0.006	9.750386260986328	0.3854664672851562	0.22086510314941404	0.194549560546875	-2.506256103515625	-1.31988525390625	9.654618194580078	0.2693476867675781	0.32441432495117184	1.1749267578125	-4.79888916015625	-3.65447998046875	9.724050042724608	0.7930792999267577	0.10235212097167969	2.288818359375	-4.75311279296875	-1.987457275390625	
83	0.332	0.0	0.0	0.0	0.0	0.006	0.003	0.006	0.006	9.79946739501953	0.22864625854492185	0.1849520782470703	4.791259765625	-4.6844482421875	-0.7171630859375	9.950900650024414	-0.22385785522460935	0.07541735229492187	0.804901123046875	-4.9896240234375	-2.902984619140625	10.172962854003906	0.011971008300781249	-0.2705447875976562	2.25067138671875	-5.100250244140625	-1.07574462890625	
84	0.336	0.0	0.0	0.0	0.0	0.0	0.006	0.006	0.003	9.781510882568359	0.3800795135498047	0.17836802368164062	-0.965118408203125	-1.953125	-1.4495849609375	9.704896429443359	0.32022447204589843	0.26396073303222656	0.732421875	-5.02777099609375	-2.773284912109375	9.778518130493163	0.3716998077392578	0.1149216796875	2.22015380859375	-4.69970703125	-2.20489501953125	
85	0.34	0.0	0.0	0.0	0.0	0.003	0.006	0.003	0.006	9.809642752075195	0.2136824981689453	0.1406593475341797	5.718231201171875	-5.18035888671875	-0.9307861328125	9.683947164916992	-0.3495534423828125	0.38786066894531246	0.16021728515625	-4.726409912109375	-3.2501220703125	9.873089096069336	0.47704468078613277	-0.14245499877929688	2.43377685546875	-4.962921142578125	-1.6021728515625	
86	0.34400000000000003	0.0	0.0	0.0	0.0	0.003	0.003	0.003	0.003	9.777321029663085	0.21727380065917967	0.24121581726074218	1.544952392578125	-3.143310546875	-1.018524169921875	9.67856021118164	0.06703764648437499	0.36691140441894526	0.812530517578125	-4.95147705078125	-3.078460693359375	9.759963067626952	0.2292448089599609	0.14604630126953125	2.227783203125	-4.69207763671875	-2.37274169921875	
87	0.34800000000000003	0.0	0.0	0.0	0.0	0.003	0.006	0.006	0.006	9.853336932373047	0.33039982910156246	0.11552023010253906	7.2784423828125	-6.137847900390625	-0.5035400390625	9.666589202880859	0.010773907470703125	0.40880993347167965	0.247955322265625	-4.9285888671875	-3.34930419921875	9.867702142333984	0.5931634613037109	-0.15502455749511718	2.307891845703125	-4.779815673828125	-1.575469970703125	
88	0.352	0.0	0.0	0.0	0.0	0.003	0.003	0.003	0.006	9.91438907470703	0.26276363220214843	-0.032920272827148434	0.896453857421875	-3.017425537109375	-1.1749267578125	9.719261639404296	-0.09038111267089843	0.11252747802734374	0.186920166015625	-4.7149658203125	-3.2501220703125	9.917381826782226	0.1227028350830078	-0.2154781494140625	2.979278564453125	-4.467010498046875	-1.682281494140625	
89	0.356	0.0	0.0	0.0	0.0	0.006	0.003	0.006	0.003	9.830592016601562	0.4495113616943359	0.09217676391601562	5.828857421875	-5.04302978515625	-0.55694580078125	9.664195001220703	0.04848258361816406	0.40880993347167965	0.14495849609375	-4.970550537109375	-2.86102294921875	9.798868844604492	0.6242880828857421	-0.025737667846679687	2.330780029296875	-4.840850830078125	-1.811981201171875	
90	0.36	0.0	0.0	0.0	0.0	0.006	0.006	0.006	0.006	9.936535440063476	0.24660277099609373	-0.008978256225585938	2.3651123046875	-3.62396240234375	-0.812530517578125	9.710881933593749	-0.11133037719726561	0.1227028350830078	0.152587890625	-4.383087158203125	-3.53240966796875	9.848548529052733	0.17836802368164062	-0.12569558715820311	2.544403076171875	-4.28009033203125	-1.644134521484375	
91	0.364	0.0	0.0	0.0	0.0	0.006	0.003	0.003	0.003	9.854534033203125	-0.19931728820800781	-0.08140285644531249	3.99017333984375	-4.703521728515625	-0.339508056640625	9.730035546875	0.12868833923339842	0.08439560852050781	0.102996826171875	-4.79888916015625	-2.765655517578125	9.82580361328125	0.4590881683349609	-0.03950432739257812	2.75421142578125	-4.665374755859375	-1.865386962890625	
92	0.368	0.0	0.0	0.0	0.0	0.006	0.006	0.003	0.006	9.982025271606444	0.38247371520996093	-0.022744915771484374	3.7994384765625	-4.17327880859375	-0.43487548828125	9.709086282348633	0.04249707946777344	0.12569558715820311	0.415802001953125	-4.741668701171875	-3.787994384765625	9.878476049804688	0.2723404388427734	-0.18854338073730467	2.6397705078125	-4.367828369140625	-1.57928466796875	
93	0.372	0.0	0.0	0.0	0.0	0.0	0.003	0.003	0.003	9.840767373657226	-0.2166752502441406	-0.037708676147460936	2.460479736328125	-4.100799560546875	-0.659942626953125	9.714473236083984	0.044891281127929686	0.07003039855957031	0.26702880859375	-5.054473876953125	-2.79998779296875	9.809044201660155	0.45669396667480466	-0.03411737365722656	2.712249755859375	-4.726409912109375	-1.750946044921875	
94	0.376	0.0	0.0	0.0	0.0	0.003	0.006	0.003	0.006	10.022128149414062	0.3812766143798828	-0.04249707946777344	3.21197509765625	-3.89862060546875	-0.48828125	9.713874685668944	0.047884033203124995	0.06943184814453125	0.64849853515625	-4.894256591796875	-3.1280517578125	9.906607919311522	0.35194764404296874	-0.20530279235839843	2.777099609375	-4.444122314453125	-1.2359619140625	
95	0.38	0.0	0.0	0.0	0.0	0.006	0.006	0.006	0.006	9.834183319091796	-0.39923312683105466	-0.03172317199707031	1.77764892578125	-3.54766845703125	-0.568389892578125	9.710881933593749	-0.10235212097167969	0.105344873046875	0.339508056640625	-5.14984130859375	-2.689361572265625	9.83238766784668	0.3178302703857422	-0.025139117431640625	2.788543701171875	-4.89044189453125	-1.74713134765625	
96	0.384	0.0	0.0	0.0	0.0	0.006	0.003	0.003	0.003	10.031704956054687	0.1352723937988281	-0.229843359375	3.246307373046875	-4.669189453125	-0.453948974609375	9.932345587158203	0.002992752075195312	-0.025737667846679687	0.667572021484375	-4.909515380859375	-3.124237060546875	10.243591802978514	0.5722141967773438	-0.4638765716552734	2.674102783203125	-4.6234130859375	-1.28173828125	
97	0.388	0.0	0.0	0.0	0.0	0.006	0.003	0.003	0.003	9.8311905670166	-0.35613749694824215	-0.040701428222656245	1.35040283203125	-3.60870361328125	-0.57220458984375	9.724050042724608	-0.03591302490234375	0.04908113403320312	0.881195068359375	-4.878997802734375	-2.735137939453125	9.819219558715819	0.3429693878173828	-0.05746083984375	2.685546875	-4.596710205078125	-1.827239990234375	
98	0.392	0.0	0.0	0.0	0.0	0.003	0.006	0.003	0.006	10.020931048583984	0.12090718383789062	-0.1897404815673828	2.86102294921875	-4.169464111328125	-0.804901123046875	9.90181951599121	-0.0143652099609375	-0.03890577697753906	0.614166259765625	-5.084991455078125	-3.154754638671875	10.274716424560546	0.5781997009277343	-0.49021278991699213	2.765655517578125	-4.7149658203125	-1.48773193359375	
99	0.396	0.0	0.0	0.0	0.0	0.003	0.003	0.003	0.003	9.821613760375977	-0.4584896179199218	-0.028131869506835935	-0.072479248046875	-2.414703369140625	-0.896453857421875	9.764751470947266	0.12150573425292968	0.40581718139648437	1.06048583984375	-5.2947998046875	-3.032684326171875	10.029310754394531	0.25258827514648435	0.011971008300781249	3.01361083984375	-4.856109619140625	-1.56402587890625	
100	0.4	0.0	0.0	0.0	0.0	0.003	0.003	0.003	0.003	10.025719451904296	0.07841010437011718	-0.17896657409667968	2.288818359375	-3.925323486328125	-0.743865966796875	9.943718045043944	-0.07601590270996093	-0.06344634399414062	0.904083251953125	-4.98199462890625	-2.95257568359375	10.271125122070313	0.5967547637939453	-0.469263525390625	2.8228759765625	-4.550933837890625	-1.4190673828125	
101	0.404	0.0	0.0	0.0	0.0	0.003	0.006	0.003	0.006	9.593566052246093	0.47584757995605464	0.5165490081787109	-0.0762939453125	-2.399444580078125	-0.946044921875	9.808445651245117	0.19033903198242186	0.411802685546875	0.827789306640625	-4.8370361328125	-3.108978271484375	10.072406384277343	0.2861070983886719	0.004189852905273437	2.777099609375	-4.535675048828125	-1.60980224609375	
102	0.40800000000000003	0.0	0.0	0.0	0.0	0.003	0.003	0.003	0.006	9.950302099609374	0.04189852905273437	-0.028131869506835935	1.918792724609375	-3.4637451171875	-0.87738037109375	9.999383233642577	-0.1131260284423828	0.1879448303222656	0.614166259765625	-4.909515380859375	-3.383636474609375	10.207678778076172	0.5051765502929687	-0.39863457641601563	2.90679931640625	-4.756927490234375	-1.73187255859375	
103	0.41200000000000003	0.0	0.0	0.0	0.0	0.006	0.003	0.003	0.006	9.554660275268555	0.6590040069580078	0.6464344482421874	0.5950927734375	-2.857208251953125	-0.965118408203125	9.750386260986328	0.2328361114501953	0.4387374542236328	1.407623291015625	-5.2337646484375	-3.040313720703125	10.018536846923828	0.30526071166992186	0.037110125732421874	2.78472900390625	-4.5318603515625	-1.4190673828125	
104	0.41600000000000004	0.0	0.0	0.0	0.0	0.006	0.003	0.006	0.003	9.885658654785155	0.4291606475830078	0.12689268798828124	5.008697509765625	-4.7607421875	-0.7476806640625	10.01733974609375	-0.143652099609375	0.1945288848876953	0.93841552734375	-5.16510009765625	-3.30352783203125	10.227430941772461	0.48063598327636714	-0.4477157104492187	2.51007080078125	-4.63104248046875	-1.819610595703125	
105	0.42	0.0	0.0	0.0	0.0	0.006	0.003	0.003	0.003	9.573215338134766	0.7428010650634765	0.6512228515624999	1.60980224609375	-3.02886962890625	-0.67138671875	9.744999307250977	0.23403321228027343	0.354341845703125	0.43487548828125	-4.82177734375	-3.177642822265625	10.052055670166014	0.22864625854492185	0.025737667846679687	2.34222412109375	-4.3182373046875	-1.64031982421875	
106	0.424	0.0	0.0	0.0	0.0	0.006	0.006	0.003	0.006	9.872490545654296	0.36750995483398435	0.0987608184814453	5.161285400390625	-4.81414794921875	-0.6866455078125	9.999383233642577	-0.12808978881835936	0.23582886352539062	1.232147216796875	-5.237579345703125	-3.59344482421875	10.15740054321289	0.45010991210937495	-0.4112041351318359	2.62451171875	-4.726409912109375	-1.9378662109375	
107	0.428	0.0	0.0	0.0	0.0	0.003	0.003	0.006	0.003	9.622895022583007	0.9085995300292968	0.5781997009277343	2.651214599609375	-3.574371337890625	-0.732421875	9.74200655517578	0.2501940734863281	0.30705636291503907	0.209808349609375	-4.69207763671875	-3.10516357421875	9.682151513671874	0.354940396118164	0.1693897674560547	2.391815185546875	-4.78363037109375	-1.4801025390625	
108	0.432	0.0	0.0	0.0	0.0	0.003	0.003	0.003	0.009000000000000001	9.926360083007811	0.21128829650878905	-0.0718260498046875	4.28009033203125	-4.314422607421875	-0.980377197265625	9.82460651245117	-0.17657237243652343	0.15682020874023436	-0.457763671875	-4.73785400390625	-2.8228759765625	10.251971508789062	0.40940848388671874	-0.5722141967773438	2.532958984375	-4.451751708984375	-1.758575439453125	
109	0.436	0.0	0.0	0.0	0.0	0.003	0.006	0.003	0.006	9.94072529296875	0.12689268798828124	-0.42018239135742186	3.406524658203125	-4.03594970703125	-0.858306884765625	9.719261639404296	0.1897404815673828	0.3321954803466797	0.396728515625	-4.642486572265625	-3.0364990234375	9.70968483276367	0.33758243408203126	0.09696516723632811	2.460479736328125	-5.039215087890625	-1.96075439453125	
110	0.44	0.0	0.0	0.0	0.0	0.003	0.006	0.003	0.003	9.859920986938477	0.14903905334472656	-0.0652419952392578	5.741119384765625	-5.222320556640625	-0.9765625	9.784503634643555	-0.11133037719726561	0.11911153259277343	-0.1220703125	-5.08880615234375	-2.96783447265625	9.737218151855469	0.3896563201904297	-0.07302315063476562	2.57110595703125	-5.153656005859375	-1.934051513671875	
111	0.444	0.0	0.0	0.0	0.0	0.006	0.003	0.006	0.003	9.983820922851562	0.05566518859863281	-0.44053310546874996	2.06756591796875	-3.528594970703125	-1.094818115234375	9.676166009521484	0.017956512451171875	-0.08559270935058594	0.209808349609375	-5.14984130859375	-3.063201904296875	9.728838446044922	0.31064766540527344	0.032920272827148434	2.5634765625	-4.89044189453125	-1.922607421875	
112	0.448	0.0	0.0	0.0	0.0	0.006	0.003	0.003	0.003	9.903615167236328	0.11911153259277343	-0.25438392639160157	2.1209716796875	-4.0130615234375	-0.553131103515625	9.823409411621093	-0.09995791931152344	-0.002992752075195312	-0.194549560546875	-5.435943603515625	-2.742767333984375	9.805452899169921	0.36810850524902344	-0.13646949462890623	2.460479736328125	-4.817962646484375	-1.644134521484375	
113	0.452	0.0	0.0	0.0	0.0	0.006	0.003	0.003	0.003	9.85752678527832	-0.11851298217773437	-0.30346506042480464	-0.080108642578125	-2.704620361328125	-1.15203857421875	9.579200842285156	-0.051475335693359374	0.011971008300781249	0.461578369140625	-5.19561767578125	-3.025054931640625	9.884461553955077	0.3968389251708984	-0.15083470458984374	2.37274169921875	-4.425048828125	-1.636505126953125	
114	0.456	0.0	0.0	0.0	0.0	0.003	0.006	0.003	0.003	9.769539874267577	-0.13168109130859373	-0.044292730712890624	2.79998779296875	-4.627227783203125	-0.42724609375	9.934739788818359	0.07541735229492187	0.09756371765136718	0.9918212890625	-5.2032470703125	-3.040313720703125	9.783306533813477	0.4465186096191406	-0.10773907470703124	2.44140625	-4.9591064453125	-1.9073486328125	
115	0.46	0.0	0.0	0.0	0.0	0.003	0.003	0.006	0.006	9.80665	-0.08259995727539061	-0.22505495605468748	0.66375732421875	-3.3111572265625	-0.92315673828125	9.658209497070311	-0.017956512451171875	-0.028730419921875	0.431060791015625	-4.90570068359375	-3.3416748046875	9.959280355834961	0.3345896820068359	-0.16280571289062498	2.338409423828125	-4.489898681640625	-1.60980224609375	
116	0.464	0.0	0.0	0.0	0.0	0.006	0.006	0.003	0.006	9.82580361328125	-0.12090718383789062	-0.037708676147460936	0.60272216796875	-3.192901611328125	-0.89263916015625	9.600748657226562	-0.04967968444824218	0.24660277099609373	1.10626220703125	-5.19561767578125	-3.269195556640625	9.727641345214844	0.40581718139648437	-0.03172317199707031	2.73895263671875	-4.608154296875	-1.60980224609375	
117	0.468	0.0	0.0	0.0	0.0	0.006	0.003	0.003	0.003	9.865307940673828	0.26396073303222656	0.16160861206054686	3.589630126953125	-3.936767578125	-0.522613525390625	9.589376199340819	0.14245499877929688	0.10115502014160156	1.087188720703125	-5.046844482421875	-3.292083740234375	9.87608184814453	0.33578678283691404	-0.14903905334472656	2.269744873046875	-4.337310791015625	-1.720428466796875	
118	0.47200000000000003	0.0	0.0	0.0	0.0	0.003	0.006	0.003	0.006	9.811438403320311	0.011372457885742187	0.027533319091796873	1.399993896484375	-3.54766845703125	-1.033782958984375	9.690531219482422	-0.14604630126953125	0.17298106994628906	0.96893310546875	-5.48553466796875	-3.231048583984375	9.981426721191406	0.39145197143554683	-0.0796072052001953	2.90679931640625	-4.76837158203125	-1.60980224609375	
119	0.47600000000000003	0.0	0.0	0.0	0.0	0.006	0.006	0.003	0.003	10.02392380065918	0.1640028137207031	0.05805939025878906	3.330230712890625	-3.955841064453125	-0.476837158203125	9.907206469726562	-0.014963760375976562	0.15442600708007811	0.92315673828125	-4.970550537109375	-3.13568115234375	9.932345587158203	0.23642741394042968	-0.11552023010253906	2.55584716796875	-4.291534423828125	-1.605987548828125	
120	0.48	0.0	0.0	0.0	0.0	0.003	0.006	0.003	0.006	9.893439810180663	-0.05327098693847656	-0.04249707946777344	4.558563232421875	-4.89044189453125	-0.324249267578125	9.645639938354492	-0.08439560852050781	0.24181436767578124	0.507354736328125	-5.168914794921875	-3.070831298828125	9.854534033203125	0.3872621185302734	0.0053869537353515625	2.685546875	-4.863739013671875	-1.697540283203125	
121	0.484	0.0	0.0	0.0	0.0	0.006	0.006	0.006	0.006	9.913790524291992	0.18136077575683593	0.055066638183593745	2.13623046875	-3.47137451171875	-0.5035400390625	9.903016616821288	0.012569558715820313	0.062249243164062495	0.545501708984375	-4.833221435546875	-2.902984619140625	10.360309133911132	0.46208092041015625	-0.632667788696289	3.01361083984375	-4.505157470703125	-1.1444091796875	
122	0.488	0.0	0.0	0.0	0.0	0.006	0.003	0.003	0.006	9.83897172241211	0.12689268798828124	0.2501940734863281	3.574371337890625	-4.29534912109375	-0.274658203125	9.821015209960937	-0.09337386474609374	0.40282442932128903	0.850677490234375	-4.726409912109375	-3.0364990234375	9.982025271606444	0.31543606872558594	-0.044292730712890624	2.887725830078125	-4.665374755859375	-1.56402587890625	
123	0.492	0.0	0.0	0.0	0.0	0.003	0.003	0.003	0.003	9.916783276367187	0.08499415893554688	0.06584054565429687	3.41796875	-4.17327880859375	-0.40435791015625	9.81263550415039	0.0143652099609375	0.06943184814453125	0.9613037109375	-4.894256591796875	-2.925872802734375	10.280701928710936	0.4465186096191406	-0.5440823272705078	3.253936767578125	-4.40216064453125	-1.373291015625	
124	0.496	0.0	0.0	0.0	0.0	0.006	0.003	0.003	0.006	9.580397943115234	0.5147533569335937	0.5129577056884765	2.841949462890625	-3.99017333984375	-0.514984130859375	9.731232647705077	0.03591302490234375	0.38666356811523434	0.850677490234375	-5.176544189453125	-3.08990478515625	9.969455712890625	0.32142157287597656	-0.04548983154296875	2.9296875	-5.07354736328125	-1.674652099609375	
125	0.5	0.0	0.0	0.0	0.0	0.006	0.003	0.006	0.009000000000000001	9.951499200439452	0.11432312927246092	0.0	-0.35858154296875	-2.368927001953125	-1.56402587890625	10.09993970336914	0.013168109130859374	-0.06045359191894531	1.094818115234375	-4.901885986328125	-3.0364990234375	10.442310540771484	0.4112041351318359	-0.6865373260498047	3.200531005859375	-4.436492919921875	-1.232147216796875	
126	0.504	0.0	0.0	0.0	0.0	0.006	0.003	0.003	0.006	9.735422500610351	0.364517202758789	0.46806642456054687	4.619598388671875	-4.57763671875	-0.392913818359375	9.757568865966796	0.12689268798828124	0.4177881896972656	0.9307861328125	-5.28717041015625	-3.30352783203125	10.018536846923828	0.27892449340820313	-0.06883329772949218	3.131866455078125	-4.81414794921875	-1.773834228515625	
127	0.508	0.0	0.0	0.0	0.0	0.003	0.003	0.003	0.006	9.900023864746093	0.5309142181396485	0.04848258361816406	0.91552734375	-3.31878662109375	-1.178741455078125	9.955689053344726	-0.0430956298828125	0.025737667846679687	0.87738037109375	-5.062103271484375	-3.021240234375	10.224438189697265	0.5201403106689453	-0.5201403106689453	2.666473388671875	-4.703521728515625	-1.392364501953125	
128	0.512	0.0	0.0	0.0	0.0	0.003	0.006	0.003	0.006	9.622895022583007	0.6763619689941406	0.489015689086914	3.7078857421875	-4.344940185546875	-0.81634521484375	9.645041387939452	0.23044190979003906	0.4483142608642578	0.45013427734375	-4.795074462890625	-2.948760986328125	10.044274514770507	0.29269115295410153	-0.16819266662597654	2.872467041015625	-4.940032958984375	-1.827239990234375	
129	0.516	0.0	0.0	0.0	0.0	0.006	0.003	0.003	0.006	10.10712230834961	0.10474632263183593	-0.14425065002441406	-0.38909912109375	-2.399444580078125	-1.270294189453125	10.105925207519531	-0.008379705810546874	-0.11133037719726561	1.003265380859375	-4.852294921875	-3.143310546875	10.087968695068358	0.5123591552734374	-0.3232172241210937	2.78472900390625	-4.779815673828125	-1.56402587890625	
130	0.52	0.0	0.0	0.0	0.0	0.006	0.006	0.003	0.003	9.82580361328125	0.04608838195800781	-0.028730419921875	4.35638427734375	-4.619598388671875	-0.621795654296875	9.548076220703125	0.12330138549804687	0.5285200164794922	0.37384033203125	-4.962921142578125	-3.078460693359375	9.87727894897461	0.3076549133300781	0.028730419921875	2.63214111328125	-4.718780517578125	-1.7242431640625	
131	0.524	0.0	0.0	0.0	0.0	0.003	0.003	0.003	0.003	9.94012674255371	0.5327098693847656	0.010175357055664061	2.422332763671875	-3.749847412109375	-0.640869140625	9.81263550415039	0.05087678527832031	0.11013327636718749	0.492095947265625	-4.98199462890625	-3.10516357421875	10.019733947753906	0.6781576202392577	-0.24600422058105467	2.826690673828125	-4.756927490234375	-1.45721435546875	
132	0.528	0.0	0.0	0.0	0.0	0.003	0.006	0.003	0.003	9.788693487548828	-0.008978256225585938	-0.03591302490234375	-0.568389892578125	-2.532958984375	-1.94549560546875	9.648632690429688	0.08678981018066406	0.4225765930175781	0.385284423828125	-4.894256591796875	-3.34930419921875	9.794678991699218	0.08798691101074219	0.03651157531738281	2.384185791015625	-4.791259765625	-1.953125	
133	0.532	0.0	0.0	0.0	0.0	0.006	0.003	0.003	0.006	9.970652813720703	0.34237083740234375	0.09277531433105468	-2.559661865234375	-1.220703125	-1.811981201171875	9.849147079467773	0.008978256225585938	0.09816226806640624	0.301361083984375	-4.802703857421875	-3.086090087890625	10.017938296508788	0.6153098266601562	-0.20350714111328125	2.704620361328125	-4.67681884765625	-1.77001953125	
134	0.536	0.0	0.0	0.0	0.0	0.006	0.006	0.006	0.006	9.890447058105469	-0.1083376251220703	0.017956512451171875	5.138397216796875	-4.90570068359375	-0.377655029296875	9.540893615722656	0.040102877807617184	0.34715924072265625	0.110626220703125	-4.913330078125	-3.391265869140625	9.594164602661133	0.21966800231933592	0.21308394775390624	2.32696533203125	-4.764556884765625	-2.101898193359375	
135	0.54	0.0	0.0	0.0	0.0	0.006	0.003	0.003	0.003	9.813832604980469	0.7463923675537109	-0.011372457885742187	6.221771240234375	-5.72967529296875	-0.453948974609375	9.886257205200195	-0.003591302490234375	0.04668693237304687	0.35858154296875	-5.18798828125	-3.18145751953125	9.894038360595703	0.5931634613037109	-0.19871873779296872	2.227783203125	-4.98199462890625	-2.01416015625	
136	0.544	0.0	0.0	0.0	0.0	0.003	0.003	0.006	0.0	9.639055883789062	0.21906945190429686	0.03172317199707031	1.216888427734375	-3.078460693359375	-1.556396484375	9.634267480468749	-0.055066638183593745	0.30885201416015623	0.637054443359375	-5.096435546875	-3.299713134765625	9.70968483276367	0.08499415893554688	0.16280571289062498	2.31170654296875	-4.764556884765625	-2.147674560546875	
137	0.548	0.0	0.0	0.0	0.0	0.006	0.003	0.003	0.006	9.974244116210937	0.28371289672851563	0.012569558715820313	2.7008056640625	-3.88336181640625	-1.216888427734375	9.80066449584961	-0.008379705810546874	0.10773907470703124	0.484466552734375	-5.214691162109375	-2.994537353515625	9.749189160156249	0.6578069061279297	-0.04548983154296875	2.288818359375	-4.9285888671875	-1.9989013671875	
138	0.552	0.0	0.0	0.0	0.0	0.003	0.006	0.006	0.006	9.954491952514648	-0.3028665100097656	-0.03232172241210937	4.673004150390625	-4.9591064453125	0.606536865234375	9.66000514831543	0.05027823486328125	0.27832594299316404	0.25177001953125	-5.039215087890625	-3.414154052734375	9.713276135253906	0.3274070770263672	-0.3711012573242187	2.780914306640625	-4.680633544921875	-1.25885009765625	
139	0.556	0.0	0.0	0.0	0.0	0.003	0.003	0.003	0.009000000000000001	10.070610733032225	0.3136404174804687	-0.2136824981689453	9.39178466796875	-6.786346435546875	0.598907470703125	9.821015209960937	-0.09277531433105468	-0.025737667846679687	0.274658203125	-5.05828857421875	-2.826690673828125	9.917980377197265	0.5440823272705078	-0.1484405029296875	2.468109130859375	-4.932403564453125	-2.216339111328125	
140	0.56	0.0	0.0	0.0	0.0	0.0	0.003	0.003	0.003	9.73602105102539	0.24181436767578124	0.09457096557617187	-0.370025634765625	-2.117156982421875	-1.02996826171875	9.494206683349608	0.07900865478515624	0.4417302062988281	0.20599365234375	-4.96673583984375	-3.65447998046875	10.037091909790039	0.258573779296875	-0.3842693664550781	2.79998779296875	-4.241943359375	-1.194000244140625	
141	0.5640000000000001	0.0	0.0	0.0	0.0	0.006	0.006	0.006	0.006	9.804255798339844	0.6739677673339843	0.044292730712890624	3.5552978515625	-4.650115966796875	-1.071929931640625	9.718064538574218	-0.014963760375976562	0.04608838195800781	0.629425048828125	-5.420684814453125	-2.79998779296875	9.787496386718749	0.6667851623535156	-0.07302315063476562	2.162933349609375	-4.940032958984375	-1.8157958984375	
142	0.5680000000000001	0.0	0.0	0.0	0.0	0.006	0.003	0.003	0.003	10.013748443603514	-0.20350714111328125	-0.07481880187988281	-1.483917236328125	-1.964569091796875	-1.38092041015625	9.938929641723632	-0.055066638183593745	-0.04249707946777344	0.54168701171875	-4.772186279296875	-3.017425537109375	10.156203442382813	0.23822306518554687	-0.5189432098388671	2.64739990234375	-4.344940185546875	-1.16729736328125	
143	0.5720000000000001	0.0	0.0	0.0	0.0	0.003	0.003	2.835	4.632	10.024522351074218	-0.201112939453125	0.07302315063476562	7.62939453125	-6.290435791015625	0.263214111328125	9.767145672607422	-0.07721300354003906	-0.002992752075195312	0.492095947265625	-5.07354736328125	-3.047943115234375	10.034099157714843	0.3848679168701172	-0.21906945190429686	3.02886962890625	-4.528045654296875	-1.64031982421875	
144	0.5760000000000001	0.0	0.0	0.0	0.0	4.644	4.668	4.671	4.623	9.900023864746093	-0.059256491088867186	0.009576806640625	2.61688232421875	-3.757476806640625	-0.370025634765625	9.805452899169921	0.06105214233398437	0.04608838195800781	0.408172607421875	-4.8828125	-2.9296875	9.999383233642577	0.3507505432128906	-0.42437224426269526	2.89154052734375	-4.245758056640625	-1.28173828125	
145	0.58	0.0	0.0	0.0	0.0	4.641	4.668	4.671	4.626	9.859322436523437	-0.06823474731445311	0.06404489440917968	5.21087646484375	-5.25665283203125	-0.29754638671875	9.934739788818359	0.032920272827148434	0.13467384338378904	0.293731689453125	-5.214691162109375	-2.727508544921875	10.050260018920898	0.36691140441894526	-0.19871873779296872	2.84576416015625	-4.573822021484375	-1.705169677734375	
146	0.584	0.0	0.0	0.0	0.0	4.644	4.665	4.671	4.638	9.958681805419921	-0.2088940948486328	-0.23822306518554687	-0.030517578125	-2.521514892578125	-0.92315673828125	9.945513696289062	-0.13287819213867186	-0.02633621826171875	0.32806396484375	-4.486083984375	-3.192901611328125	10.386046801757812	0.4417302062988281	-0.6488286499023437	3.131866455078125	-4.5013427734375	-1.087188720703125	
147	0.588	0.0	0.0	0.0	0.0	4.647	4.671	4.671	4.641	9.87608184814453	-0.10235212097167969	0.15502455749511718	5.176544189453125	-5.451202392578125	-0.156402587890625	9.867702142333984	0.14006079711914063	0.16819266662597654	0.324249267578125	-5.2642822265625	-2.73895263671875	9.938331091308592	0.4034229797363281	-0.20290859069824219	2.99835205078125	-4.558563232421875	-1.70135498046875	
148	0.592	0.0	0.0	0.0	0.0	4.644	4.671	4.671	4.638	9.962871658325195	0.469263525390625	0.11911153259277343	-2.323150634765625	-1.65557861328125	-1.071929931640625	10.058041174316406	-0.07900865478515624	-0.20709844360351562	1.132965087890625	-4.840850830078125	-2.8839111328125	10.286687432861328	0.5985504150390625	-0.6883329772949218	3.1585693359375	-4.833221435546875	-1.0986328125	
149	0.596	0.0	0.0	0.0	0.0	4.638	4.671	4.668	4.644	9.795876092529296	0.1514332550048828	0.21128829650878905	4.283905029296875	-4.825592041015625	-0.537872314453125	9.96047745666504	0.06045359191894531	0.07062894897460938	0.446319580078125	-5.2490234375	-2.857208251953125	10.044274514770507	0.15322890625	-0.12150573425292968	2.780914306640625	-4.57763671875	-1.85394287109375	
150	0.6	0.0	0.0	0.0	0.0	4.644	4.671	4.671	4.632	10.035296258544921	0.33758243408203126	-0.018555062866210937	-2.62451171875	-1.35040283203125	-1.667022705078125	10.031106405639648	-0.14784195251464843	-0.10414777221679687	1.178741455078125	-4.8065185546875	-3.2806396484375	10.319607705688476	0.5458779785156249	-0.6350619903564453	2.95257568359375	-4.547119140625	-1.071929931640625	
151	0.604	0.0	0.0	0.0	0.0	4.644	4.671	4.674	4.6290000000000004	9.779715231323241	0.22565350646972654	0.3908534210205078	3.86810302734375	-4.302978515625	-0.804901123046875	9.558850128173827	0.3764882110595703	0.3441664886474609	0.72479248046875	-4.970550537109375	-3.0364990234375	9.887454306030273	0.2663549346923828	-0.05087678527832031	2.9296875	-4.69207763671875	-1.743316650390625	
152	0.608	0.0	0.0	0.0	0.0	4.65	4.671	4.671	4.632	10.172962854003906	0.2442085693359375	-0.11851298217773437	-0.3814697265625	-2.346038818359375	-1.129150390625	10.11909331665039	-0.10115502014160156	-0.23642741394042968	0.84686279296875	-4.92095947265625	-3.19671630859375	10.408791717529295	0.5704185455322265	-0.7404068634033203	3.597259521484375	-4.75311279296875	-1.129150390625	
153	0.612	0.0	0.0	0.0	0.0	4.647	4.668	4.671	4.638	9.718663088989258	-0.03531447448730469	0.04369418029785156	3.3416748046875	-3.902435302734375	-0.90789794921875	9.654618194580078	0.1975216369628906	0.2663549346923828	0.652313232421875	-5.0201416015625	-2.90679931640625	9.993397729492187	0.1610100616455078	-0.07302315063476562	2.99072265625	-4.6234130859375	-1.888275146484375	
154	0.616	0.0	0.0	0.0	0.0	4.644	4.674	4.671	4.641	10.084975942993163	0.15322890625	-0.14125789794921875	-0.194549560546875	-2.5177001953125	-1.209259033203125	9.76116016845703	-0.1304839904785156	0.1304839904785156	0.370025634765625	-5.184173583984375	-3.4027099609375	9.962871658325195	0.6284779357910156	-0.18614917907714842	2.529144287109375	-4.95147705078125	-1.82342529296875	
155	0.62	0.0	0.0	0.0	0.0	4.644	4.671	4.671	4.641	9.718663088989258	-0.12988544006347655	0.06404489440917968	2.46429443359375	-3.91387939453125	-1.01470947265625	9.648034140014648	0.143652099609375	0.30047230834960936	0.629425048828125	-5.16510009765625	-2.593994140625	9.922768780517577	0.2059013427734375	0.03531447448730469	2.7008056640625	-4.82177734375	-1.70135498046875	
156	0.624	0.0	0.0	0.0	0.0	4.638	4.671	4.671	4.647	9.949703549194336	0.41419688720703124	-0.010175357055664061	4.45556640625	-4.650115966796875	-0.431060791015625	9.85692823486328	-0.07481880187988281	0.03950432739257812	0.41961669921875	-5.1727294921875	-3.231048583984375	10.10652375793457	0.5602431884765625	-0.2741360900878906	2.513885498046875	-4.8370361328125	-1.86920166015625	
157	0.628	0.0	0.0	0.0	0.0	4.647	4.671	4.671	4.635	9.683348614501952	0.012569558715820313	0.18734627990722655	2.2430419921875	-3.398895263671875	-0.705718994140625	9.609726913452148	0.17836802368164062	0.30885201416015623	0.835418701171875	-4.8980712890625	-3.5400390625	9.65940659790039	0.25737667846679685	0.08738836059570312	2.254486083984375	-4.69207763671875	-1.827239990234375	
158	0.632	0.0	0.0	0.0	0.0	4.644	4.671	4.674	0.006	9.840168823242188	0.5823895538330078	0.19812018737792966	3.1890869140625	-4.322052001953125	-0.865936279296875	9.742605105590819	-0.008978256225585938	0.21607669982910155	0.80108642578125	-5.11932373046875	-3.131866455078125	9.98501802368164	0.6051344696044921	-0.15322890625	2.2735595703125	-4.802703857421875	-1.796722412109375	
159	0.636	0.0	0.0	0.0	0.0	0.003	0.003	0.006	0.003	9.76175871887207	0.04369418029785156	0.17357962036132812	0.40435791015625	-2.79998779296875	-1.224517822265625	9.617508068847656	0.018555062866210937	0.3495534423828125	1.102447509765625	-5.11932373046875	-3.864288330078125	9.704297879028319	0.201112939453125	0.1292868896484375	2.414703369140625	-4.795074462890625	-1.96075439453125	
160	0.64	0.0	0.0	0.0	0.0	0.003	0.006	0.003	0.006	9.888052856445311	0.5787982513427734	0.09157821350097656	4.711151123046875	-4.749298095703125	-0.614166259765625	9.822810861206055	-0.07841010437011718	0.1514332550048828	1.3580322265625	-5.43212890625	-3.421783447265625	9.841365924072266	0.40880993347167965	-0.0053869537353515625	2.468109130859375	-4.7454833984375	-2.01416015625	
161	0.644	0.0	0.0	0.0	0.0	-0.003	0.003	0.006	0.003	9.813832604980469	0.35613749694824215	0.1227028350830078	2.696990966796875	-3.597259521484375	-0.827789306640625	9.533112460327148	0.17118541870117188	0.4207809417724609	0.732421875	-4.84466552734375	-3.60870361328125	9.567229833984374	0.3142389678955078	0.18614917907714842	2.239227294921875	-4.673004150390625	-1.8157958984375	
162	0.648	0.0	0.0	0.0	0.0	0.006	0.006	0.006	0.006	9.904812268066406	0.36691140441894526	0.044292730712890624	5.382537841796875	-5.13458251953125	-0.58746337890625	9.66000514831543	-0.04608838195800781	0.29269115295410153	0.354766845703125	-5.035400390625	-3.0364990234375	9.807847100830077	0.41838674011230464	-0.025737667846679687	2.66265869140625	-4.978179931640625	-1.880645751953125	
163	0.652	0.0	0.0	0.0	0.0	0.003	0.006	0.006	0.003	9.913191973876952	0.1771709228515625	0.017357962036132813	2.5177001953125	-3.826141357421875	-0.80108642578125	9.634866030883789	0.14185644836425781	0.2699462371826172	0.766754150390625	-4.9285888671875	-3.673553466796875	9.668384854125977	0.21966800231933592	0.1292868896484375	2.95257568359375	-4.436492919921875	-1.811981201171875	
164	0.656	0.0	0.0	0.0	0.0	0.003	0.003	0.006	0.006	9.897629663085937	0.258573779296875	0.0526724365234375	3.74603271484375	-4.543304443359375	-0.385284423828125	9.636063131713867	-0.11013327636718749	0.32920272827148434	0.22125244140625	-4.9285888671875	-2.81524658203125	9.782707983398437	0.4531026641845703	0.011971008300781249	2.15911865234375	-4.825592041015625	-2.086639404296875	
165	0.66	0.0	0.0	0.0	0.0	0.003	0.006	0.003	0.003	9.892242709350585	0.22744915771484372	0.05327098693847656	2.307891845703125	-3.322601318359375	-0.766754150390625	9.78031378173828	0.010175357055664061	0.12509703674316405	0.5035400390625	-4.57763671875	-3.33404541015625	10.007762939453125	0.46028526916503903	-0.316034619140625	2.7008056640625	-4.52423095703125	-1.308441162109375	
166	0.664	0.0	0.0	0.0	0.0	0.006	0.006	0.003	0.003	9.85094273071289	-0.14544775085449219	-0.07302315063476562	3.261566162109375	-4.11224365234375	-0.438690185546875	9.730035546875	-0.18315642700195311	0.30346506042480464	0.469207763671875	-4.852294921875	-2.83050537109375	9.70968483276367	0.30885201416015623	0.2693476867675781	2.025604248046875	-4.634857177734375	-2.079010009765625	
167	0.668	0.0	0.0	0.0	0.0	0.006	0.006	0.003	0.003	9.91438907470703	0.3345896820068359	0.14903905334472656	3.261566162109375	-3.925323486328125	-0.396728515625	9.79946739501953	0.001197100830078125	0.09157821350097656	0.25177001953125	-4.695892333984375	-3.261566162109375	10.101136804199218	0.4686649749755859	-0.5255272644042969	2.399444580078125	-4.589080810546875	-1.6632080078125	
168	0.672	0.0	0.0	0.0	0.0	0.003	0.006	0.003	0.006	9.861118087768554	-0.14903905334472656	0.022744915771484374	3.223419189453125	-4.24957275390625	-0.48828125	9.795876092529296	0.047285482788085934	0.10893617553710937	0.423431396484375	-5.123138427734375	-2.826690673828125	10.08078609008789	0.38367081604003905	-0.3651157531738281	3.322601318359375	-4.638671875	-1.270294189453125	
169	0.676	0.0	0.0	0.0	0.0	0.006	0.006	0.006	0.003	10.024522351074218	0.08439560852050781	-0.20769699401855468	2.498626708984375	-3.570556640625	-0.60272216796875	9.861118087768554	-0.032920272827148434	-0.003591302490234375	0.377655029296875	-5.008697509765625	-3.3721923828125	10.044873065185547	0.4064157318115234	-0.3058592620849609	2.685546875	-4.50897216796875	-1.300811767578125	
170	0.68	0.0	0.0	0.0	0.0	0.0	0.006	0.003	0.003	9.89523546142578	-0.5195417602539062	-0.07062894897460938	1.97601318359375	-3.871917724609375	-0.453948974609375	9.843760125732421	-0.013766659545898436	0.062249243164062495	0.52642822265625	-5.04302978515625	-2.727508544921875	10.008960040283203	0.23223756103515625	-0.1693897674560547	2.658843994140625	-4.5623779296875	-1.68609619140625	
171	0.684	0.0	0.0	0.0	0.0	0.003	0.006	0.006	0.003	10.012551342773437	-0.05027823486328125	-0.16460136413574217	2.00653076171875	-3.4942626953125	-0.453948974609375	9.931148486328125	-0.05027823486328125	-0.020350714111328123	0.949859619140625	-5.153656005859375	-3.032684326171875	10.23341644592285	0.5530605834960938	-0.49380409240722656	2.666473388671875	-4.50897216796875	-1.461029052734375	
172	0.6880000000000001	0.0	0.0	0.0	0.0	0.006	0.003	0.006	0.003	9.911994873046874	-0.411802685546875	-0.062249243164062495	1.438140869140625	-3.330230712890625	-0.63323974609375	9.818022457885741	0.040701428222656245	0.10474632263183593	0.49591064453125	-5.0048828125	-2.857208251953125	10.028113653564452	0.27174188842773433	-0.21188684692382811	2.788543701171875	-4.657745361328125	-1.36566162109375	
173	0.6920000000000001	0.0	0.0	0.0	0.0	0.003	0.006	0.006	0.003	9.990404977416992	-0.031124621582031248	-0.1352723937988281	2.55584716796875	-3.917694091796875	-0.522613525390625	9.93354268798828	-0.08259995727539061	0.0053869537353515625	1.15203857421875	-5.092620849609375	-3.4332275390625	10.322001907348632	0.48662148742675776	-0.488417138671875	2.75421142578125	-4.314422607421875	-1.53350830078125	
174	0.6960000000000001	0.0	0.0	0.0	0.0	0.003	0.006	0.003	0.006	9.57620809020996	0.4333505004882812	0.556053335571289	0.12969970703125	-2.74658203125	-0.823974609375	9.58279214477539	0.22266075439453123	0.4112041351318359	1.163482666015625	-4.76837158203125	-3.200531005859375	9.906009368896484	0.2424129180908203	-0.051475335693359374	2.689361572265625	-4.863739013671875	-1.796722412109375	
175	0.7000000000000001	0.0	0.0	0.0	0.0	0.006	0.006	0.003	0.006	10.008960040283203	0.12689268798828124	-0.15083470458984374	2.117156982421875	-3.7078857421875	-0.888824462890625	9.941323843383788	0.012569558715820313	-0.044292730712890624	1.369476318359375	-5.428314208984375	-3.0975341796875	10.302249743652343	0.6254851837158203	-0.536899722290039	3.0059814453125	-4.52423095703125	-1.4495849609375	
176	0.704	0.0	0.0	0.0	0.0	0.006	0.003	0.003	0.003	9.585186346435547	0.5596446380615234	0.5147533569335937	0.171661376953125	-2.60162353515625	-0.858306884765625	9.64025298461914	0.24839842224121092	0.44412440795898434	1.056671142578125	-4.84466552734375	-3.07464599609375	10.038289010620117	0.30346506042480464	-0.015562310791015624	2.79998779296875	-4.81414794921875	-1.758575439453125	
177	0.708	0.0	0.0	0.0	0.0	-0.003	0.003	0.003	0.003	9.858125335693359	0.19871873779296872	0.11731588134765625	5.252838134765625	-4.703521728515625	-0.9307861328125	9.861716638183593	-0.11611878051757812	0.09636661682128905	0.518798828125	-5.01251220703125	-3.326416015625	10.324994659423828	0.4878185882568359	-0.5111620544433594	2.99072265625	-4.57763671875	-1.73187255859375	
178	0.712	0.0	0.0	0.0	0.0	0.003	0.006	0.003	0.006	9.578003741455078	0.8708908538818358	0.6476315490722656	1.323699951171875	-3.040313720703125	-1.15966796875	9.566032733154296	0.421978042602539	0.5734112976074218	0.972747802734375	-4.913330078125	-3.124237060546875	9.94671079711914	0.4261678955078125	0.025737667846679687	2.70843505859375	-4.772186279296875	-1.781463623046875	
179	0.716	0.0	0.0	0.0	0.0	0.003	0.006	0.006	0.006	9.90840357055664	0.4483142608642578	0.0383072265625	5.931854248046875	-5.016326904296875	-0.87738037109375	9.91558617553711	-0.20171148986816406	0.19871873779296872	0.415802001953125	-4.619598388671875	-3.18145751953125	10.062829577636718	0.43574470214843747	-0.4004302276611328	2.689361572265625	-4.669189453125	-1.804351806640625	
180	0.72	0.0	0.0	0.0	0.0	0.003	0.003	0.006	0.003	9.669581954956055	0.8271966735839843	0.5386953735351562	1.80816650390625	-3.009796142578125	-1.02996826171875	9.585186346435547	0.2867056488037109	0.6488286499023437	0.1220703125	-4.7149658203125	-3.082275390625	10.02332525024414	0.36212300109863277	-0.022744915771484374	2.83050537109375	-4.55474853515625	-1.667022705078125	
181	0.724	0.0	0.0	0.0	0.0	0.006	0.003	0.006	0.003	9.880870251464843	0.2932897033691406	0.012569558715820313	7.171630859375	-5.458831787109375	-0.690460205078125	9.849745629882811	-0.17597382202148437	0.33399113159179683	0.06866455078125	-4.84466552734375	-3.559112548828125	9.883264453125	0.4100070343017578	-0.2549824768066406	2.651214599609375	-4.863739013671875	-1.895904541015625	
182	0.728	0.0	0.0	0.0	0.0	0.006	0.003	0.006	0.006	9.949104998779296	0.10893617553710937	-0.34177228698730466	2.2735595703125	-3.726959228515625	-0.91552734375	9.759963067626952	0.19033903198242186	0.09995791931152344	-0.1068115234375	-4.5928955078125	-3.032684326171875	9.668983404541015	0.4860229370117187	-0.03172317199707031	2.170562744140625	-4.72259521484375	-1.758575439453125	
183	0.732	0.0	0.0	0.0	0.0	0.003	0.003	0.003	0.003	9.95389340209961	0.04848258361816406	-0.28969840087890625	5.336761474609375	-4.863739013671875	-0.8392333984375	9.944316595458984	-0.0987608184814453	0.023942016601562498	0.35858154296875	-4.749298095703125	-3.238677978515625	9.98561657409668	0.3363853332519531	-0.29448680419921874	2.31170654296875	-4.69207763671875	-1.735687255859375	
184	0.736	0.0	0.0	0.0	0.0	0.003	0.003	0.003	0.006	9.85632968444824	-0.076614453125	-0.25139117431640623	1.15966796875	-3.383636474609375	-0.972747802734375	9.673173257446289	0.030526071166992186	0.1849520782470703	-0.0762939453125	-4.92095947265625	-2.681732177734375	9.65282254333496	0.3860650177001953	0.03950432739257812	2.239227294921875	-4.72259521484375	-2.0599365234375	
185	0.74	0.0	0.0	0.0	0.0	0.006	0.003	0.006	0.003	9.890447058105469	0.2154781494140625	-0.11911153259277343	5.657196044921875	-5.062103271484375	-0.644683837890625	9.667786303710937	0.051475335693359374	0.0652419952392578	0.446319580078125	-5.37872314453125	-3.33404541015625	9.90241806640625	0.5045779998779296	-0.19632453613281248	2.712249755859375	-5.130767822265625	-1.842498779296875	
186	0.744	0.0	0.0	0.0	0.0	0.003	0.003	0.003	0.003	9.847949978637695	0.14784195251464843	-0.17357962036132812	-0.186920166015625	-2.6397705078125	-1.239776611328125	9.730035546875	-0.19033903198242186	0.17836802368164062	0.16021728515625	-4.650115966796875	-3.0517578125	9.749787710571288	0.3387795349121094	0.04608838195800781	2.216339111328125	-4.6539306640625	-2.071380615234375	
187	0.748	0.0	0.0	0.0	0.0	0.006	0.006	0.003	0.006	9.898826763916015	0.022744915771484374	-0.05746083984375	3.4332275390625	-4.581451416015625	-0.751495361328125	9.694122521972655	0.1197100830078125	0.12330138549804687	0.72479248046875	-5.0506591796875	-3.41033935546875	9.900622415161132	0.35015199279785153	-0.07781155395507812	2.475738525390625	-5.069732666015625	-2.033233642578125	
188	0.752	0.0	0.0	0.0	0.0	0.0	0.003	0.003	0.003	9.742605105590819	0.12090718383789062	0.12330138549804687	1.7242431640625	-3.62396240234375	-0.949859619140625	9.692925421142577	-0.1304839904785156	0.2519897247314453	0.438690185546875	-5.039215087890625	-3.208160400390625	9.574412438964844	0.41958384094238277	0.08499415893554688	2.330780029296875	-4.47845458984375	-1.89208984375	
189	0.756	0.0	0.0	0.0	0.0	0.003	0.003	0.006	0.003	10.038887561035155	0.12210428466796874	-0.1370680450439453	3.551483154296875	-4.703521728515625	-0.576019287109375	9.773131176757811	0.08858546142578125	0.09038111267089843	0.80108642578125	-4.913330078125	-3.04412841796875	9.871293444824218	0.5105635040283203	-0.09696516723632811	2.43377685546875	-4.901885986328125	-1.659393310546875	
190	0.76	0.0	0.0	0.0	0.0	0.006	0.006	0.003	0.009000000000000001	9.878476049804688	0.12449848632812499	-0.07062894897460938	3.082275390625	-3.681182861328125	-1.201629638671875	9.888651406860351	-0.22086510314941404	0.028131869506835935	0.453948974609375	-4.85992431640625	-3.269195556640625	10.231620794677733	0.20530279235839843	-0.3705027069091797	2.79998779296875	-4.302978515625	-1.529693603515625	
191	0.764	0.0	0.0	0.0	0.0	-0.003	0.003	0.003	0.006	9.904213717651366	-0.09337386474609374	-0.19572598571777342	3.681182861328125	-4.581451416015625	-0.7476806640625	9.696516723632811	0.047884033203124995	0.1849520782470703	0.457763671875	-5.260467529296875	-3.009796142578125	9.645041387939452	0.49679684448242184	0.10175357055664062	2.384185791015625	-4.94384765625	-1.82342529296875	
192	0.768	0.0	0.0	0.0	0.0	0.006	0.003	0.003	0.003	9.888651406860351	0.020350714111328123	-0.022744915771484374	1.338958740234375	-3.41033935546875	-0.3204345703125	9.744400756835937	0.011372457885742187	0.18315642700195311	0.087738037109375	-4.69207763671875	-3.101348876953125	10.15740054321289	0.42377369384765623	-0.4465186096191406	2.92205810546875	-4.58526611328125	-1.22833251953125	
193	0.772	0.0	0.0	0.0	0.0	0.003	0.006	0.003	0.003	10.037690460205077	-0.30885201416015623	-0.30705636291503907	4.222869873046875	-4.726409912109375	-0.213623046875	9.979631069946288	-0.01915361328125	-0.05805939025878906	0.576019287109375	-5.252838134765625	-3.05938720703125	10.231022244262695	0.430956298828125	-0.31004911499023435	2.9296875	-4.726409912109375	-1.6632080078125	
194	0.776	0.0	0.0	0.0	0.0	0.006	0.006	0.006	0.006	9.853336932373047	-0.06344634399414062	0.025139117431640625	-0.86212158203125	-2.132415771484375	-0.84686279296875	9.949104998779296	-0.031124621582031248	0.02633621826171875	1.010894775390625	-5.031585693359375	-3.34930419921875	10.092757098388672	0.2280477081298828	-0.2765302917480469	2.75421142578125	-4.31060791015625	-1.384735107421875	
195	0.78	0.0	0.0	0.0	0.0	0.006	0.006	0.006	0.006	9.657610946655273	0.35613749694824215	0.45549686584472654	4.69970703125	-4.917144775390625	-0.476837158203125	9.797671743774414	0.0430956298828125	0.0383072265625	0.621795654296875	-5.481719970703125	-2.9144287109375	9.950900650024414	0.6063315704345703	-0.21607669982910155	3.009796142578125	-4.940032958984375	-1.544952392578125	
196	0.784	0.0	0.0	0.0	0.0	0.003	0.003	0.006	0.006	9.992799179077148	0.04249707946777344	-0.1753752716064453	-0.514984130859375	-2.376556396484375	-0.934600830078125	10.069413632202147	0.10115502014160156	-0.18914193115234373	1.453399658203125	-5.008697509765625	-3.208160400390625	10.349535226440429	0.239420166015625	-0.5440823272705078	2.8228759765625	-4.638671875	-1.041412353515625	
197	0.788	0.0	0.0	0.0	0.0	0.003	0.006	0.006	0.003	9.739013803100585	0.1879448303222656	0.3136404174804687	4.17327880859375	-4.61578369140625	-0.67138671875	9.85692823486328	-0.1592144104003906	0.001197100830078125	0.499725341796875	-5.21087646484375	-3.070831298828125	10.108917959594725	0.28909985046386716	-0.2501940734863281	2.9449462890625	-4.642486572265625	-1.895904541015625	
198	0.792	0.0	0.0	0.0	0.0	0.003	0.006	0.003	0.006	9.92217023010254	-0.054468087768554684	-0.025737667846679687	-0.759124755859375	-2.605438232421875	-0.537872314453125	9.846752877807617	0.2166752502441406	0.010773907470703125	1.354217529296875	-5.130767822265625	-2.78472900390625	10.06881508178711	0.5363011718749999	-0.3082534637451172	3.162384033203125	-4.650115966796875	-1.40380859375	
199	0.796	0.0	0.0	0.0	0.0	0.006	0.003	0.003	0.003	9.631274728393555	0.1640028137207031	0.3435679382324219	4.825592041015625	-4.9591064453125	-0.568389892578125	9.675567459106444	0.07721300354003906	0.43574470214843747	0.637054443359375	-4.98199462890625	-2.7008056640625	10.095151300048828	0.42497079467773435	-0.28371289672851563	3.330230712890625	-5.01251220703125	-1.384735107421875	
200	0.8	0.0	0.0	0.0	0.0	0.006	0.006	4.563	4.623	10.115502014160155	0.4070142822265625	-0.04249707946777344	-2.6397705078125	-1.056671142578125	-1.48773193359375	10.090362896728514	-0.2214636535644531	-0.17657237243652343	1.026153564453125	-4.9591064453125	-2.01416015625	10.415974322509765	0.3321954803466797	-0.4578910675048828	2.941131591796875	-4.367828369140625	-1.190185546875	
201	0.804	0.0	0.0	0.0	0.0	4.644	4.668	4.668	4.626	9.554061724853515	0.229843359375	0.45968671875	5.86700439453125	-5.43212890625	-0.3814697265625	9.540893615722656	0.25258827514648435	0.5189432098388671	0.83160400390625	-5.34820556640625	-3.3721923828125	9.735422500610351	0.2184709014892578	0.1771709228515625	2.269744873046875	-4.611968994140625	-2.208709716796875	
202	0.808	0.0	0.0	0.0	0.0	4.647	4.665	4.671	4.641	9.89523546142578	0.612915625	0.15382745666503905	-1.224517822265625	-1.91497802734375	-1.316070556640625	9.840767373657226	0.03890577697753906	0.07481880187988281	0.64849853515625	-5.290985107421875	-2.98309326171875	10.129867224121092	0.6512228515624999	-0.3872621185302734	3.021240234375	-4.871368408203125	-0.96893310546875	
203	0.812	0.0	0.0	0.0	0.0	4.638	4.671	4.674	4.641	9.694721072387695	0.2442085693359375	0.19093758239746092	3.11279296875	-4.180908203125	-0.659942626953125	9.828197814941406	0.014963760375976562	0.2711433380126953	0.743865966796875	-5.138397216796875	-2.9296875	10.056844073486328	0.07541735229492187	-0.008379705810546874	2.635955810546875	-4.673004150390625	-1.949310302734375	
204	0.8160000000000001	0.0	0.0	0.0	0.0	4.647	4.671	4.671	4.641	9.975441217041014	0.3082534637451172	-0.09457096557617187	-0.812530517578125	-2.201080322265625	-1.4801025390625	9.945513696289062	-0.08738836059570312	0.06643909606933593	0.81634521484375	-4.642486572265625	-3.383636474609375	9.929951385498047	0.4991910461425781	-0.05087678527832031	2.31170654296875	-5.016326904296875	-2.193450927734375	
205	0.8200000000000001	0.0	0.0	0.0	0.0	4.644	4.671	4.668	4.647	9.641450085449218	0.10175357055664062	0.26695348510742184	2.26593017578125	-3.955841064453125	-1.251220703125	9.426570486450196	0.1867477294921875	0.5907692596435546	0.5950927734375	-5.199432373046875	-3.39508056640625	9.585186346435547	0.3699041564941406	0.22206220397949217	2.6702880859375	-4.7149658203125	-1.5869140625	
206	0.8240000000000001	0.0	0.0	0.0	0.0	4.647	4.671	4.674	4.635	10.135254177856444	0.30047230834960936	-0.26336218261718747	-0.43487548828125	-2.29644775390625	-1.209259033203125	10.109516510009765	-0.24121581726074218	-0.08259995727539061	0.64849853515625	-4.81414794921875	-2.811431884765625	10.067617980957031	0.5482721801757812	-0.2771288421630859	2.38800048828125	-5.069732666015625	-1.86920166015625	
207	0.8280000000000001	0.0	0.0	0.0	0.0	4.644	4.674	4.671	4.6290000000000004	9.78629928588867	-0.20171148986816406	0.025139117431640625	2.99072265625	-3.864288330078125	-1.079559326171875	9.701305126953125	0.07481880187988281	0.3333925811767578	0.621795654296875	-5.035400390625	-3.66973876953125	9.90900212097168	0.09038111267089843	0.07841010437011718	2.490997314453125	-4.66156005859375	-1.73187255859375	
208	0.8320000000000001	0.0	0.0	0.0	0.0	4.647	4.671	4.671	4.6290000000000004	9.865307940673828	0.4991910461425781	0.08978256225585937	3.34930419921875	-4.46319580078125	-0.81634521484375	9.5384994140625	-0.06464344482421874	0.354940396118164	0.186920166015625	-5.18798828125	-3.269195556640625	9.648632690429688	0.6482300994873047	0.09696516723632811	2.239227294921875	-4.940032958984375	-2.22015380859375	
209	0.836	0.0	0.0	0.0	0.0	4.65	4.668	4.671	4.638	9.777919580078125	-0.0939724151611328	0.02693476867675781	1.605987548828125	-3.54766845703125	-1.04522705078125	9.676166009521484	0.22685060729980466	0.2962824554443359	0.621795654296875	-5.096435546875	-2.834320068359375	9.643245736694336	0.3393780853271484	0.06643909606933593	2.3345947265625	-4.810333251953125	-1.708984375	
210	0.84	0.0	0.0	0.0	0.0	4.644	4.671	4.674	4.644	10.012551342773437	0.18555062866210936	-0.17477672119140625	4.825592041015625	-4.72259521484375	-0.41961669921875	9.858125335693359	-0.3190273712158203	0.08259995727539061	0.31280517578125	-5.176544189453125	-3.4027099609375	10.116699114990233	0.2753331909179687	-0.18854338073730467	2.063751220703125	-4.787445068359375	-2.437591552734375	
211	0.844	0.0	0.0	0.0	0.0	4.644	4.437	0.003	0.003	9.67856021118164	0.15861585998535155	0.16041151123046873	1.659393310546875	-3.452301025390625	-0.919342041015625	9.619902270507811	0.07841010437011718	0.3399766357421875	0.64849853515625	-4.512786865234375	-3.734588623046875	9.574412438964844	0.34715924072265625	0.20530279235839843	2.044677734375	-4.49371337890625	-2.03704833984375	
212	0.848	0.0	0.0	0.0	0.0	0.006	0.003	0.003	0.003	9.83178911743164	0.4632780212402344	0.10893617553710937	5.084991455078125	-5.191802978515625	-0.537872314453125	9.591171850585937	-0.044891281127929686	0.3890577697753906	0.42724609375	-5.420684814453125	-2.956390380859375	9.688137017822266	0.4387374542236328	0.08559270935058594	2.544403076171875	-4.81414794921875	-1.65557861328125	
213	0.852	0.0	0.0	0.0	0.0	0.003	0.006	0.006	0.003	10.044873065185547	0.05327098693847656	-0.034715924072265626	2.170562744140625	-3.5247802734375	-0.48828125	9.81263550415039	-0.06404489440917968	0.09935936889648436	0.217437744140625	-4.75311279296875	-3.292083740234375	9.892242709350585	0.258573779296875	-0.086191259765625	2.475738525390625	-4.57763671875	-1.865386962890625	
214	0.856	0.0	0.0	0.0	0.0	0.006	0.003	0.003	0.003	9.961674557495117	0.21966800231933592	-0.11432312927246092	5.321502685546875	-5.077362060546875	-0.640869140625	9.821015209960937	-0.1197100830078125	0.08499415893554688	0.74005126953125	-5.06591796875	-3.326416015625	9.945513696289062	0.18315642700195311	-0.13168109130859373	2.391815185546875	-4.32586669921875	-1.674652099609375	
215	0.86	0.0	0.0	0.0	0.0	0.003	0.003	0.006	0.006	9.840767373657226	0.2759317413330078	0.19572598571777342	3.284454345703125	-4.123687744140625	-0.469207763671875	9.550470422363281	0.08140285644531249	0.2920926025390625	0.26702880859375	-4.9285888671875	-3.398895263671875	9.909600671386718	0.6278793853759765	-0.26396073303222656	2.93731689453125	-4.627227783203125	-1.399993896484375	
216	0.864	0.0	0.0	0.0	0.0	0.003	0.003	0.003	0.006	9.97184991455078	0.0383072265625	-0.2166752502441406	2.5634765625	-4.96673583984375	-0.38909912109375	9.809642752075195	0.0017956512451171875	0.011971008300781249	0.60272216796875	-5.107879638671875	-3.009796142578125	9.92217023010254	0.2699462371826172	-0.11552023010253906	2.74658203125	-5.10406494140625	-1.70135498046875	
217	0.868	0.0	0.0	0.0	0.0	0.006	0.003	0.006	0.006	9.997587582397461	0.1083376251220703	-0.13407529296874998	1.728057861328125	-3.48663330078125	-0.637054443359375	9.823409411621093	-0.05327098693847656	-0.18854338073730467	0.86212158203125	-4.993438720703125	-3.27301025390625	10.309432348632813	0.3315969299316406	-0.4369418029785156	2.685546875	-4.425048828125	-1.728057861328125	
218	0.872	0.0	0.0	0.0	0.0	0.006	0.003	0.003	0.003	9.763554370117188	-0.15382745666503905	0.19991583862304688	1.556396484375	-3.612518310546875	-0.919342041015625	9.639055883789062	0.052073886108398436	0.23882161560058593	0.32806396484375	-4.909515380859375	-3.170013427734375	9.670180505371093	0.38307226562499996	0.07302315063476562	2.727508544921875	-4.69207763671875	-1.8463134765625	
219	0.876	0.0	0.0	0.0	0.0	0.003	0.006	0.006	0.003	9.919776028442381	0.2597708801269531	0.037110125732421874	2.262115478515625	-3.92913818359375	-0.3204345703125	9.871293444824218	-0.029927520751953124	-0.008978256225585938	0.644683837890625	-5.092620849609375	-2.979278564453125	10.045471615600585	0.5602431884765625	-0.34835634155273437	2.8076171875	-4.665374755859375	-1.35040283203125	
220	0.88	0.0	0.0	0.0	0.0	0.003	0.003	0.006	0.003	9.904812268066406	-0.17118541870117188	-0.02693476867675781	1.739501953125	-3.551483154296875	-0.583648681640625	9.9215716796875	-0.1592144104003906	-0.08918401184082031	0.885009765625	-5.077362060546875	-2.96783447265625	10.248380206298828	0.2059013427734375	-0.29867665710449215	2.887725830078125	-4.779815673828125	-1.224517822265625	
221	0.884	0.0	0.0	0.0	0.0	0.003	0.003	0.003	0.006	9.8311905670166	0.16160861206054686	-0.055066638183593745	1.47247314453125	-3.143310546875	-1.3885498046875	9.910797772216796	-0.058657940673828124	0.01915361328125	0.8392333984375	-4.863739013671875	-3.139495849609375	10.081983190917969	0.41359833679199215	-0.2998737579345703	2.674102783203125	-4.52423095703125	-1.766204833984375	
222	0.888	0.0	0.0	0.0	0.0	0.003	0.003	0.006	0.009000000000000001	9.69771382446289	-0.1592144104003906	0.24301146850585936	-1.0986328125	-2.74658203125	-1.01470947265625	9.593566052246093	0.27832594299316404	0.479438882446289	1.026153564453125	-5.016326904296875	-2.8228759765625	9.8694977935791	0.5063736511230469	-0.09636661682128905	3.002166748046875	-4.64630126953125	-1.48773193359375	
223	0.892	0.0	0.0	0.0	0.0	0.006	0.006	0.003	0.003	10.113706362915039	0.18614917907714842	-0.055066638183593745	2.37274169921875	-3.8909912109375	-0.789642333984375	10.044873065185547	-0.044292730712890624	-0.20949264526367187	0.99945068359375	-5.31768798828125	-2.99072265625	10.331578713989257	0.4590881683349609	-0.5542576843261718	3.177642822265625	-4.5928955078125	-1.0223388671875	
224	0.896	0.0	0.0	0.0	0.0	0.0	0.003	0.006	0.003	9.814431155395507	-0.2885013000488281	0.20171148986816406	0.888824462890625	-2.9296875	-0.637054443359375	9.798270294189452	0.003591302490234375	0.3860650177001953	1.079559326171875	-5.115509033203125	-3.1585693359375	10.168773001098632	0.27892449340820313	-0.20949264526367187	2.7923583984375	-4.76837158203125	-1.68609619140625	
225	0.9	0.0	0.0	0.0	0.0	0.006	0.003	0.003	0.003	9.83238766784668	0.4991910461425781	0.3495534423828125	2.166748046875	-3.60107421875	-0.850677490234375	9.80665	0.05805939025878906	0.32620997619628905	0.86212158203125	-4.917144775390625	-3.631591796875	10.08677159423828	0.5781997009277343	-0.3184288208007812	2.849578857421875	-4.791259765625	-1.44195556640625	
226	0.904	0.0	0.0	0.0	0.0	0.009000000000000001	0.006	0.003	0.006	9.795277542114258	0.6715735656738281	0.28969840087890625	0.217437744140625	-2.986907958984375	-1.308441162109375	9.725247143554688	0.08080430603027343	0.5398924743652344	1.163482666015625	-5.19561767578125	-2.849578857421875	9.836577520751952	0.35314474487304687	0.04369418029785156	2.6397705078125	-4.913330078125	-1.57928466796875	
227	0.908	0.0	0.0	0.0	0.0	0.006	0.003	0.003	0.003	10.040683212280273	0.3435679382324219	0.14963760375976562	3.284454345703125	-4.08172607421875	-0.713348388671875	10.110115060424803	-0.055066638183593745	0.12090718383789062	0.698089599609375	-4.985809326171875	-3.56292724609375	10.451887347412109	0.35793314819335936	-0.5249287139892578	2.811431884765625	-4.6234130859375	-1.354217529296875	
228	0.912	0.0	0.0	0.0	0.0	0.003	0.003	0.003	0.003	9.771335525512695	0.7338228088378905	0.2861070983886719	2.124786376953125	-2.986907958984375	-1.21307373046875	9.625289224243163	0.08918401184082031	0.4752490295410156	0.4425048828125	-4.7760009765625	-3.47900390625	9.733028298950195	0.2902969512939453	0.26336218261718747	2.346038818359375	-4.398345947265625	-2.01416015625	
229	0.916	0.0	0.0	0.0	0.0	0.006	0.006	0.003	0.006	9.936535440063476	0.6284779357910156	0.24899697265624998	3.704071044921875	-4.108428955078125	-0.865936279296875	9.880271701049804	0.11611878051757812	0.33698388366699217	1.068115234375	-4.840850830078125	-3.2806396484375	10.141239682006836	0.6015431671142578	-0.04967968444824218	2.410888671875	-4.791259765625	-1.88446044921875	
230	0.92	0.0	0.0	0.0	0.0	0.006	0.003	0.006	0.006	9.956287603759765	0.4129997863769531	-0.08259995727539061	1.9683837890625	-3.047943115234375	-1.129150390625	9.87009634399414	0.0005985504150390625	0.16160861206054686	0.16021728515625	-4.75311279296875	-3.13568115234375	9.968258612060547	0.20649989318847656	-0.011372457885742187	2.689361572265625	-4.669189453125	-1.529693603515625	
231	0.924	0.0	0.0	0.0	0.0	0.003	0.006	0.003	0.006	9.916783276367187	0.07242460021972656	-0.20231004028320312	5.794525146484375	-5.161285400390625	-0.70953369140625	9.795876092529296	-0.09576806640624999	-0.047285482788085934	-0.1983642578125	-4.70733642578125	-3.017425537109375	9.903615167236328	0.3854664672851562	-0.17118541870117188	2.6702880859375	-4.90570068359375	-1.987457275390625	
232	0.928	0.0	0.0	0.0	0.0	0.003	0.003	0.003	0.006	9.885658654785155	0.2507926239013672	-0.020350714111328123	2.75421142578125	-3.772735595703125	-0.9002685546875	9.561842880249023	0.17896657409667968	0.40222587890625	0.308990478515625	-5.290985107421875	-2.971649169921875	9.611522564697266	0.4034229797363281	0.23822306518554687	2.41851806640625	-4.817962646484375	-1.861572265625	
233	0.932	0.0	0.0	0.0	0.0	0.006	0.003	0.003	0.006	9.813832604980469	0.21428104858398436	-0.027533319091796873	4.566192626953125	-4.756927490234375	-0.438690185546875	9.756371765136718	0.020350714111328123	-0.006584054565429687	0.034332275390625	-5.054473876953125	-3.078460693359375	9.943718045043944	0.5021837982177734	-0.2507926239013672	2.147674560546875	-4.680633544921875	-1.842498779296875	
234	0.936	0.0	0.0	0.0	0.0	0.006	0.006	0.003	0.003	9.944316595458984	0.12808978881835936	-0.076614453125	0.843048095703125	-2.788543701171875	-1.033782958984375	9.756970315551758	-0.07062894897460938	0.03651157531738281	0.46539306640625	-4.718780517578125	-3.41796875	9.95389340209961	0.19931728820800781	-0.09816226806640624	2.2430419921875	-4.436492919921875	-1.89208984375	
235	0.9400000000000001	0.0	0.0	0.0	0.0	0.006	0.006	0.003	0.006	9.76116016845703	0.5009866973876953	0.24959552307128904	3.948211669921875	-4.734039306640625	-0.7781982421875	9.637858782958984	0.13168109130859373	0.181959326171875	0.48065185546875	-4.833221435546875	-3.30352783203125	9.782707983398437	0.6194996795654296	-0.14784195251464843	2.26593017578125	-5.039215087890625	-2.208709716796875	
236	0.9440000000000001	0.0	0.0	0.0	0.0	0.006	0.006	0.003	0.003	9.85692823486328	0.24181436767578124	0.1197100830078125	2.735137939453125	-3.8604736328125	-0.675201416015625	9.604339959716796	0.04668693237304687	0.31184476623535157	-0.06866455078125	-4.917144775390625	-2.956390380859375	9.710881933593749	0.38187516479492184	0.032920272827148434	2.529144287109375	-4.566192626953125	-1.40380859375	
237	0.9480000000000001	0.0	0.0	0.0	0.0	0.003	0.006	0.003	0.006	9.961076007080077	0.4578910675048828	-0.0652419952392578	4.756927490234375	-4.619598388671875	-0.835418701171875	9.911994873046874	-0.11372457885742186	-0.06464344482421874	0.499725341796875	-5.023956298828125	-3.11279296875	10.00417163696289	0.3345896820068359	-0.0143652099609375	2.9296875	-4.547119140625	-1.598358154296875	
238	0.9520000000000001	0.0	0.0	0.0	0.0	0.003	0.006	0.003	0.006	9.90241806640625	0.025139117431640625	0.044292730712890624	3.2196044921875	-3.833770751953125	-0.701904296875	9.590573300170897	-0.07781155395507812	0.27952304382324217	0.14495849609375	-4.63104248046875	-3.3416748046875	9.721655841064452	0.2328361114501953	-0.013168109130859374	2.5177001953125	-4.314422607421875	-1.728057861328125	
239	0.9560000000000001	0.0	0.0	0.0	0.0	0.003	0.003	0.006	0.003	9.932345587158203	-0.24899697265624998	0.022146365356445312	3.711700439453125	-4.5318603515625	-0.20599365234375	9.686341366577148	0.12569558715820311	0.12988544006347655	0.23651123046875	-5.084991455078125	-2.895355224609375	9.683348614501952	0.5722141967773438	0.14125789794921875	2.735137939453125	-4.70733642578125	-1.40380859375	
240	0.96	0.0	0.0	0.0	0.0	0.006	0.003	0.003	0.006	9.981426721191406	-0.24480711975097655	-0.037110125732421874	3.124237060546875	-4.154205322265625	-0.102996826171875	9.701305126953125	-0.1406593475341797	0.20290859069824219	0.850677490234375	-4.924774169921875	-2.986907958984375	10.334571466064453	0.3082534637451172	-0.5057751007080078	2.8228759765625	-4.669189453125	-1.186370849609375	
241	0.964	0.0	0.0	0.0	0.0	0.006	0.006	0.003	0.006	10.008960040283203	-0.1945288848876953	-0.11851298217773437	3.80706787109375	-4.680633544921875	-0.476837158203125	9.815029705810547	-0.02454056701660156	-0.1227028350830078	0.41961669921875	-5.001068115234375	-3.147125244140625	9.95389340209961	0.4052186309814453	0.0053869537353515625	2.44140625	-4.76837158203125	-1.827239990234375	
242	0.968	0.0	0.0	0.0	0.0	0.003	0.003	0.006	0.003	9.777919580078125	-0.002992752075195312	0.22505495605468748	2.5634765625	-3.971099853515625	-0.213623046875	9.770138424682617	0.01975216369628906	0.09576806640624999	0.96893310546875	-4.932403564453125	-3.021240234375	10.105925207519531	0.3890577697753906	-0.3591302490234375	2.9144287109375	-4.611968994140625	-1.28173828125	
243	0.972	0.0	0.0	0.0	0.0	0.003	0.003	0.003	0.003	10.000580334472655	-0.0053869537353515625	-0.006584054565429687	4.230499267578125	-4.741668701171875	-0.392913818359375	9.83897172241211	-0.023942016601562498	-0.06344634399414062	0.41961669921875	-5.21087646484375	-2.83050537109375	9.97903251953125	0.5614402893066406	-0.14604630126953125	2.910614013671875	-4.9285888671875	-1.3580322265625	
244	0.976	0.0	0.0	0.0	0.0	0.003	4.638	4.662	4.635	10.00955859069824	-0.04668693237304687	-0.1352723937988281	-2.040863037109375	-1.77764892578125	-1.216888427734375	10.014346994018554	-0.15442600708007811	-0.07242460021972656	1.186370849609375	-4.94384765625	-3.23486328125	10.417171423339843	0.15023615417480468	-0.5698199951171875	2.750396728515625	-4.375457763671875	-1.30462646484375	
245	0.98	0.0	0.0	0.0	0.0	4.638	4.671	4.671	4.641	9.98501802368164	-0.022744915771484374	0.0047884033203125	5.084991455078125	-5.069732666015625	-0.40435791015625	9.811438403320311	0.10414777221679687	0.3633201019287109	0.6866455078125	-5.28717041015625	-2.834320068359375	10.037091909790039	0.4004302276611328	-0.18914193115234373	2.83050537109375	-4.73785400390625	-2.056121826171875	
246	0.984	0.0	0.0	0.0	0.0	4.644	4.671	4.668	4.638	9.888052856445311	0.15682020874023436	0.10893617553710937	-1.239776611328125	-2.498626708984375	-0.835418701171875	9.866505041503906	0.09516951599121093	0.03531447448730469	0.614166259765625	-4.978179931640625	-3.265380859375	10.199897622680663	0.3746925598144531	-0.4537012145996093	3.2196044921875	-4.474639892578125	-0.9307861328125	
247	0.988	0.0	0.0	0.0	0.0	4.638	4.671	4.668	4.647	10.046070166015625	-0.05985504150390625	-0.09038111267089843	3.95965576171875	-4.2266845703125	-0.74005126953125	9.975441217041014	-0.044292730712890624	0.16041151123046873	0.518798828125	-5.092620849609375	-2.6397705078125	10.207678778076172	0.2741360900878906	-0.31962592163085934	3.055572509765625	-4.81414794921875	-1.47247314453125	
248	0.992	0.0	0.0	0.0	0.0	4.647	4.671	4.674	4.638	9.980229620361328	0.1562216583251953	0.016759411621093748	-1.15966796875	-1.85394287109375	-1.129150390625	10.126275921630858	-0.15263035583496093	-0.11133037719726561	0.911712646484375	-4.7607421875	-3.21197509765625	10.238803399658202	0.4082113830566406	-0.40402153015136716	2.918243408203125	-4.82940673828125	-1.50299072265625	
249	0.996	0.0	0.0	0.0	0.0	4.644	4.671	4.671	4.626	9.512163195800781	0.17298106994628906	0.33399113159179683	4.38690185546875	-4.67681884765625	-0.518798828125	9.777321029663085	0.14963760375976562	0.36930560607910157	0.545501708984375	-5.168914794921875	-2.796173095703125	9.94072529296875	0.39145197143554683	-0.1514332550048828	3.08990478515625	-4.98199462890625	-1.51824951171875	
250	1.0	0.0	0.0	0.0	0.0	4.647	4.668	4.671	4.623	10.085574493408203	0.1227028350830078	-0.06284779357910156	-0.896453857421875	-2.197265625	-0.93841552734375	10.173561404418944	-0.1610100616455078	-0.15083470458984374	0.701904296875	-4.817962646484375	-2.87628173828125	10.23401499633789	0.5237316131591797	-0.4333505004882812	2.8228759765625	-4.82177734375	-1.22833251953125	
251	1.004	0.0	0.0	0.0	0.0	4.647	4.668	4.671	4.635	9.660603698730467	0.12449848632812499	0.1388636962890625	4.46319580078125	-4.5166015625	-0.949859619140625	9.78689783630371	0.14544775085449219	0.13766659545898435	0.41961669921875	-5.18798828125	-3.261566162109375	9.861716638183593	0.0005985504150390625	0.018555062866210937	2.239227294921875	-4.642486572265625	-1.979827880859375	
252	1.008	0.0	0.0	0.0	0.0	4.641	4.674	4.671	4.641	9.83178911743164	0.4800374328613281	0.0053869537353515625	0.972747802734375	-2.90679931640625	-1.38092041015625	10.024522351074218	-0.08140285644531249	0.012569558715820313	0.804901123046875	-5.306243896484375	-2.887725830078125	10.035296258544921	0.6416460449218749	-0.24959552307128904	2.76947021484375	-4.73785400390625	-1.567840576171875	
253	1.012	0.0	0.0	0.0	0.0	4.644	4.44	0.003	0.006	9.62109937133789	0.21068974609375	0.17238251953125	2.55584716796875	-4.28009033203125	-1.0833740234375	9.645639938354492	0.26336218261718747	0.2747346405029297	0.41961669921875	-5.08880615234375	-2.796173095703125	9.625887774658203	0.17238251953125	0.277727392578125	2.3651123046875	-4.947662353515625	-1.74713134765625	
254	1.016	0.0	0.0	0.0	0.0	0.006	0.003	0.003	0.006	9.951499200439452	0.2914940521240234	-0.08259995727539061	2.132415771484375	-3.15093994140625	-0.9918212890625	9.803657247924804	-0.21308394775390624	0.0939724151611328	0.240325927734375	-4.749298095703125	-3.276824951171875	10.321403356933594	0.4471171600341797	-0.4782417816162109	2.300262451171875	-3.963470458984375	-1.4495849609375	
255	1.02	0.0	0.0	0.0	0.0	0.006	0.003	0.003	0.003	9.606135610961914	0.19033903198242186	0.24001871643066405	1.953125	-3.4942626953125	-0.87738037109375	9.674968908691406	0.2501940734863281	0.19093758239746092	0.78582763671875	-4.85992431640625	-2.9449462890625	9.662997900390625	0.19213468322753904	0.32501287536621093	2.391815185546875	-4.650115966796875	-1.97601318359375	
256	1.024	0.0	0.0	0.0	0.0	0.006	0.006	0.006	0.003	9.801861596679688	0.4836287353515625	0.19931728820800781	3.124237060546875	-3.91387939453125	-0.698089599609375	9.6396544342041	-0.04249707946777344	0.28790274963378903	0.49591064453125	-5.21087646484375	-3.2501220703125	9.78629928588867	0.5249287139892578	-0.17357962036132812	1.9989013671875	-4.993438720703125	-2.15911865234375	
257	1.028	0.0	0.0	0.0	0.0	0.006	0.003	0.003	0.003	9.83178911743164	0.2059013427734375	-0.076614453125	1.22833251953125	-3.51715087890625	-1.25885009765625	9.676166009521484	0.076614453125	0.10235212097167969	0.54168701171875	-5.096435546875	-3.2501220703125	9.79946739501953	0.25139117431640623	0.2855085479736328	2.61688232421875	-4.863739013671875	-1.9378662109375	
258	1.032	0.0	0.0	0.0	0.0	0.0	0.003	0.006	0.006	9.880271701049804	0.4537012145996093	0.1771709228515625	4.52423095703125	-4.283905029296875	-0.92315673828125	9.694122521972655	-0.18255787658691405	0.47704468078613277	0.06103515625	-4.909515380859375	-3.41033935546875	9.725845693969726	0.16998831787109375	0.364517202758789	1.605987548828125	-5.0506591796875	-2.750396728515625	
259	1.036	0.0	0.0	0.0	0.0	0.003	0.003	0.006	0.003	9.816825357055663	0.296881005859375	0.04967968444824218	2.956390380859375	-3.993988037109375	-0.911712646484375	9.427767587280274	0.20470424194335937	0.48722003784179685	0.797271728515625	-5.031585693359375	-3.76129150390625	9.617508068847656	0.4273649963378906	0.1406593475341797	2.0599365234375	-4.1351318359375	-2.00653076171875	
260	1.04	0.0	0.0	0.0	0.0	0.006	0.006	0.006	0.006	9.929352835083007	0.30346506042480464	0.011372457885742187	5.695343017578125	-5.33294677734375	-0.286102294921875	9.7928833404541	-0.076614453125	0.17597382202148437	0.087738037109375	-5.05828857421875	-3.3111572265625	9.798868844604492	0.35613749694824215	0.05985504150390625	2.18963623046875	-4.82177734375	-2.178192138671875	
261	1.044	0.0	0.0	0.0	0.0	0.003	0.006	0.006	0.003	9.95329485168457	0.20231004028320312	-0.18076222534179687	1.857757568359375	-3.322601318359375	-0.995635986328125	9.714473236083984	0.014963760375976562	0.10654197387695312	0.682830810546875	-4.932403564453125	-3.482818603515625	9.842563024902343	0.316034619140625	0.08379705810546874	2.0904541015625	-4.40216064453125	-1.995086669921875	
262	1.048	0.0	0.0	0.0	0.0	0.003	0.003	0.003	0.006	9.792284790039062	-0.1131260284423828	-0.10893617553710937	3.8299560546875	-4.810333251953125	-0.507354736328125	9.637858782958984	-0.025737667846679687	0.17298106994628906	0.28228759765625	-5.3863525390625	-3.124237060546875	9.792284790039062	0.3184288208007812	0.032920272827148434	2.6092529296875	-4.66156005859375	-1.949310302734375	
263	1.052	0.0	0.0	0.0	0.0	0.003	0.003	0.006	0.003	9.841365924072266	0.37229835815429685	0.04608838195800781	2.67791748046875	-3.894805908203125	-0.606536865234375	9.617508068847656	0.15502455749511718	0.1640028137207031	0.28228759765625	-4.909515380859375	-3.28826904296875	9.77432827758789	0.49320554199218747	-0.12030863342285156	2.544403076171875	-4.79888916015625	-1.407623291015625	
264	1.056	0.0	0.0	0.0	0.0	0.003	0.003	0.006	0.003	9.917980377197265	-0.27832594299316404	-0.26755203552246093	3.253936767578125	-4.337310791015625	-0.60272216796875	9.788094937133788	-0.12569558715820311	-0.04848258361816406	0.25177001953125	-5.199432373046875	-2.910614013671875	9.931148486328125	0.2519897247314453	-0.08858546142578125	2.735137939453125	-4.756927490234375	-1.758575439453125	
265	1.06	0.0	0.0	0.0	0.0	0.003	0.006	0.006	0.003	10.062829577636718	-0.09457096557617187	-0.24959552307128904	1.678466796875	-3.51715087890625	-0.484466552734375	9.926360083007811	-0.086191259765625	-0.11911153259277343	0.7781982421875	-5.126953125	-3.01361083984375	9.846154327392577	0.4381389038085937	-0.19213468322753904	2.7618408203125	-4.383087158203125	-1.5411376953125	
266	1.064	0.0	0.0	0.0	0.0	0.003	0.006	0.006	0.006	9.837176071166992	-0.45070846252441404	-0.17776947326660156	3.368377685546875	-4.734039306640625	-0.438690185546875	9.662997900390625	0.02693476867675781	-0.054468087768554684	0.446319580078125	-5.340576171875	-2.628326416015625	9.734823950195311	0.40940848388671874	0.00718260498046875	2.89154052734375	-4.482269287109375	-1.556396484375	
267	1.068	0.0	0.0	0.0	0.0	-0.003	0.006	0.003	0.006	9.989806427001952	-0.020350714111328123	-0.1083376251220703	0.32806396484375	-2.98309326171875	-0.759124755859375	9.956287603759765	-0.07601590270996093	-0.16639701538085935	0.84686279296875	-5.077362060546875	-2.971649169921875	10.26035121459961	0.49739539489746093	-0.37289690856933594	3.078460693359375	-4.52423095703125	-1.13677978515625	
268	1.072	0.0	0.0	0.0	0.0	0.003	0.006	0.003	0.003	9.910797772216796	-0.5781997009277343	-0.19931728820800781	1.1444091796875	-3.345489501953125	-0.45013427734375	9.900023864746093	0.017357962036132813	0.2885013000488281	1.178741455078125	-5.22613525390625	-2.994537353515625	9.95987890625	0.25797522888183594	-0.09457096557617187	2.765655517578125	-4.75311279296875	-1.636505126953125	
269	1.076	0.0	0.0	0.0	0.0	0.003	0.006	0.006	0.006	9.871293444824218	0.09217676391601562	0.12030863342285156	1.04522705078125	-3.269195556640625	-0.69427490234375	9.822212310791015	0.13287819213867186	0.04369418029785156	0.78582763671875	-5.34820556640625	-3.276824951171875	10.200496173095702	0.4991910461425781	-0.3280056274414062	2.895355224609375	-4.66156005859375	-1.59454345703125	
270	1.08	0.0	0.0	0.0	0.0	0.006	0.006	0.003	0.003	9.597157354736327	0.5668272430419922	0.5955576629638671	1.2664794921875	-3.19671630859375	-0.698089599609375	9.817423907470703	0.020350714111328123	0.4477157104492187	0.8544921875	-5.252838134765625	-2.895355224609375	10.034099157714843	0.3812766143798828	-0.13467384338378904	3.082275390625	-4.90570068359375	-1.39617919921875	
271	1.084	0.0	0.0	0.0	0.0	0.003	0.003	0.003	0.006	9.98501802368164	0.2980781066894531	0.11552023010253906	1.827239990234375	-3.37982177734375	-0.614166259765625	10.115502014160155	0.04848258361816406	0.06404489440917968	1.163482666015625	-4.84466552734375	-3.383636474609375	10.377068545532225	0.34656069030761716	-0.5039794494628906	2.857208251953125	-4.398345947265625	-1.6326904296875	
272	1.088	0.0	0.0	0.0	0.0	0.0	0.003	0.003	0.006	9.638457333374022	0.5315127685546874	0.4333505004882812	3.0059814453125	-3.772735595703125	-0.87738037109375	9.791087689208984	-0.06284779357910156	0.3764882110595703	1.12152099609375	-4.924774169921875	-3.10516357421875	10.020931048583984	0.3950432739257812	-0.1274912384033203	2.9296875	-4.825592041015625	-1.617431640625	
273	1.092	0.0	0.0	0.0	0.0	0.006	0.006	0.006	0.003	9.941922393798828	0.3507505432128906	0.10414777221679687	2.99072265625	-3.787994384765625	-0.9002685546875	9.94671079711914	0.1227028350830078	0.13467384338378904	0.762939453125	-4.985809326171875	-2.7618408203125	10.000580334472655	0.46148236999511716	-0.2867056488037109	2.780914306640625	-4.67681884765625	-1.453399658203125	
274	1.096	0.0	0.0	0.0	0.0	0.003	0.003	0.003	0.006	9.728838446044922	0.30526071166992186	0.25797522888183594	4.123687744140625	-4.367828369140625	-0.339508056640625	9.73602105102539	-0.008379705810546874	0.30705636291503907	0.5035400390625	-5.0048828125	-3.04412841796875	10.111312161254883	0.3585316986083984	-0.1197100830078125	2.73895263671875	-4.63104248046875	-1.552581787109375	
275	1.1	0.0	0.0	0.0	0.0	0.003	0.003	0.006	0.006	9.916783276367187	0.2136824981689453	-0.030526071166992186	0.9307861328125	-2.994537353515625	-0.93841552734375	10.026318002319336	-0.031124621582031248	0.009576806640625	0.81634521484375	-4.772186279296875	-2.96783447265625	10.164583148193358	0.31483751831054685	-0.3094505645751953	2.74658203125	-4.6539306640625	-1.483917236328125	
276	1.104	0.0	0.0	0.0	0.0	0.006	0.006	0.003	0.003	9.619902270507811	0.3447650390625	0.3363853332519531	3.662109375	-4.314422607421875	-0.48828125	9.552864624023437	0.20649989318847656	0.535702621459961	0.858306884765625	-5.1422119140625	-3.2196044921875	10.002974536132811	0.5638344909667968	-0.16998831787109375	2.361297607421875	-4.75311279296875	-2.101898193359375	
277	1.108	0.0	0.0	0.0	0.0	0.006	0.003	0.006	0.003	9.847351428222655	0.488417138671875	0.13826514587402344	0.1983642578125	-2.70843505859375	-1.155853271484375	9.816226806640625	0.06643909606933593	0.08559270935058594	0.453948974609375	-4.978179931640625	-3.02886962890625	10.17655415649414	0.4908113403320312	-0.4213794921875	2.841949462890625	-4.75311279296875	-1.117706298828125	
278	1.112	0.0	0.0	0.0	0.0	0.003	0.003	0.003	0.003	9.843161575317382	0.20530279235839843	-0.052073886108398436	2.201080322265625	-3.8909912109375	-1.44195556640625	9.70369932861328	0.1484405029296875	0.3585316986083984	0.934600830078125	-4.924774169921875	-3.509521484375	9.805452899169921	0.2041056915283203	0.03591302490234375	2.51007080078125	-4.680633544921875	-1.99127197265625	
279	1.116	0.0	0.0	0.0	0.0	0.003	0.003	0.003	0.003	9.836577520751952	0.6386532928466796	0.19512743530273435	0.640869140625	-2.4566650390625	-1.45721435546875	9.813832604980469	-0.022146365356445312	0.15741875915527342	0.4730224609375	-4.76837158203125	-3.124237060546875	10.03050785522461	0.4836287353515625	-0.24899697265624998	2.72369384765625	-4.779815673828125	-1.556396484375	
280	1.12	0.0	0.0	0.0	0.0	0.006	0.003	0.006	0.003	9.803657247924804	0.08858546142578125	0.010773907470703125	4.055023193359375	-4.2572021484375	-1.03759765625	9.592368951416015	0.21308394775390624	0.5207388610839844	0.087738037109375	-5.046844482421875	-3.368377685546875	9.597755905151367	0.24001871643066405	0.17417817077636719	2.3345947265625	-5.168914794921875	-2.01416015625	
281	1.124	0.0	0.0	0.0	0.0	0.006	0.003	0.003	4.623	10.045471615600585	0.37768531188964843	-0.1370680450439453	0.308990478515625	-2.6397705078125	-1.44195556640625	9.886855755615233	-0.11372457885742186	0.09516951599121093	0.1678466796875	-4.871368408203125	-3.143310546875	9.907206469726562	0.5285200164794922	-0.1466448516845703	2.262115478515625	-4.917144775390625	-1.8310546875	
282	1.1280000000000001	0.0	0.0	0.0	0.0	4.6290000000000004	4.665	4.665	4.644	9.758765966796874	-0.0047884033203125	0.1322796417236328	4.08172607421875	-4.383087158203125	-0.759124755859375	9.527725506591796	-0.02154781494140625	0.45010991210937495	0.408172607421875	-5.16510009765625	-3.6468505859375	9.645639938354492	0.14544775085449219	0.18614917907714842	2.391815185546875	-4.650115966796875	-2.25830078125	
283	1.1320000000000001	0.0	0.0	0.0	0.0	4.644	4.668	4.665	4.638	9.952097750854492	0.47764323120117186	-0.008978256225585938	4.89044189453125	-5.01251220703125	-0.621795654296875	9.756371765136718	0.0143652099609375	0.17118541870117188	0.362396240234375	-4.8980712890625	-2.83050537109375	9.713276135253906	0.7224503509521484	0.037708676147460936	2.452850341796875	-4.718780517578125	-1.7852783203125	
284	1.1360000000000001	0.0	0.0	0.0	0.0	4.644	4.671	4.671	4.626	9.750386260986328	-0.09935936889648436	0.003591302490234375	3.7078857421875	-4.375457763671875	-0.93841552734375	9.551667523193359	-0.054468087768554684	0.4159925384521484	-0.072479248046875	-4.84466552734375	-3.33404541015625	9.945513696289062	0.12509703674316405	-0.2059013427734375	2.590179443359375	-4.489898681640625	-1.4801025390625	
285	1.1400000000000001	0.0	0.0	0.0	0.0	4.65	4.671	4.671	4.626	9.969455712890625	0.47584757995605464	-0.086191259765625	4.726409912109375	-4.5928955078125	-0.38909912109375	9.777321029663085	-0.05566518859863281	0.033518823242187495	0.606536865234375	-5.0201416015625	-3.27301025390625	9.932345587158203	0.6194996795654296	-0.19333178405761717	2.2735595703125	-4.795074462890625	-1.99127197265625	
286	1.1440000000000001	0.0	0.0	0.0	0.0	4.647	4.668	4.671	4.638	9.618106619262695	-0.01975216369628906	0.12569558715820311	1.0833740234375	-3.154754638671875	-0.95367431640625	9.457096557617186	0.06823474731445311	0.44412440795898434	0.58746337890625	-5.077362060546875	-3.59344482421875	9.80066449584961	0.19333178405761717	-0.09756371765136718	2.9144287109375	-4.344940185546875	-1.560211181640625	
287	1.1480000000000001	0.0	0.0	0.0	0.0	4.641	4.674	4.674	4.641	9.989207876586914	0.3064578125	-0.1753752716064453	3.681182861328125	-4.5623779296875	-0.492095947265625	9.737218151855469	-0.023942016601562498	0.11911153259277343	0.232696533203125	-5.405426025390625	-2.98309326171875	9.847949978637695	0.6643909606933593	-0.08678981018066406	2.99072265625	-4.64630126953125	-1.5106201171875	
288	1.1520000000000001	0.0	0.0	0.0	0.0	4.644	4.671	4.671	4.644	9.83837317199707	-0.037708676147460936	0.08918401184082031	1.483917236328125	-3.284454345703125	-0.637054443359375	9.83777462158203	-0.13168109130859373	0.15682020874023436	0.782012939453125	-4.913330078125	-3.330230712890625	10.007762939453125	0.1927332336425781	-0.29867665710449215	2.849578857421875	-4.15802001953125	-1.4801025390625	
289	1.156	0.0	0.0	0.0	0.0	4.638	4.671	4.671	3.486	9.965265859985351	0.2651578338623047	-0.13347674255371092	3.307342529296875	-4.222869873046875	-0.701904296875	9.629479077148437	-0.08678981018066406	0.2759317413330078	0.41961669921875	-4.970550537109375	-3.108978271484375	9.962273107910155	0.3842693664550781	-0.105344873046875	2.93731689453125	-4.604339599609375	-1.434326171875	
290	1.16	0.0	0.0	0.0	0.0	3.486	0.006	0.003	0.006	9.815628256225585	0.10115502014160156	0.18914193115234373	3.292083740234375	-4.169464111328125	-0.339508056640625	9.703100778198241	0.011971008300781249	0.22266075439453123	0.377655029296875	-5.0048828125	-3.231048583984375	9.85692823486328	0.3585316986083984	-0.23104046020507812	2.628326416015625	-4.543304443359375	-1.308441162109375	
291	1.164	0.0	0.0	0.0	0.0	0.003	0.003	0.006	0.003	9.947907897949218	0.0909796630859375	0.09457096557617187	4.085540771484375	-4.596710205078125	-0.324249267578125	9.90122096557617	0.025139117431640625	0.14185644836425781	0.568389892578125	-5.237579345703125	-2.925872802734375	10.024522351074218	0.2741360900878906	-0.14963760375976562	3.185272216796875	-4.33349609375	-1.48773193359375	
292	1.168	0.0	0.0	0.0	0.0	0.003	0.003	0.003	0.003	9.911994873046874	0.1514332550048828	-0.028131869506835935	3.21197509765625	-3.993988037109375	-0.408172607421875	9.802460147094726	-0.02633621826171875	0.16160861206054686	0.614166259765625	-4.772186279296875	-3.452301025390625	10.305841046142577	0.49260699157714843	-0.6015431671142578	2.96783447265625	-4.45556640625	-1.1749267578125	
293	1.172	0.0	0.0	0.0	0.0	0.006	0.003	0.003	0.003	9.789292037963866	-0.07062894897460938	0.17238251953125	2.99835205078125	-4.37164306640625	-0.591278076171875	9.82520506286621	0.04249707946777344	0.12689268798828124	0.2288818359375	-5.336761474609375	-2.674102783203125	9.853336932373047	0.316034619140625	-0.08020575561523437	2.69317626953125	-4.6844482421875	-1.705169677734375	
294	1.176	0.0	0.0	0.0	0.0	0.006	0.003	0.003	0.003	9.967061511230469	0.03890577697753906	-0.086191259765625	1.926422119140625	-3.65447998046875	-0.51116943359375	10.01733974609375	-0.10115502014160156	-0.11851298217773437	0.81634521484375	-5.27191162109375	-3.0517578125	10.25975266418457	0.5638344909667968	-0.469862075805664	2.86865234375	-4.383087158203125	-1.163482666015625	
295	1.18	0.0	0.0	0.0	0.0	0.009000000000000001	0.003	0.003	0.003	9.819818109130859	-0.1292868896484375	0.12030863342285156	2.23541259765625	-3.89862060546875	-0.705718994140625	9.861118087768554	-0.04967968444824218	0.13946224670410157	0.263214111328125	-4.863739013671875	-2.834320068359375	10.122684619140625	0.10354922180175781	-0.15682020874023436	2.86865234375	-4.49371337890625	-1.50299072265625	
296	1.184	0.0	0.0	0.0	0.0	0.003	0.003	0.006	0.006	9.926360083007811	0.34117373657226563	0.14963760375976562	1.129150390625	-3.24249267578125	-1.04522705078125	9.931148486328125	-0.020350714111328123	0.032920272827148434	1.163482666015625	-5.031585693359375	-3.36456298828125	10.162188946533202	0.6715735656738281	-0.3962403747558593	2.918243408203125	-4.61578369140625	-1.125335693359375	
297	1.188	0.0	0.0	0.0	0.0	0.006	0.003	0.003	0.003	9.706093530273437	0.037708676147460936	0.28371289672851563	0.827789306640625	-3.116607666015625	-0.560760498046875	9.6013472076416	0.277727392578125	0.36571430358886714	0.9918212890625	-4.96673583984375	-3.040313720703125	9.962871658325195	0.2316390106201172	0.004189852905273437	2.7923583984375	-4.726409912109375	-1.53350830078125	
298	1.192	0.0	0.0	0.0	0.0	0.006	0.006	0.003	0.003	10.072406384277343	0.22505495605468748	-0.06045359191894531	1.251220703125	-3.1280517578125	-1.0223388671875	10.064625228881836	-0.013766659545898436	-0.13108254089355467	1.4190673828125	-5.0506591796875	-2.99835205078125	10.329184512329102	0.5829881042480468	-0.5608417388916015	2.51007080078125	-4.90570068359375	-1.89208984375	
299	1.196	0.0	0.0	0.0	0.0	0.003	0.006	0.006	0.006	9.718064538574218	-0.17836802368164062	0.2154781494140625	0.896453857421875	-2.597808837890625	-1.13677978515625	9.631873278808593	0.2759317413330078	0.4537012145996093	0.823974609375	-4.810333251953125	-3.154754638671875	10.04247886352539	0.24361001892089842	-0.0430956298828125	2.788543701171875	-4.596710205078125	-1.659393310546875	
300	1.2	0.0	0.0	0.0	0.0	0.003	0.003	0.006	0.003	9.924564431762695	0.4908113403320312	0.31483751831054685	2.86102294921875	-3.82232666015625	-0.885009765625	9.90122096557617	-0.011971008300781249	0.02454056701660156	0.522613525390625	-4.70733642578125	-3.253936767578125	10.063428128051758	0.5351040710449219	-0.31663316955566406	2.635955810546875	-4.61578369140625	-1.94549560546875	
301	1.204	0.0	0.0	0.0	0.0	0.003	0.003	0.006	0.003	9.880271701049804	0.5680243438720702	0.24001871643066405	0.946044921875	-2.93731689453125	-1.2969970703125	9.610325463867188	0.2501940734863281	0.4848258361816406	1.3427734375	-4.96673583984375	-3.24249267578125	10.123881719970703	0.2597708801269531	-0.07422025146484375	2.8839111328125	-4.741668701171875	-1.544952392578125	
302	1.208	0.0	0.0	0.0	0.0	0.003	0.003	0.003	0.003	9.936535440063476	0.4375403533935547	0.23403321228027343	2.37274169921875	-3.44085693359375	-1.056671142578125	9.826402163696288	-0.11611878051757812	0.3525461944580078	0.32806396484375	-4.802703857421875	-3.345489501953125	10.17056865234375	0.41898529052734373	-0.4165910888671875	3.0670166015625	-4.878997802734375	-1.766204833984375	
303	1.212	0.0	0.0	0.0	0.0	0.003	0.003	0.003	0.003	9.894038360595703	0.6691793640136718	0.17597382202148437	0.67138671875	-3.01361083984375	-1.506805419921875	9.572018237304688	0.23882161560058593	0.6159083770751953	0.247955322265625	-5.542755126953125	-3.208160400390625	9.604339959716796	0.42796354675292964	0.19812018737792966	2.552032470703125	-4.802703857421875	-1.85394287109375	
304	1.216	0.0	0.0	0.0	0.0	0.003	0.006	0.006	0.003	9.875483297729492	0.28431144714355466	0.005985504150390624	8.43048095703125	-5.9814453125	-0.2593994140625	9.854534033203125	-0.011971008300781249	0.21727380065917967	0.377655029296875	-4.802703857421875	-3.276824951171875	10.132859976196288	0.42377369384765623	-0.43155484924316406	2.75421142578125	-4.67681884765625	-1.5106201171875	
305	1.22	0.0	0.0	0.0	0.0	0.006	0.003	0.006	0.006	9.950302099609374	0.412401235961914	-0.011372457885742187	2.349853515625	-3.41796875	-0.98419189453125	9.72943699645996	-0.008978256225585938	0.09516951599121093	0.09918212890625	-5.035400390625	-3.162384033203125	9.731831198120117	0.3447650390625	0.044292730712890624	2.315521240234375	-4.608154296875	-1.918792724609375	
306	1.224	0.0	0.0	0.0	0.0	0.003	0.003	0.003	0.003	9.830592016601562	0.03950432739257812	-0.12090718383789062	6.05010986328125	-5.428314208984375	-0.606536865234375	9.840168823242188	0.06823474731445311	0.1227028350830078	0.38909912109375	-4.82177734375	-3.139495849609375	9.76116016845703	0.41419688720703124	-0.08738836059570312	2.38037109375	-4.9896240234375	-1.926422119140625	
307	1.228	0.0	0.0	0.0	0.0	0.003	0.003	0.003	0.003	9.892242709350585	0.0987608184814453	-0.14425065002441406	1.949310302734375	-3.47900390625	-1.026153564453125	9.592368951416015	-0.01975216369628906	0.2771288421630859	-0.12969970703125	-4.6539306640625	-3.11279296875	9.588179098510741	0.39923312683105466	0.21966800231933592	2.4871826171875	-4.87518310546875	-1.8157958984375	
