	time	dac1	dac2	dac3	dac4	adc1.3	adc2.3	adc3.3	adc4.3	imu1accx	imu1accy	imu1accz	imu1gyrox	imu1gyroy	imu1gyroz	imu2accx	imu2accy	imu2accz	imu2gyrox	imu2gyroy	imu2gyroz	imu3accx	imu3accy	imu3accz	imu3gyrox	imu3gyroy	imu3gyroz	log
0	0.0	0.0	0.0	0.0	0.0	0.003	0.003	0.003	0.006	9.807847100830077	-0.9373299499511718	0.12868833923339842	2.1514892578125	-2.994537353515625	-0.45013427734375	10.00955859069824	0.09935936889648436	-0.143652099609375	0.5340576171875	-5.329132080078125	-4.119873046875	10.168174450683592	-0.08140285644531249	-0.4955997436523437	3.10516357421875	-4.63104248046875	-1.15203857421875	estabilizou em 8s, descida em 19s, parou em 35s. 1959 RPM
1	0.004	0.0	0.0	0.0	0.0	0.003	0.006	0.003	0.003	9.828197814941406	-0.7715314849853515	-0.06643909606933593	0.400543212890625	-2.246856689453125	-0.225067138671875	9.695319622802733	1.112106671142578	0.2292448089599609	1.010894775390625	-5.222320556640625	-3.940582275390625	9.811438403320311	0.5105635040283203	-0.013168109130859374	2.895355224609375	-4.741668701171875	-1.8310546875	Started
2	0.008	0.0	0.0	0.0	0.0	0.003	0.006	0.003	0.003	9.795277542114258	-0.8577227447509765	-0.07122749938964844	2.147674560546875	-3.10516357421875	-0.25177001953125	9.749189160156249	0.3968389251708984	0.1227028350830078	-0.0762939453125	-5.405426025390625	-3.7384033203125	10.172962854003906	-0.20051438903808594	0.09277531433105468	2.567291259765625	-4.673004150390625	-1.28173828125	IMU1|LSM6DS3|0x6A|I2C-1|±2g (±19,6m/s²)|±125º/s|400Hz
3	0.012	0.0	0.0	0.0	0.0	0.006	0.003	0.003	0.003	9.833584768676758	-0.7805097412109374	-0.10115502014160156	0.52642822265625	-2.17437744140625	-0.213623046875	9.695918173217773	1.1061211669921875	0.22565350646972654	0.659942626953125	-5.25665283203125	-3.89862060546875	9.79408044128418	0.43454760131835934	0.00239420166015625	2.67791748046875	-4.390716552734375	-1.918792724609375	IMU2|LSM6DS3|0x6B|I2C-1|±2g (±19,6m/s²)|±125º/s|400Hz
4	0.016	0.0	0.0	0.0	0.0	0.003	0.003	0.003	0.006	9.80066449584961	-0.8397662322998046	-0.09217676391601562	2.105712890625	-3.1280517578125	0.0152587890625	9.76116016845703	0.4082113830566406	0.1352723937988281	-0.14495849609375	-5.558013916015625	-3.810882568359375	9.715670336914062	0.028131869506835935	0.11731588134765625	2.574920654296875	-5.023956298828125	-1.44195556640625	IMU3|LSM6DS3|0x6B|I2C-2|±2g (±19,6m/s²)|±125º/s|400Hz
5	0.02	0.0	0.0	0.0	0.0	0.003	0.003	0.003	0.003	9.853336932373047	-0.8265981231689452	-0.10115502014160156	3.307342529296875	-3.82232666015625	-0.67901611328125	9.537302313232422	1.0007762939453124	0.41060558471679687	0.274658203125	-4.810333251953125	-4.581451416015625	9.791087689208984	0.35793314819335936	0.044292730712890624	2.93731689453125	-4.421234130859375	-1.6632080078125	ADC|ADS1015|0|0|1|0|±6,144 V|2400 SPS
6	0.024	0.0	0.0	0.0	0.0	0.003	0.003	0.003	0.006	9.795876092529296	-0.9205705383300781	-0.08978256225585937	2.15911865234375	-3.18145751953125	-0.2288818359375	9.783905084228515	0.3028665100097656	0.15203180541992187	-0.118255615234375	-5.11932373046875	-4.016876220703125	9.707290631103515	-0.011372457885742187	0.13587094421386717	2.471923828125	-4.955291748046875	-1.41143798828125	Gen1|Disabled
7	0.028	0.0	0.0	0.0	0.0	0.006	0.003	0.003	0.006	9.776123928833007	-0.5548562347412109	0.14245499877929688	3.27301025390625	-3.749847412109375	-0.492095947265625	9.542090716552734	1.0869675537109373	0.42317514343261714	0.392913818359375	-4.8675537109375	-4.619598388671875	9.746794958496093	0.08319850769042968	0.029328970336914062	2.5787353515625	-4.329681396484375	-2.4871826171875	Gen2|Enabled|Noise|0.0|10.0|1668
8	0.032	0.0	0.0	0.0	0.0	0.003	0.006	0.165	4.62	9.80724855041504	-0.8798691101074219	-0.1083376251220703	2.063751220703125	-3.192901611328125	-0.0457763671875	9.694122521972655	0.7990648040771484	0.02154781494140625	0.164031982421875	-5.6304931640625	-3.07464599609375	9.681552963256836	-0.03411737365722656	0.18255787658691405	2.57110595703125	-4.7760009765625	-1.377105712890625	Gen3|Enabled|Noise|0.0|10.0|128
9	0.036000000000000004	0.0	0.0	0.0	0.0	4.644	4.668	4.671	4.638	9.780912332153319	-0.623090982055664	0.15562310791015624	3.83758544921875	-3.68499755859375	-0.1068115234375	9.542090716552734	0.9702502227783203	0.44891281127929683	0.4425048828125	-4.96673583984375	-4.61578369140625	9.756970315551758	-0.11432312927246092	0.032920272827148434	2.323150634765625	-4.253387451171875	-2.349853515625	Gen4|Enabled|Noise|0.0|10.0|128
10	0.04	0.0	0.0	0.0	0.0	4.644	4.674	4.674	4.635	9.943718045043944	-0.5392939239501953	-0.05805939025878906	2.86102294921875	-3.59344482421875	-0.324249267578125	9.725247143554688	0.7422025146484375	0.03172317199707031	0.09918212890625	-5.5694580078125	-3.2806396484375	9.885658654785155	0.4525041137695312	-0.003591302490234375	2.73895263671875	-4.756927490234375	-1.2969970703125	Ctrl|Disabled
11	0.044	0.0	0.0	0.0	0.0	4.647	4.674	4.674	4.644	9.769539874267577	-0.6416460449218749	0.15741875915527342	3.482818603515625	-3.631591796875	-0.48828125	9.81263550415039	0.5446808776855468	0.08020575561523437	0.335693359375	-5.306243896484375	-4.207611083984375	9.753379013061522	-0.06703764648437499	0.023942016601562498	2.28118896484375	-4.489898681640625	-2.399444580078125	
12	0.048	0.0	0.0	0.0	0.0	4.638	4.674	4.674	4.647	9.941922393798828	-0.49799394531249996	-0.028131869506835935	2.948760986328125	-3.803253173828125	-0.179290771484375	9.690531219482422	0.7637503295898437	0.06105214233398437	0.125885009765625	-5.458831787109375	-3.276824951171875	9.867702142333984	0.469862075805664	-0.031124621582031248	2.651214599609375	-4.550933837890625	-1.15966796875	
13	0.052000000000000005	0.0	0.0	0.0	0.0	4.647	4.674	4.6770000000000005	4.638	9.797073193359374	-0.6727706665039062	0.1274912384033203	3.31878662109375	-3.66973876953125	-0.49591064453125	9.814431155395507	0.5781997009277343	0.086191259765625	0.232696533203125	-5.069732666015625	-4.3487548828125	10.24000050048828	-0.17178396911621094	-0.5506663818359374	2.986907958984375	-4.405975341796875	-1.316070556640625	
14	0.056	0.0	0.0	0.0	0.0	4.647	4.674	4.6770000000000005	4.632	9.956886154174803	-0.5309142181396485	-0.002992752075195312	2.8839111328125	-3.45611572265625	-0.385284423828125	9.746794958496093	0.8607154968261719	0.3555389465332031	-0.34332275390625	-5.489349365234375	-3.139495849609375	9.86411083984375	0.4704606262207031	-0.009576806640625	2.567291259765625	-4.57763671875	-1.27410888671875	
15	0.06	0.0	0.0	0.0	0.0	4.65	4.674	4.674	4.626	9.99220062866211	-0.594959112548828	-0.22206220397949217	4.573822021484375	-4.6234130859375	-1.19781494140625	9.795876092529296	0.6290764862060546	0.10175357055664062	-0.026702880859375	-4.8828125	-4.405975341796875	10.207080227661132	-0.09636661682128905	-0.5811924530029297	2.8076171875	-4.589080810546875	-1.495361328125	
16	0.064	0.0	0.0	0.0	0.0	4.65	4.671	4.674	4.641	9.95987890625	-0.5063736511230469	0.04129997863769531	2.986907958984375	-3.673553466796875	-0.09918212890625	9.742605105590819	0.9002198242187499	0.3854664672851562	-0.507354736328125	-5.6610107421875	-3.27301025390625	9.867103591918944	0.45190556335449217	0.011372457885742187	2.773284912109375	-4.44793701171875	-1.434326171875	
17	0.068	0.0	0.0	0.0	0.0	4.647	4.6770000000000005	4.6770000000000005	4.635	9.97783541870117	-0.5327098693847656	-0.18255787658691405	4.87518310546875	-4.734039306640625	-1.16729736328125	9.787496386718749	0.5243301635742187	0.1227028350830078	0.69427490234375	-5.176544189453125	-4.215240478515625	10.214262832641602	-0.07003039855957031	-0.5704185455322265	2.971649169921875	-4.291534423828125	-1.483917236328125	
18	0.07200000000000001	0.0	0.0	0.0	0.0	4.647	4.674	4.674	4.644	9.925162982177733	-0.8355763793945312	0.08559270935058594	4.344940185546875	-4.711151123046875	-0.67138671875	9.78031378173828	0.6859387756347656	0.3447650390625	-0.64849853515625	-5.420684814453125	-3.658294677734375	10.178948358154296	0.4447229583740234	-0.39923312683105466	2.899169921875	-4.6234130859375	-1.45721435546875	
19	0.076	0.0	0.0	0.0	0.0	4.632	4.6770000000000005	4.674	4.65	9.995193380737303	-0.364517202758789	-0.18854338073730467	4.497528076171875	-4.46319580078125	-0.579833984375	10.057442623901366	0.25917232971191406	-0.1801636749267578	0.63323974609375	-5.08880615234375	-4.1961669921875	10.237606298828124	-0.05087678527832031	-0.5805939025878906	2.918243408203125	-4.619598388671875	-1.312255859375	
20	0.08	0.0	0.0	0.0	0.0	4.65	4.674	4.6770000000000005	4.638	9.783306533813477	-0.23343466186523437	0.13168109130859373	5.260467529296875	-5.016326904296875	-1.277923583984375	9.695319622802733	1.1893196746826171	0.32441432495117184	-0.67138671875	-5.512237548828125	-1.308441162109375	10.155006341552733	0.36272155151367186	-0.40880993347167965	2.96783447265625	-4.657745361328125	-1.605987548828125	
21	0.084	0.0	0.0	0.0	0.0	4.644	4.6770000000000005	4.6770000000000005	4.626	9.980229620361328	-0.19093758239746092	-0.1562216583251953	6.305694580078125	-5.153656005859375	-1.331329345703125	10.1131078125	-0.31064766540527344	-0.1879448303222656	0.858306884765625	-5.123138427734375	-5.27191162109375	10.17655415649414	0.24839842224121092	-0.4961982940673828	3.147125244140625	-4.7760009765625	-1.018524169921875	
22	0.088	0.0	0.0	0.0	0.0	4.647	4.674	4.6770000000000005	4.626	9.732429748535155	-0.43993455505371093	0.16998831787109375	3.559112548828125	-4.383087158203125	-0.7171630859375	9.686939916992188	1.5263035583496092	0.21966800231933592	0.537872314453125	-5.45501708984375	-2.410888671875	10.229226593017577	0.2914940521240234	-0.3920505218505859	2.90679931640625	-4.711151123046875	-1.430511474609375	
23	0.092	0.0	0.0	0.0	0.0	4.647	4.674	4.674	4.638	9.861716638183593	-0.5021837982177734	0.028131869506835935	4.055023193359375	-4.451751708984375	-1.010894775390625	9.967061511230469	1.0660182891845702	-0.19153613281249998	1.0986328125	-5.04302978515625	-4.894256591796875	10.218452685546874	0.26755203552246093	-0.5159504577636719	2.956390380859375	-4.795074462890625	-0.96893310546875	
24	0.096	0.0	0.0	0.0	0.0	4.641	4.6770000000000005	4.6770000000000005	4.644	9.679158761596678	-0.46507367248535153	0.17417817077636719	4.444122314453125	-4.6539306640625	-0.9002685546875	9.69831237487793	0.5710170959472656	0.23343466186523437	0.55694580078125	-5.828857421875	-2.910614013671875	9.750386260986328	0.0939724151611328	0.086191259765625	2.62451171875	-4.589080810546875	-1.636505126953125	
25	0.1	0.0	0.0	0.0	0.0	4.644	4.674	4.674	4.65	9.868300692749022	-0.5901707092285156	0.02633621826171875	3.398895263671875	-3.80706787109375	-0.888824462890625	9.897031112670899	0.8349778289794921	0.04668693237304687	0.484466552734375	-5.222320556640625	-4.756927490234375	10.263942517089843	0.26396073303222656	-0.5267243652343749	3.078460693359375	-4.520416259765625	-0.896453857421875	
26	0.10400000000000001	0.0	0.0	0.0	0.0	4.638	4.6770000000000005	4.674	4.647	9.699509475708007	-0.5668272430419922	0.15203180541992187	4.878997802734375	-4.9285888671875	-1.19781494140625	9.81862100830078	0.24361001892089842	0.16220716247558592	-0.05340576171875	-5.367279052734375	-3.513336181640625	9.835380419921874	0.015562310791015624	0.0718260498046875	3.04412841796875	-4.741668701171875	-1.781463623046875	
27	0.108	0.0	0.0	0.0	0.0	4.647	4.674	4.674	4.638	9.874884747314452	-0.4746504791259765	-0.007781155395507812	2.6092529296875	-3.39508056640625	-0.614166259765625	9.823409411621093	1.1552023010253905	0.028131869506835935	1.0528564453125	-5.18035888671875	-4.486083984375	10.188525164794921	0.3489548919677734	-0.5578489868164063	3.261566162109375	-4.711151123046875	-1.041412353515625	
28	0.112	0.0	0.0	0.0	0.0	4.647	4.674	4.674	4.6290000000000004	9.673771807861328	-0.8774749084472656	0.24899697265624998	0.949859619140625	-2.44140625	-0.171661376953125	9.618705169677733	0.3758896606445312	0.43035774841308594	-0.22125244140625	-5.390167236328125	-4.123687744140625	9.785700735473633	0.03890577697753906	0.059256491088867186	2.941131591796875	-4.5013427734375	-1.583099365234375	
29	0.116	0.0	0.0	0.0	0.0	4.65	4.674	4.674	4.626	9.83238766784668	-0.6536170532226562	0.062249243164062495	1.79290771484375	-3.154754638671875	-0.453948974609375	9.907206469726562	0.824203921508789	-0.030526071166992186	0.87738037109375	-5.0048828125	-3.936767578125	9.789890588378906	0.33099837951660155	0.07601590270996093	2.674102783203125	-4.817962646484375	-1.5869140625	
30	0.12	0.0	0.0	0.0	0.0	4.65	4.671	4.674	4.638	9.6779616607666	-0.862511148071289	0.21009119567871093	1.255035400390625	-2.2125244140625	0.0152587890625	9.612121115112304	0.6278793853759765	0.37768531188964843	-0.23651123046875	-5.10406494140625	-4.398345947265625	9.781510882568359	0.0796072052001953	0.009576806640625	2.979278564453125	-4.566192626953125	-1.83868408203125	
31	0.124	0.0	0.0	0.0	0.0	4.641	4.674	4.674	4.644	9.79348189086914	-0.6937199310302734	0.11851298217773437	1.28936767578125	-2.811431884765625	-0.316619873046875	9.596558804321289	0.6931213806152343	0.3136404174804687	0.072479248046875	-5.207061767578125	-3.757476806640625	9.732429748535155	0.4004302276611328	0.06404489440917968	2.391815185546875	-4.718780517578125	-1.67083740234375	
32	0.128	0.0	0.0	0.0	0.0	4.647	4.6770000000000005	4.674	4.644	9.719261639404296	-0.795473501586914	0.14604630126953125	1.36566162109375	-2.4566650390625	-0.1983642578125	9.65342109375	0.8361749298095703	0.36571430358886714	0.152587890625	-5.329132080078125	-4.299163818359375	9.7545761138916	-0.00239420166015625	0.03172317199707031	2.056121826171875	-4.09698486328125	-1.8157958984375	
33	0.132	0.0	0.0	0.0	0.0	4.641	4.674	4.674	4.65	9.889848507690429	-0.5123591552734374	-0.12689268798828124	1.163482666015625	-2.498626708984375	-0.484466552734375	9.638457333374022	0.5027823486328125	0.27353753967285155	0.003814697265625	-5.04302978515625	-3.68499755859375	9.758765966796874	0.3555389465332031	0.04967968444824218	2.6092529296875	-5.0811767578125	-1.76239013671875	
34	0.136	0.0	0.0	0.0	0.0	4.65	4.674	4.6770000000000005	4.638	9.675567459106444	-0.8164227661132812	0.12988544006347655	0.5035400390625	-2.31170654296875	-0.019073486328125	9.609128363037108	0.8116343627929687	0.2316390106201172	-0.1983642578125	-4.955291748046875	-4.150390625	9.688137017822266	0.086191259765625	0.05805939025878906	2.25067138671875	-4.28009033203125	-1.827239990234375	
35	0.14	0.0	0.0	0.0	0.0	4.647	4.674	4.674	4.626	9.89523546142578	-0.5099649536132812	-0.15023615417480468	1.453399658203125	-3.22723388671875	0.041961669921875	9.665392102050781	0.5105635040283203	0.2537853759765625	0.03814697265625	-5.275726318359375	-4.23431396484375	9.85692823486328	0.27174188842773433	0.009576806640625	2.4871826171875	-4.596710205078125	-1.705169677734375	
36	0.14400000000000002	0.0	0.0	0.0	0.0	4.6530000000000005	4.674	4.6770000000000005	4.626	10.035296258544921	-0.39923312683105466	-0.24061726684570311	4.66156005859375	-4.489898681640625	-0.820159912109375	9.651625442504882	0.7553706237792969	0.26815058593749996	-0.213623046875	-4.993438720703125	-3.948211669921875	9.727641345214844	0.09576806640624999	0.05746083984375	2.349853515625	-4.4403076171875	-1.705169677734375	
37	0.148	0.0	0.0	0.0	0.0	4.647	4.674	4.674	4.638	9.90900212097168	-0.4333505004882812	-0.14425065002441406	1.79290771484375	-3.314971923828125	-0.29754638671875	9.603741409301758	0.6021417175292968	0.2980781066894531	0.064849853515625	-5.2642822265625	-3.551483154296875	9.803058697509766	0.2214636535644531	0.03531447448730469	2.44140625	-4.49371337890625	-1.583099365234375	
38	0.152	0.0	0.0	0.0	0.0	4.647	4.6770000000000005	4.674	4.644	9.989806427001952	-0.4369418029785156	-0.15382745666503905	4.52423095703125	-4.24957275390625	-0.54931640625	9.634267480468749	0.63206923828125	0.2920926025390625	-0.1068115234375	-4.93621826171875	-3.84521484375	9.737218151855469	0.10235212097167969	0.08319850769042968	2.83050537109375	-4.46319580078125	-1.59454345703125	
39	0.156	0.0	0.0	0.0	0.0	4.647	4.6770000000000005	0.003	0.006	9.938331091308592	-0.507570751953125	-0.19213468322753904	2.105712890625	-3.231048583984375	-0.156402587890625	9.777919580078125	0.5781997009277343	0.22445640563964842	0.171661376953125	-5.374908447265625	-3.665924072265625	9.867103591918944	0.10654197387695312	0.06045359191894531	2.407073974609375	-4.64630126953125	-1.5869140625	
40	0.16	0.0	0.0	0.0	0.0	0.0	0.003	0.003	0.006	9.976039767456054	-0.44412440795898434	-0.17178396911621094	4.95147705078125	-4.6844482421875	-0.99945068359375	9.606734161376952	0.5817910034179687	0.33399113159179683	-0.492095947265625	-5.184173583984375	-4.05120849609375	10.236409197998046	0.23822306518554687	-0.6117185241699218	2.712249755859375	-4.60052490234375	-1.53350830078125	
41	0.164	0.0	0.0	0.0	0.0	0.006	0.003	0.003	0.003	9.839570272827148	-0.27832594299316404	0.15023615417480468	5.65338134765625	-5.4168701171875	-1.071929931640625	9.720458740234374	0.6153098266601562	0.28371289672851563	0.2593994140625	-5.451202392578125	-3.47137451171875	9.788094937133788	0.1131260284423828	0.09756371765136718	2.460479736328125	-4.764556884765625	-1.743316650390625	
42	0.168	0.0	0.0	0.0	0.0	0.006	0.003	0.003	0.003	10.011354241943359	-0.40282442932128903	-0.19033903198242186	5.153656005859375	-4.57000732421875	-0.743865966796875	10.006565838623047	0.6183025787353515	-0.1484405029296875	0.537872314453125	-5.43212890625	-3.826141357421875	10.269928021240235	0.22026655273437498	-0.5692214447021484	2.7008056640625	-4.299163818359375	-1.438140869140625	
43	0.17200000000000001	0.0	0.0	0.0	0.0	0.009000000000000001	0.003	0.003	0.003	9.865307940673828	-0.4423287567138672	0.07721300354003906	5.474090576171875	-5.077362060546875	-0.820159912109375	9.763554370117188	0.508169302368164	0.23582886352539062	0.133514404296875	-5.290985107421875	-3.459930419921875	10.266336718749999	0.12389993591308593	-0.5141548065185546	3.017425537109375	-4.589080810546875	-1.129150390625	
44	0.176	0.0	0.0	0.0	0.0	0.009000000000000001	0.003	0.006	0.003	9.977236868286132	-0.22565350646972654	-0.18435352783203124	4.383087158203125	-4.177093505859375	-1.163482666015625	9.881468801879882	0.7134720947265625	-0.08559270935058594	0.335693359375	-5.008697509765625	-3.60870361328125	10.137049829101562	0.2747346405029297	-0.536899722290039	2.72369384765625	-4.4708251953125	-1.41143798828125	
45	0.18	0.0	0.0	0.0	0.0	0.003	0.003	0.003	0.006	9.816226806640625	-0.3597287994384765	0.1927332336425781	6.12640380859375	-5.43212890625	-1.2054443359375	9.785102185058593	0.7044938385009765	0.22086510314941404	0.32806396484375	-5.2947998046875	-3.42559814453125	10.20229182434082	0.21787235107421873	-0.49859249572753905	3.086090087890625	-4.39453125	-1.163482666015625	
46	0.184	0.0	0.0	0.0	0.0	0.006	0.003	0.003	0.003	9.994594830322265	-0.6410474945068358	-0.143652099609375	3.772735595703125	-3.83758544921875	-0.6103515625	9.97184991455078	0.6536170532226562	-0.11851298217773437	0.606536865234375	-4.9896240234375	-3.437042236328125	10.340556970214843	0.1005564697265625	-0.6362590911865234	3.30352783203125	-4.848480224609375	-1.277923583984375	
47	0.188	0.0	0.0	0.0	0.0	0.0	0.003	0.003	0.003	9.795277542114258	-0.2376245147705078	0.18255787658691405	5.756378173828125	-5.30242919921875	-1.190185546875	9.749189160156249	0.7236474517822266	0.2232593048095703	0.091552734375	-5.168914794921875	-3.5858154296875	10.149020837402343	0.20231004028320312	-0.4417302062988281	3.040313720703125	-4.50897216796875	-1.049041748046875	
48	0.192	0.0	0.0	0.0	0.0	0.003	0.003	0.003	0.003	9.934739788818359	-0.7032967376708984	-0.025139117431640625	3.36456298828125	-3.95965576171875	-0.9918212890625	9.91438907470703	0.7314286071777343	-0.05327098693847656	0.598907470703125	-5.4473876953125	-4.093170166015625	10.190919366455077	0.21966800231933592	-0.6039373687744141	3.391265869140625	-4.512786865234375	-1.201629638671875	
49	0.196	0.0	0.0	0.0	0.0	0.006	0.006	0.006	0.006	9.77492682800293	-0.7386112121582031	0.15981296081542967	2.040863037109375	-2.773284912109375	-0.64849853515625	9.87009634399414	0.7236474517822266	0.17357962036132812	0.225067138671875	-5.245208740234375	-3.673553466796875	10.340556970214843	0.13766659545898435	-0.48183308410644526	2.811431884765625	-4.558563232421875	-1.373291015625	
50	0.2	0.0	0.0	0.0	0.0	0.003	0.003	0.003	0.006	9.889249957275391	-0.5219359619140624	0.025139117431640625	3.5247802734375	-4.364013671875	-1.049041748046875	9.97903251953125	0.5985504150390625	-0.11372457885742186	0.46539306640625	-5.30242919921875	-4.08935546875	10.207080227661132	0.08798691101074219	-0.5231330627441406	3.0975341796875	-4.35638427734375	-1.35040283203125	
51	0.20400000000000001	0.0	0.0	0.0	0.0	0.003	0.006	0.006	0.003	9.6917283203125	-0.8637082489013671	0.2867056488037109	1.3885498046875	-2.66265869140625	-0.514984130859375	9.676166009521484	0.8277952239990234	0.1975216369628906	0.186920166015625	-4.94384765625	-4.0283203125	9.715670336914062	0.2753331909179687	0.0718260498046875	2.73895263671875	-4.642486572265625	-1.605987548828125	
52	0.20800000000000002	0.0	0.0	0.0	0.0	0.003	0.003	0.006	0.003	9.938331091308592	-0.7062894897460937	0.005985504150390624	2.2735595703125	-3.421783447265625	-0.16021728515625	9.994594830322265	0.6206967803955078	0.06823474731445311	0.408172607421875	-5.573272705078125	-4.093170166015625	10.304643945312499	0.07481880187988281	-0.47285482788085936	3.23486328125	-4.6539306640625	-1.285552978515625	
53	0.212	0.0	0.0	0.0	0.0	0.003	0.003	0.003	0.006	9.797073193359374	-0.6039373687744141	0.1879448303222656	2.15911865234375	-3.040313720703125	-0.843048095703125	9.743203656005859	0.6871358764648438	0.2998737579345703	0.293731689453125	-5.222320556640625	-4.150390625	9.846752877807617	0.11013327636718749	0.19812018737792966	2.689361572265625	-4.84466552734375	-1.605987548828125	
54	0.216	0.0	0.0	0.0	0.0	0.003	0.003	0.003	0.006	9.822810861206055	-0.8170213165283202	-0.028131869506835935	1.373291015625	-2.918243408203125	-0.316619873046875	9.527725506591796	0.5692214447021484	0.42377369384765623	-0.1373291015625	-5.222320556640625	-3.917694091796875	9.658209497070311	0.09816226806640624	0.022146365356445312	2.513885498046875	-4.550933837890625	-1.972198486328125	
55	0.22	0.0	0.0	0.0	0.0	0.006	0.003	0.003	0.006	9.78031378173828	-0.8301894256591796	0.22445640563964842	0.476837158203125	-2.155303955078125	0.02288818359375	9.7162688873291	0.8008604553222656	0.29927520751953124	0.29754638671875	-5.115509033203125	-4.0435791015625	9.808445651245117	0.20350714111328125	0.2184709014892578	2.73895263671875	-4.69207763671875	-1.57928466796875	
56	0.224	0.0	0.0	0.0	0.0	0.009000000000000001	0.003	0.003	0.003	9.913790524291992	-0.44592005920410155	-0.10953472595214843	2.66265869140625	-3.559112548828125	-0.827789306640625	9.733028298950195	0.41958384094238277	0.29448680419921874	-0.011444091796875	-5.401611328125	-4.180908203125	9.8311905670166	-0.09516951599121093	0.037110125732421874	2.712249755859375	-4.718780517578125	-1.789093017578125	
57	0.228	0.0	0.0	0.0	0.0	0.003	0.006	0.006	0.006	9.80066449584961	-0.699106884765625	0.14724340209960937	3.54766845703125	-3.787994384765625	-0.522613525390625	9.655216744995117	0.8421604339599609	0.2657563842773437	0.102996826171875	-5.016326904296875	-4.09698486328125	9.704297879028319	0.26695348510742184	0.13168109130859373	2.70843505859375	-4.12750244140625	-1.79290771484375	
58	0.232	0.0	0.0	0.0	0.0	0.009000000000000001	0.006	0.003	0.003	9.865906491088866	-0.6949170318603515	-0.10115502014160156	1.373291015625	-2.93731689453125	0.14495849609375	9.572616787719726	0.6236895324707031	0.4525041137695312	-0.148773193359375	-5.30242919921875	-4.0435791015625	9.626486325073241	0.07601590270996093	0.08559270935058594	2.43377685546875	-4.6539306640625	-1.89971923828125	
59	0.23600000000000002	0.0	0.0	0.0	0.0	0.003	0.003	0.003	0.003	9.95389340209961	-0.26755203552246093	-0.032920272827148434	4.306793212890625	-4.08172607421875	-0.58746337890625	9.718064538574218	0.5039794494628906	0.3525461944580078	0.217437744140625	-5.069732666015625	-3.879547119140625	9.807847100830077	0.18914193115234373	0.17178396911621094	2.300262451171875	-4.3792724609375	-1.850128173828125	
60	0.24	0.0	0.0	0.0	0.0	0.003	0.003	0.006	0.006	9.937732540893554	-0.3363853332519531	-0.22026655273437498	3.3721923828125	-3.673553466796875	-0.911712646484375	9.637858782958984	0.55545478515625	0.27952304382324217	0.576019287109375	-5.36346435546875	-4.0740966796875	9.688735568237304	0.028730419921875	0.030526071166992186	2.742767333984375	-4.47845458984375	-1.575469970703125	
61	0.244	0.0	0.0	0.0	0.0	0.006	0.003	0.003	0.006	9.855731134033203	-0.7715314849853515	0.04249707946777344	3.711700439453125	-3.772735595703125	-0.156402587890625	9.520542901611327	0.7200561492919921	0.44113165588378905	-0.2593994140625	-5.046844482421875	-4.207611083984375	9.610325463867188	0.40402153015136716	0.17118541870117188	2.685546875	-4.6539306640625	-1.750946044921875	
62	0.248	0.0	0.0	0.0	0.0	0.006	0.003	0.003	0.003	9.97184991455078	-0.2765302917480469	-0.10414777221679687	5.2490234375	-4.924774169921875	-0.507354736328125	9.738415252685547	0.5231330627441406	0.10594342346191406	0.293731689453125	-5.51605224609375	-3.54766845703125	9.867103591918944	0.015562310791015624	0.007781155395507812	2.681732177734375	-4.589080810546875	-1.506805419921875	
63	0.252	0.0	0.0	0.0	0.0	0.003	0.003	0.003	0.009000000000000001	10.06163247680664	-0.030526071166992186	-0.1975216369628906	5.57708740234375	-4.909515380859375	-1.079559326171875	9.71028338317871	0.6386532928466796	0.19512743530273435	-0.247955322265625	-4.913330078125	-3.7994384765625	9.804255798339844	0.2747346405029297	0.09516951599121093	2.498626708984375	-4.302978515625	-1.735687255859375	
64	0.256	0.0	0.0	0.0	0.0	0.003	0.003	0.006	0.003	9.912593423461914	-0.757166275024414	-0.020949264526367185	6.06536865234375	-5.588531494140625	-1.590728759765625	9.654618194580078	0.6625953094482422	0.04249707946777344	0.408172607421875	-5.207061767578125	-3.307342529296875	9.758765966796874	0.14185644836425781	-0.06943184814453125	2.429962158203125	-4.604339599609375	-1.678466796875	
65	0.26	0.0	0.0	0.0	0.0	0.009000000000000001	0.006	0.003	0.006	9.907206469726562	-0.8774749084472656	-0.02454056701660156	5.096435546875	-4.787445068359375	-0.6866455078125	9.849147079467773	0.7050923889160156	0.017956512451171875	0.40435791015625	-5.290985107421875	-3.814697265625	10.161590396118163	0.4070142822265625	-0.479438882446289	3.017425537109375	-4.283905029296875	-1.491546630859375	
66	0.264	0.0	0.0	0.0	0.0	0.0	0.003	0.003	0.003	10.008361489868163	-0.8451531860351562	-0.10354922180175781	3.475189208984375	-4.4708251953125	-0.331878662109375	9.823409411621093	0.4572925170898437	-0.0017956512451171875	0.18310546875	-5.3253173828125	-3.574371337890625	9.97903251953125	-0.07841010437011718	-0.08738836059570312	2.544403076171875	-4.711151123046875	-1.483917236328125	
67	0.268	0.0	0.0	0.0	0.0	0.003	0.003	0.003	0.003	9.865307940673828	-0.20949264526367187	0.007781155395507812	5.153656005859375	-4.558563232421875	-1.39617919921875	9.866505041503906	0.776319888305664	-0.10354922180175781	0.743865966796875	-4.924774169921875	-3.780364990234375	10.188525164794921	0.4171896392822265	-0.5380968231201172	2.796173095703125	-4.405975341796875	-1.461029052734375	
68	0.272	0.0	0.0	0.0	0.0	0.003	0.006	0.003	0.006	9.839570272827148	-0.4542997650146484	0.08678981018066406	7.427215576171875	-6.21795654296875	-1.949310302734375	9.6779616607666	0.8122329132080077	0.3716998077392578	0.316619873046875	-5.523681640625	-3.4027099609375	10.104129556274414	0.2861070983886719	-0.2861070983886719	3.246307373046875	-4.7607421875	-1.163482666015625	
69	0.276	0.0	0.0	0.0	0.0	0.006	0.003	0.003	0.003	9.706692080688477	-1.3820529083251953	0.28431144714355466	1.0986328125	-2.63214111328125	-0.1373291015625	9.952696301269532	0.651821401977539	-0.037708676147460936	0.568389892578125	-5.405426025390625	-3.696441650390625	10.358513482666016	0.26755203552246093	-0.5069722015380859	2.735137939453125	-4.337310791015625	-1.76239013671875	
70	0.28	0.0	0.0	0.0	0.0	0.003	0.006	0.006	0.003	9.784503634643555	-1.5544354278564452	0.13407529296874998	-1.42669677734375	-1.216888427734375	-0.370025634765625	9.795876092529296	0.7697358337402344	0.3806780639648437	-0.034332275390625	-5.107879638671875	-3.91387939453125	10.344148272705077	0.1927332336425781	-0.4531026641845703	3.021240234375	-4.66156005859375	-1.018524169921875	
71	0.28400000000000003	0.0	0.0	0.0	0.0	0.003	0.003	0.003	0.003	9.708487731933593	-0.3507505432128906	0.24839842224121092	0.6256103515625	-2.3040771484375	0.29754638671875	9.788693487548828	0.7936778503417968	0.1388636962890625	0.091552734375	-5.084991455078125	-4.138946533203125	10.13824692993164	0.4465186096191406	-0.4950011932373047	2.788543701171875	-4.573822021484375	-1.567840576171875	
72	0.28800000000000003	0.0	0.0	0.0	0.0	0.003	0.003	0.003	0.003	9.610924014282226	-0.047884033203124995	0.4674678741455078	3.177642822265625	-3.31878662109375	-0.949859619140625	9.828197814941406	0.5746083984375	0.38367081604003905	0.171661376953125	-5.2337646484375	-3.60107421875	10.27830772705078	0.1927332336425781	-0.34656069030761716	3.1280517578125	-4.673004150390625	-0.865936279296875	
73	0.292	0.0	0.0	0.0	0.0	0.003	0.003	0.003	0.003	9.815029705810547	-0.48243163452148435	0.22266075439453123	3.643035888671875	-3.5552978515625	-1.209259033203125	9.993397729492187	0.8104372619628906	0.06643909606933593	0.324249267578125	-5.115509033203125	-4.123687744140625	10.296264239501953	-0.016759411621093748	-0.6015431671142578	3.215789794921875	-4.489898681640625	-1.499176025390625	
74	0.296	0.0	0.0	0.0	0.0	0.006	0.003	0.003	0.009000000000000001	9.624690673828125	-0.6356605407714844	0.43454760131835934	-0.762939453125	-1.483917236328125	0.270843505859375	9.66000514831543	0.7326257080078125	0.297479556274414	-0.141143798828125	-5.096435546875	-4.161834716796875	10.120290417480469	0.354341845703125	-0.3321954803466797	3.139495849609375	-4.47845458984375	-0.904083251953125	
75	0.3	0.0	0.0	0.0	0.0	0.003	0.006	0.003	0.003	9.981426721191406	-0.37229835815429685	-0.33399113159179683	0.17547607421875	-2.2125244140625	0.392913818359375	9.817423907470703	0.8858546142578124	0.18555062866210936	0.08392333984375	-5.031585693359375	-4.0435791015625	10.053851321411132	0.004189852905273437	-0.4513070129394531	3.223419189453125	-4.444122314453125	-1.495361328125	
76	0.304	0.0	0.0	0.0	0.0	0.003	0.003	0.006	0.006	9.847351428222655	-0.39324762268066404	0.02633621826171875	0.240325927734375	-1.995086669921875	0.408172607421875	9.919177478027343	0.5434837768554687	-0.016759411621093748	0.18310546875	-5.405426025390625	-3.85284423828125	9.87727894897461	0.35613749694824215	-0.008978256225585938	2.96783447265625	-4.608154296875	-1.194000244140625	
77	0.308	0.0	0.0	0.0	0.0	0.006	0.003	0.003	0.006	10.090362896728514	0.016160861206054686	-0.565630142211914	5.817413330078125	-5.298614501953125	-1.110076904296875	9.883264453125	0.8828618621826171	-0.008379705810546874	0.995635986328125	-5.523681640625	-4.0130615234375	10.09993970336914	-0.001197100830078125	-0.5919663604736328	2.849578857421875	-4.390716552734375	-1.605987548828125	
78	0.312	0.0	0.0	0.0	0.0	0.003	0.003	0.003	0.006	9.86411083984375	0.076614453125	-0.10594342346191406	4.8065185546875	-4.291534423828125	-0.797271728515625	9.693523971557617	0.6703764648437499	0.1753752716064453	0.713348388671875	-5.1422119140625	-3.742218017578125	9.680954412841796	0.5027823486328125	0.08738836059570312	2.8228759765625	-4.5623779296875	-1.373291015625	
79	0.316	0.0	0.0	0.0	0.0	0.0	0.003	0.006	0.003	9.937133990478515	-0.3178302703857422	-0.29568390502929687	5.3558349609375	-5.24139404296875	-1.02996826171875	9.83178911743164	0.7152677459716796	-0.19632453613281248	0.202178955078125	-5.260467529296875	-3.871917724609375	9.770138424682617	-0.07781155395507812	-0.06284779357910156	2.6702880859375	-5.02777099609375	-1.6937255859375	
80	0.32	0.0	0.0	0.0	0.0	0.003	0.003	0.006	0.006	9.769539874267577	-0.9361328491210937	0.034715924072265626	3.353118896484375	-3.726959228515625	-0.93841552734375	9.813832604980469	0.6428431457519531	0.06823474731445311	-0.09918212890625	-5.0201416015625	-4.062652587890625	9.875483297729492	0.36571430358886714	-0.006584054565429687	2.73895263671875	-4.81414794921875	-1.7547607421875	
81	0.324	0.0	0.0	0.0	0.0	0.003	0.003	0.003	0.006	9.710881933593749	-0.4147954376220703	0.12988544006347655	3.475189208984375	-4.146575927734375	-0.682830810546875	9.70369932861328	0.7613561279296874	0.0	0.637054443359375	-5.298614501953125	-4.322052001953125	9.665990652465819	0.040701428222656245	-0.017956512451171875	2.315521240234375	-4.726409912109375	-1.659393310546875	
82	0.328	0.0	0.0	0.0	0.0	0.003	0.003	0.003	0.006	9.710881933593749	-0.9660603698730468	0.19333178405761717	1.873016357421875	-3.07464599609375	-0.339508056640625	9.612719665527344	0.5895721588134766	0.3962403747558593	0.125885009765625	-5.153656005859375	-3.948211669921875	9.882067352294921	0.3746925598144531	0.0053869537353515625	2.3345947265625	-4.520416259765625	-1.83868408203125	
83	0.332	0.0	0.0	0.0	0.0	0.006	0.003	0.006	0.006	9.752780462646484	-0.6458358978271485	0.14185644836425781	1.628875732421875	-3.73077392578125	-0.701904296875	9.87009634399414	0.6165069274902344	-0.11013327636718749	0.026702880859375	-5.100250244140625	-4.116058349609375	9.8311905670166	-0.05686228942871093	-0.14305354919433594	2.552032470703125	-4.604339599609375	-1.766204833984375	
84	0.336	0.0	0.0	0.0	0.0	0.006	0.003	0.003	0.003	9.7683427734375	-0.977432827758789	0.02633621826171875	0.911712646484375	-2.5787353515625	-0.0152587890625	9.597157354736327	0.5925649108886718	0.3178302703857422	-0.179290771484375	-5.252838134765625	-3.91387939453125	9.699509475708007	0.08978256225585937	0.08200140686035155	2.410888671875	-4.352569580078125	-1.918792724609375	
85	0.34	0.0	0.0	0.0	0.0	0.003	0.003	0.003	0.003	9.945513696289062	-0.8056488586425781	-0.297479556274414	2.292633056640625	-3.6468505859375	-0.1983642578125	9.604938510131836	0.5410895751953124	0.18734627990722655	0.46539306640625	-5.401611328125	-3.635406494140625	9.630676177978515	0.06763619689941405	0.0430956298828125	2.407073974609375	-4.81414794921875	-1.47247314453125	
86	0.34400000000000003	0.0	0.0	0.0	0.0	0.003	0.003	0.003	0.003	9.922768780517577	-0.9325415466308593	-0.19692308654785154	1.97601318359375	-3.284454345703125	-0.293731689453125	9.713874685668944	0.49859249572753905	0.23642741394042968	0.11444091796875	-4.894256591796875	-3.688812255859375	9.835978970336914	-0.002992752075195312	0.07601590270996093	2.407073974609375	-4.413604736328125	-1.85394287109375	
87	0.34800000000000003	0.0	0.0	0.0	0.0	0.006	0.003	0.006	0.003	9.968258612060547	-0.7990648040771484	-0.3130418670654297	3.551483154296875	-4.0130615234375	-0.461578369140625	9.707290631103515	0.47704468078613277	0.07541735229492187	0.415802001953125	-5.21087646484375	-3.780364990234375	9.95329485168457	0.24181436767578124	-0.04668693237304687	2.76947021484375	-4.69207763671875	-1.247406005859375	
88	0.352	0.0	0.0	0.0	0.0	0.003	0.006	0.003	0.006	9.847949978637695	-0.3076549133300781	0.09696516723632811	5.901336669921875	-5.10406494140625	-1.068115234375	9.667187753295899	0.7613561279296874	0.30466216125488277	-0.087738037109375	-5.123138427734375	-3.513336181640625	9.668983404541015	0.08439560852050781	0.12689268798828124	2.2735595703125	-4.5166015625	-1.708984375	
89	0.356	0.0	0.0	0.0	0.0	0.006	0.003	0.003	0.003	9.899425314331054	-0.6817489227294922	-0.18076222534179687	3.60107421875	-4.451751708984375	-0.682830810546875	9.76116016845703	0.5452794281005859	0.017956512451171875	0.713348388671875	-5.458831787109375	-3.8604736328125	9.90900212097168	0.27353753967285155	0.044891281127929686	2.552032470703125	-4.66156005859375	-1.3427734375	
90	0.36	0.0	0.0	0.0	0.0	0.003	0.003	0.003	0.003	9.99220062866211	-0.6147112762451171	-0.14185644836425781	4.474639892578125	-4.28009033203125	-1.262664794921875	9.891644158935547	0.5680243438720702	0.0987608184814453	-0.072479248046875	-4.779815673828125	-3.757476806640625	10.37467434387207	-0.06643909606933593	-0.5279214660644531	2.6702880859375	-4.17327880859375	-1.422882080078125	
91	0.364	0.0	0.0	0.0	0.0	0.003	0.003	0.003	0.003	9.847949978637695	-0.7439981658935546	-0.1083376251220703	2.93731689453125	-3.3721923828125	-0.48065185546875	9.749189160156249	0.6344634399414062	0.3429693878173828	-0.09918212890625	-5.4168701171875	-3.871917724609375	9.816825357055663	0.36571430358886714	0.008978256225585938	2.712249755859375	-4.634857177734375	-1.3885498046875	
92	0.368	0.0	0.0	0.0	0.0	0.006	0.006	0.003	0.003	9.986813674926758	-0.5159504577636719	-0.1849520782470703	4.337310791015625	-4.222869873046875	-0.72479248046875	9.759963067626952	0.6177040283203125	0.19512743530273435	-0.1068115234375	-5.2032470703125	-3.620147705078125	10.143633883666991	0.047884033203124995	-0.43514615173339843	2.8533935546875	-4.34112548828125	-1.483917236328125	
93	0.372	0.0	0.0	0.0	0.0	0.006	0.003	0.003	0.003	9.813832604980469	-0.3298012786865234	0.3555389465332031	4.974365234375	-4.673004150390625	-0.946044921875	9.890447058105469	0.527322915649414	0.2753331909179687	0.2288818359375	-5.413055419921875	-3.7841796875	9.9981861328125	0.25139117431640623	-0.0796072052001953	2.719879150390625	-4.413604736328125	-1.003265380859375	
94	0.376	0.0	0.0	0.0	0.0	0.003	0.003	0.003	0.006	9.987412225341796	-0.6649895111083984	-0.21009119567871093	4.61578369140625	-4.3487548828125	-0.70953369140625	9.977236868286132	0.7715314849853515	-0.05626373901367187	0.682830810546875	-5.062103271484375	-4.024505615234375	10.280701928710936	0.027533319091796873	-0.5835866546630859	2.902984619140625	-4.38690185546875	-1.476287841796875	
95	0.38	0.0	0.0	0.0	0.0	0.003	0.003	0.003	0.003	9.657610946655273	-0.12389993591308593	0.4590881683349609	4.573822021484375	-4.375457763671875	-1.018524169921875	9.740210903930663	0.6284779357910156	0.316034619140625	0.400543212890625	-5.496978759765625	-3.696441650390625	10.084975942993163	0.4333505004882812	-0.2663549346923828	3.0975341796875	-4.680633544921875	-1.33514404296875	
96	0.384	0.0	0.0	0.0	0.0	0.003	0.003	0.006	0.003	9.988010775756836	-0.5057751007080078	-0.14544775085449219	4.993438720703125	-4.47845458984375	-0.87738037109375	10.01075569152832	0.7739256866455078	-0.09516951599121093	0.377655029296875	-4.94384765625	-3.8604736328125	10.307038146972655	-0.0017956512451171875	-0.59376201171875	2.86102294921875	-4.489898681640625	-1.354217529296875	
97	0.388	0.0	0.0	0.0	0.0	0.003	0.003	0.003	4.6290000000000004	9.741408004760741	-0.2376245147705078	0.3327940307617187	4.451751708984375	-4.26483154296875	-1.07574462890625	9.828197814941406	0.5901707092285156	0.18555062866210936	0.43487548828125	-5.382537841796875	-4.0130615234375	10.276512075805664	0.35015199279785153	-0.4369418029785156	3.025054931640625	-4.5928955078125	-1.270294189453125	
98	0.392	0.0	0.0	0.0	0.0	4.638	4.671	4.674	4.626	9.829394915771484	-0.3746925598144531	0.12509703674316405	1.8310546875	-3.13568115234375	-0.51116943359375	9.911396322631836	0.9044096771240234	-0.03411737365722656	0.38909912109375	-5.077362060546875	-3.77655029296875	10.140042581176758	0.20290859069824219	-0.42497079467773435	2.9754638671875	-4.688262939453125	-1.262664794921875	
99	0.396	0.0	0.0	0.0	0.0	4.65	4.671	4.674	4.626	9.740210903930663	-0.1927332336425781	0.31004911499023435	4.192352294921875	-4.5166015625	-0.54931640625	9.689334118652344	0.7487865692138671	0.31184476623535157	0.408172607421875	-5.397796630859375	-3.73077392578125	10.211270080566406	0.37828386230468747	-0.41359833679199215	3.10516357421875	-4.81414794921875	-1.277923583984375	
100	0.4	0.0	0.0	0.0	0.0	4.65	4.671	4.674	4.641	9.912593423461914	-0.4112041351318359	-0.007781155395507812	2.52532958984375	-3.265380859375	-0.720977783203125	10.005368737792969	0.7613561279296874	-0.1388636962890625	-0.003814697265625	-5.023956298828125	-3.047943115234375	10.251372958374024	0.13946224670410157	-0.49380409240722656	2.960205078125	-4.52423095703125	-1.0528564453125	
101	0.404	0.0	0.0	0.0	0.0	4.644	4.6770000000000005	4.674	4.638	9.703100778198241	-0.19093758239746092	0.055066638183593745	1.674652099609375	-2.925872802734375	-0.579833984375	9.68514426574707	0.8373720306396484	0.26815058593749996	0.484466552734375	-5.4168701171875	-3.7841796875	9.70369932861328	0.143652099609375	0.14245499877929688	2.41851806640625	-4.50897216796875	-1.60980224609375	
102	0.40800000000000003	0.0	0.0	0.0	0.0	4.65	4.6770000000000005	4.674	4.644	9.873687646484374	-0.5590460876464843	-0.008978256225585938	2.727508544921875	-3.63922119140625	-0.54168701171875	9.827599264526366	0.6470329986572265	0.03890577697753906	0.408172607421875	-5.05828857421875	-4.1656494140625	10.101735354614258	0.1640028137207031	-0.30346506042480464	3.131866455078125	-4.756927490234375	-1.003265380859375	
103	0.41200000000000003	0.0	0.0	0.0	0.0	4.641	4.674	4.674	4.65	9.888052856445311	-0.729034405517578	0.0017956512451171875	1.499176025390625	-2.92205810546875	-0.1068115234375	9.78629928588867	0.8283937744140625	0.1657984649658203	0.29754638671875	-5.126953125	-3.45611572265625	9.783905084228515	0.08918401184082031	0.17956512451171874	2.46429443359375	-4.772186279296875	-1.9378662109375	
104	0.41600000000000004	0.0	0.0	0.0	0.0	4.65	4.674	4.6770000000000005	4.641	9.89523546142578	-0.5865794067382812	-0.13467384338378904	2.552032470703125	-3.543853759765625	-0.743865966796875	9.868899243164062	0.6177040283203125	-0.011971008300781249	0.55694580078125	-5.2642822265625	-4.2877197265625	10.101735354614258	0.21068974609375	-0.3872621185302734	2.37274169921875	-5.039215087890625	-1.82342529296875	
105	0.42	0.0	0.0	0.0	0.0	4.647	4.674	4.674	4.6290000000000004	9.829993466186522	-0.7535749725341796	0.06045359191894531	2.483367919921875	-3.35693359375	-0.759124755859375	9.557653027343749	0.8385691314697266	0.4860229370117187	0.3509521484375	-4.974365234375	-4.3182373046875	9.664793551635741	0.14006079711914063	0.28969840087890625	2.727508544921875	-4.669189453125	-1.76239013671875	
106	0.424	0.0	0.0	0.0	0.0	4.65	4.674	4.674	4.626	9.78629928588867	-0.8098387115478515	0.028131869506835935	2.15911865234375	-3.459930419921875	-0.255584716796875	9.926360083007811	0.5997475158691405	-0.07122749938964844	0.57220458984375	-5.1422119140625	-4.138946533203125	9.773729727172851	0.23822306518554687	0.09217676391601562	2.38037109375	-4.657745361328125	-1.8463134765625	
107	0.428	0.0	0.0	0.0	0.0	4.644	4.671	4.674	4.635	9.775525378417969	-1.0438719238281249	0.07841010437011718	1.049041748046875	-2.674102783203125	-0.232696533203125	9.617508068847656	0.7864952453613281	0.33698388366699217	0.270843505859375	-5.222320556640625	-4.253387451171875	9.722254391479492	0.1292868896484375	0.16879121704101563	2.727508544921875	-4.550933837890625	-1.804351806640625	
108	0.432	0.0	0.0	0.0	0.0	4.644	4.6770000000000005	4.6770000000000005	4.644	9.769539874267577	-0.6877344268798827	-0.005985504150390624	1.68609619140625	-2.979278564453125	-0.240325927734375	9.572616787719726	0.5470750793457031	0.31064766540527344	0.1678466796875	-5.30242919921875	-4.150390625	9.648632690429688	0.3010708587646484	0.11013327636718749	2.5787353515625	-4.8675537109375	-1.9073486328125	
109	0.436	0.0	0.0	0.0	0.0	4.647	4.6770000000000005	4.674	4.641	9.784503634643555	-0.9343371978759765	0.1083376251220703	0.225067138671875	-2.86102294921875	-0.5645751953125	9.677363110351562	0.7535749725341796	0.34117373657226563	0.247955322265625	-5.275726318359375	-4.192352294921875	9.744999307250977	0.044891281127929686	0.08200140686035155	2.29644775390625	-4.222869873046875	-1.5716552734375	
110	0.44	0.0	0.0	0.0	0.0	4.641	4.674	2.34	0.003	9.789292037963866	-0.82360537109375	-0.023343466186523436	1.2969970703125	-2.8228759765625	-0.46539306640625	9.666589202880859	0.49380409240722656	0.2567781280517578	0.026702880859375	-5.115509033203125	-3.894805908203125	9.785700735473633	0.19393033447265623	-0.012569558715820313	2.532958984375	-4.8980712890625	-1.76239013671875	
111	0.444	0.0	0.0	0.0	0.0	0.003	0.006	0.003	0.006	9.832986218261718	-0.5488707305908203	0.016759411621093748	2.37274169921875	-3.0059814453125	0.011444091796875	9.572018237304688	0.6919242797851562	0.3142389678955078	0.019073486328125	-4.856109619140625	-3.993988037109375	9.578602291870117	0.1370680450439453	0.13407529296874998	2.338409423828125	-4.329681396484375	-1.71661376953125	
112	0.448	0.0	0.0	0.0	0.0	0.003	0.003	0.003	0.003	9.852738381958007	-0.5883750579833984	-0.105344873046875	1.56402587890625	-2.89154052734375	-0.1983642578125	9.658209497070311	0.49679684448242184	0.2920926025390625	-0.087738037109375	-5.123138427734375	-4.016876220703125	9.881468801879882	0.2699462371826172	-0.034715924072265626	2.346038818359375	-4.53948974609375	-1.4495849609375	
113	0.452	0.0	0.0	0.0	0.0	0.006	0.003	0.003	0.003	9.974244116210937	-0.44891281127929683	-0.09636661682128905	4.016876220703125	-4.070281982421875	-0.797271728515625	9.740210903930663	0.6500257507324219	0.2615665313720703	-0.202178955078125	-4.852294921875	-3.9825439453125	9.788693487548828	-0.017956512451171875	0.12030863342285156	2.3193359375	-4.360198974609375	-1.789093017578125	
114	0.456	0.0	0.0	0.0	0.0	0.003	0.003	0.003	0.003	9.853336932373047	-0.5458779785156249	-0.17298106994628906	5.22613525390625	-4.6539306640625	-0.820159912109375	9.735422500610351	0.5716156463623047	0.24361001892089842	0.209808349609375	-5.420684814453125	-3.345489501953125	9.770736975097655	0.2442085693359375	0.012569558715820313	2.60162353515625	-4.638671875	-1.758575439453125	
115	0.46	0.0	0.0	0.0	0.0	0.003	0.003	0.006	0.006	9.94671079711914	-0.489015689086914	-0.09576806640624999	3.997802734375	-3.96728515625	-0.324249267578125	9.637858782958984	0.7320271575927734	0.2549824768066406	0.16021728515625	-5.3558349609375	-3.986358642578125	9.68454571533203	0.013766659545898436	-0.508169302368164	2.7313232421875	-4.49371337890625	-1.2969970703125	
116	0.464	0.0	0.0	0.0	0.0	0.003	0.003	0.003	0.006	9.974842666625976	-0.48662148742675776	-0.016759411621093748	5.382537841796875	-5.069732666015625	-1.13677978515625	9.850344180297851	0.4961982940673828	0.23044190979003906	0.4119873046875	-5.56182861328125	-3.376007080078125	10.033500607299803	0.06284779357910156	-0.08499415893554688	2.613067626953125	-4.665374755859375	-1.7547607421875	
117	0.468	0.0	0.0	0.0	0.0	0.003	0.003	0.003	0.003	9.955090502929687	-0.5470750793457031	-0.09038111267089843	3.505706787109375	-3.978729248046875	-0.57220458984375	9.668983404541015	0.6751648681640625	0.16160861206054686	0.476837158203125	-5.04302978515625	-3.7994384765625	10.276512075805664	0.19572598571777342	-0.5799953521728515	2.76947021484375	-4.425048828125	-1.495361328125	
118	0.47200000000000003	0.0	0.0	0.0	0.0	0.003	0.003	0.003	0.003	9.835380419921874	-0.47165772705078124	0.13646949462890623	4.589080810546875	-4.810333251953125	-0.86212158203125	9.668983404541015	0.6661866119384765	0.21248539733886718	0.118255615234375	-5.27191162109375	-3.41796875	9.737816702270507	0.24959552307128904	0.00718260498046875	2.55584716796875	-4.467010498046875	-1.556396484375	
119	0.47600000000000003	0.0	0.0	0.0	0.0	0.003	0.003	0.003	0.003	9.9215716796875	-0.7362170104980469	-0.10773907470703124	2.7923583984375	-3.70025634765625	-0.49591064453125	10.024522351074218	0.6374561920166015	-0.12449848632812499	0.362396240234375	-5.275726318359375	-3.6773681640625	10.324396109008788	0.24061726684570311	-0.5003881469726562	2.674102783203125	-4.21905517578125	-1.117706298828125	
120	0.48	0.0	0.0	0.0	0.0	0.006	0.003	0.003	0.003	9.93354268798828	-0.6584054565429687	0.006584054565429687	5.260467529296875	-4.886627197265625	-1.071929931640625	9.802460147094726	0.507570751953125	0.23642741394042968	0.209808349609375	-5.37109375	-3.85284423828125	10.36210478515625	0.00239420166015625	-0.36930560607910157	2.98309326171875	-4.5623779296875	-1.316070556640625	
121	0.484	0.0	0.0	0.0	0.0	0.003	0.003	0.003	0.003	9.8449572265625	-0.42975919799804685	0.04848258361816406	4.230499267578125	-4.23431396484375	-0.782012939453125	9.794678991699218	0.7457938171386719	0.06643909606933593	0.6256103515625	-5.5389404296875	-4.070281982421875	10.087968695068358	0.3962403747558593	-0.5339069702148437	2.838134765625	-4.291534423828125	-1.331329345703125	
122	0.488	0.0	0.0	0.0	0.0	0.006	0.003	0.003	0.006	9.86411083984375	-0.55545478515625	0.08499415893554688	5.527496337890625	-5.107879638671875	-0.81634521484375	9.708487731933593	0.843956085205078	0.37828386230468747	0.507354736328125	-5.16510009765625	-3.513336181640625	10.188525164794921	0.18914193115234373	-0.39145197143554683	3.04412841796875	-4.47845458984375	-0.988006591796875	
123	0.492	0.0	0.0	0.0	0.0	0.003	0.003	0.003	0.006	9.878476049804688	-0.7517793212890624	0.044891281127929686	3.223419189453125	-3.711700439453125	-0.5645751953125	10.089165795898436	0.6428431457519531	-0.1005564697265625	0.80108642578125	-5.5084228515625	-3.910064697265625	10.367491738891601	0.07781155395507812	-0.5267243652343749	3.24249267578125	-4.810333251953125	-1.36566162109375	
124	0.496	0.0	0.0	0.0	0.0	0.006	0.006	0.003	0.006	9.611522564697266	-0.5758054992675781	0.4333505004882812	1.556396484375	-2.83050537109375	-0.30517578125	9.721655841064452	0.7015010864257812	0.31184476623535157	0.31280517578125	-5.069732666015625	-3.948211669921875	10.139444030761718	0.1388636962890625	-0.36152445068359373	3.170013427734375	-4.82940673828125	-1.758575439453125	
125	0.5	0.0	0.0	0.0	0.0	0.006	0.003	0.003	0.009000000000000001	9.7683427734375	-0.6171054779052734	0.17178396911621094	1.766204833984375	-2.857208251953125	-0.057220458984375	9.80066449584961	0.8954314208984374	0.08080430603027343	0.354766845703125	-5.3253173828125	-4.169464111328125	10.065822329711914	0.41958384094238277	-0.5279214660644531	3.15093994140625	-4.58526611328125	-1.190185546875	
126	0.504	0.0	0.0	0.0	0.0	0.003	0.003	0.003	0.006	9.686939916992188	-0.5345055206298828	0.33758243408203126	1.6021728515625	-2.964019775390625	-0.335693359375	9.860519537353515	0.622492431640625	0.4447229583740234	-0.030517578125	-5.2032470703125	-3.902435302734375	9.880870251464843	0.09576806640624999	0.1693897674560547	2.58636474609375	-4.604339599609375	-1.247406005859375	
127	0.508	0.0	0.0	0.0	0.0	0.003	0.003	0.003	0.0	9.822212310791015	-0.6242880828857421	0.2376245147705078	1.3580322265625	-2.658843994140625	-0.377655029296875	9.919776028442381	0.623090982055664	0.15023615417480468	0.14495849609375	-5.031585693359375	-4.566192626953125	10.219649786376953	0.062249243164062495	-0.43035774841308594	2.960205078125	-4.390716552734375	-1.567840576171875	
128	0.512	0.0	0.0	0.0	0.0	0.006	0.003	0.003	0.003	9.627084875488281	-0.40402153015136716	0.4273649963378906	0.736236572265625	-2.475738525390625	-0.148773193359375	9.534309561157226	0.8194155181884765	0.37888241271972656	-0.278472900390625	-4.817962646484375	-4.039764404296875	9.470863217163085	0.3298012786865234	0.23223756103515625	2.742767333984375	-4.60052490234375	-1.60980224609375	
129	0.516	0.0	0.0	0.0	0.0	0.0	0.003	0.003	0.003	9.91498762512207	-0.4273649963378906	-0.16340426330566404	0.888824462890625	-2.353668212890625	0.05340576171875	9.906009368896484	0.6727706665039062	0.1849520782470703	0.213623046875	-5.161285400390625	-4.08935546875	10.279504827880858	0.14125789794921875	-0.5183446594238281	3.353118896484375	-4.642486572265625	-1.232147216796875	
130	0.52	0.0	0.0	0.0	0.0	0.003	0.003	0.006	0.006	9.86351228942871	-0.5871779571533203	0.09576806640624999	0.362396240234375	-2.1820068359375	-0.423431396484375	9.90241806640625	0.5608417388916015	0.09576806640624999	0.05340576171875	-4.9896240234375	-3.993988037109375	9.996989031982421	0.040102877807617184	0.04189852905273437	2.73895263671875	-4.772186279296875	-1.64794921875	
131	0.524	0.0	0.0	0.0	0.0	0.003	0.003	0.003	0.003	9.958681805419921	-0.11432312927246092	-0.29448680419921874	3.200531005859375	-3.936767578125	-0.66375732421875	9.54448491821289	0.613514175415039	0.09995791931152344	0.3509521484375	-5.1727294921875	-3.910064697265625	9.507973342895507	0.09038111267089843	-0.08678981018066406	2.4261474609375	-4.726409912109375	-2.0599365234375	
132	0.528	0.0	0.0	0.0	0.0	0.003	0.006	0.003	0.006	9.889848507690429	-0.3794809631347656	-0.11552023010253906	5.18035888671875	-5.397796630859375	-0.926971435546875	9.622296472167967	0.729034405517578	0.27832594299316404	0.51116943359375	-5.50079345703125	-3.650665283203125	9.597755905151367	0.3764882110595703	0.2088940948486328	2.696990966796875	-4.688262939453125	-1.163482666015625	
133	0.532	0.0	0.0	0.0	0.0	0.003	0.003	0.003	0.006	10.032902056884765	-0.7894879974365234	-0.4112041351318359	2.7313232421875	-3.780364990234375	-0.6256103515625	9.9078050201416	0.4070142822265625	-0.1370680450439453	0.25177001953125	-5.283355712890625	-4.146575927734375	10.072406384277343	-0.229843359375	-0.29269115295410153	2.6092529296875	-4.741668701171875	-1.7852783203125	
134	0.536	0.0	0.0	0.0	0.0	0.003	0.003	0.006	0.003	9.881468801879882	-0.6500257507324219	-0.18076222534179687	4.642486572265625	-4.730224609375	-1.018524169921875	9.654618194580078	0.6386532928466796	0.20051438903808594	0.18310546875	-5.035400390625	-4.0283203125	9.79348189086914	0.24061726684570311	0.01975216369628906	2.4261474609375	-4.5928955078125	-2.063751220703125	
135	0.54	0.0	0.0	0.0	0.0	0.003	0.006	0.003	0.006	9.833584768676758	-0.229843359375	-0.09277531433105468	4.45556640625	-4.657745361328125	-0.79345703125	9.478644372558593	0.776319888305664	0.1657984649658203	0.476837158203125	-5.207061767578125	-4.0740966796875	9.422380633544922	0.229843359375	0.06464344482421874	2.315521240234375	-4.52423095703125	-1.728057861328125	
136	0.544	0.0	0.0	0.0	0.0	0.003	0.003	0.003	0.006	9.851541281127929	-0.8649053497314453	0.028730419921875	4.8370361328125	-4.756927490234375	-0.7171630859375	9.791087689208984	0.49859249572753905	0.2855085479736328	0.049591064453125	-5.45501708984375	-3.650665283203125	9.993397729492187	0.13287819213867186	0.11252747802734374	2.18963623046875	-4.6844482421875	-1.819610595703125	
137	0.548	0.0	0.0	0.0	0.0	0.006	0.003	0.003	0.003	9.944915145874022	-0.9720458740234375	-0.15981296081542967	3.1585693359375	-3.620147705078125	-0.904083251953125	9.701305126953125	0.6871358764648438	0.16160861206054686	0.057220458984375	-5.535125732421875	-4.230499267578125	10.06163247680664	-0.12569558715820311	-0.08798691101074219	2.399444580078125	-4.566192626953125	-1.6326904296875	
138	0.552	0.0	0.0	0.0	0.0	0.003	0.003	0.003	0.003	9.668983404541015	-0.4626794708251953	0.20470424194335937	3.421783447265625	-3.89862060546875	-0.736236572265625	9.414000927734374	0.6727706665039062	0.3699041564941406	-0.37384033203125	-4.7149658203125	-3.387451171875	9.447519750976562	0.5494692810058593	0.13168109130859373	2.410888671875	-4.180908203125	-1.636505126953125	
139	0.556	0.0	0.0	0.0	0.0	0.003	0.003	0.003	0.006	9.878476049804688	-0.7900865478515624	-0.052073886108398436	2.96783447265625	-3.963470458984375	-0.396728515625	9.74859060974121	0.6027402679443359	0.25438392639160157	0.35858154296875	-5.641937255859375	-3.63922119140625	9.909600671386718	0.1083376251220703	-0.023942016601562498	2.750396728515625	-4.64630126953125	-1.018524169921875	
140	0.56	0.0	0.0	0.0	0.0	0.006	0.003	0.003	0.006	9.922768780517577	-0.8595183959960937	-0.1484405029296875	4.833221435546875	-4.52423095703125	-0.93841552734375	9.789890588378906	0.3872621185302734	0.1466448516845703	0.49591064453125	-5.107879638671875	-3.749847412109375	9.935936889648437	0.002992752075195312	0.022146365356445312	2.05230712890625	-4.4097900390625	-2.1514892578125	
141	0.5640000000000001	0.0	0.0	0.0	0.0	0.003	0.003	0.003	0.006	9.95987890625	-0.6943184814453125	-0.29089550170898437	2.590179443359375	-3.704071044921875	-0.446319580078125	9.625887774658203	0.7888894470214843	0.017357962036132813	0.347137451171875	-5.214691162109375	-3.7078857421875	9.696516723632811	0.36810850524902344	-0.09576806640624999	2.58636474609375	-4.3792724609375	-1.361846923828125	
142	0.5680000000000001	0.0	0.0	0.0	0.0	0.006	0.003	0.006	0.006	9.804255798339844	-0.4267664459228515	0.03172317199707031	4.566192626953125	-4.547119140625	-0.431060791015625	9.746794958496093	0.7727285858154297	0.13766659545898435	0.28228759765625	-5.054473876953125	-3.353118896484375	10.098742602539062	0.25917232971191406	-0.42317514343261714	2.90679931640625	-4.44793701171875	-1.220703125	
143	0.5720000000000001	0.0	0.0	0.0	0.0	0.003	0.006	0.006	0.003	10.051457119750976	-0.872087954711914	-0.2699462371826172	3.57818603515625	-4.001617431640625	-0.5645751953125	9.944915145874022	0.4656722229003906	-0.058657940673828124	0.766754150390625	-5.649566650390625	-3.7841796875	10.178948358154296	0.033518823242187495	-0.13108254089355467	2.87628173828125	-4.7149658203125	-1.514434814453125	
144	0.5760000000000001	0.0	0.0	0.0	0.0	0.003	0.006	0.003	0.006	9.993397729492187	-0.6111199737548828	-0.22086510314941404	4.8065185546875	-4.24957275390625	-0.84686279296875	9.86291373901367	0.7769184387207031	-0.09995791931152344	0.179290771484375	-4.596710205078125	-3.917694091796875	10.235212097167969	0.15682020874023436	-0.5758054992675781	2.79998779296875	-4.169464111328125	-1.903533935546875	
145	0.58	0.0	0.0	0.0	0.0	0.003	0.003	0.003	0.003	9.586981997680663	-0.13646949462890623	0.47884033203125	3.337860107421875	-3.643035888671875	-0.476837158203125	9.565434182739256	0.8607154968261719	0.5422866760253906	0.00762939453125	-5.4779052734375	-3.711700439453125	9.931148486328125	0.6105214233398437	-0.26755203552246093	3.0975341796875	-4.604339599609375	-0.946044921875	
146	0.584	0.0	0.0	0.0	0.0	0.003	0.003	0.003	0.003	9.975441217041014	-0.7541735229492187	-0.18614917907714842	3.5552978515625	-4.062652587890625	-0.5645751953125	9.999383233642577	0.63206923828125	-0.03411737365722656	0.2593994140625	-5.279541015625	-3.85284423828125	10.45128879699707	-0.09157821350097656	-0.5530605834960938	3.009796142578125	-4.589080810546875	-1.45721435546875	
147	0.588	0.0	0.0	0.0	0.0	0.003	0.003	0.006	0.006	9.882067352294921	-0.4423287567138672	0.05985504150390625	3.50189208984375	-3.795623779296875	-0.77056884765625	9.931148486328125	0.6955155822753906	0.15442600708007811	-0.011444091796875	-5.30242919921875	-3.673553466796875	10.350732327270507	0.373495458984375	-0.5123591552734374	2.857208251953125	-4.337310791015625	-1.399993896484375	
148	0.592	0.0	0.0	0.0	0.0	0.003	0.003	0.003	4.581	9.802460147094726	-0.45968671875	0.06703764648437499	4.2266845703125	-4.276275634765625	-0.518798828125	9.757568865966796	0.862511148071289	0.052073886108398436	0.579833984375	-4.93621826171875	-4.1961669921875	9.957484704589843	0.24361001892089842	-0.42497079467773435	3.116607666015625	-4.49371337890625	-1.25885009765625	
149	0.596	0.0	0.0	0.0	0.0	4.635	4.668	4.671	4.638	9.652223992919922	-0.28490999755859375	0.36631285400390623	3.551483154296875	-4.070281982421875	-0.61798095703125	9.852139831542969	0.7062894897460937	0.3010708587646484	0.087738037109375	-5.809783935546875	-3.582000732421875	10.200496173095702	0.39863457641601563	-0.33758243408203126	2.910614013671875	-4.894256591796875	-1.117706298828125	
150	0.6	0.0	0.0	0.0	0.0	4.641	4.6770000000000005	4.6770000000000005	4.641	9.950302099609374	-0.5907692596435546	-0.09756371765136718	2.490997314453125	-3.41033935546875	-0.736236572265625	10.152013589477539	0.6739677673339843	-0.30466216125488277	0.3662109375	-4.924774169921875	-4.131317138671875	10.386046801757812	-0.037110125732421874	-0.5674257934570313	3.040313720703125	-4.3487548828125	-1.232147216796875	
151	0.604	0.0	0.0	0.0	0.0	4.647	4.6770000000000005	4.674	4.641	9.644442837524414	-0.2932897033691406	0.3172317199707031	3.31878662109375	-3.635406494140625	-0.6561279296875	9.674370358276366	0.8373720306396484	0.2771288421630859	0.396728515625	-5.046844482421875	-4.093170166015625	10.024522351074218	0.45190556335449217	-0.3112462158203125	2.658843994140625	-4.596710205078125	-1.186370849609375	
152	0.608	0.0	0.0	0.0	0.0	4.638	4.674	4.674	4.65	9.741408004760741	-0.45968671875	0.12988544006347655	1.651763916015625	-3.021240234375	-0.3814697265625	9.892242709350585	0.7308300567626953	-0.032920272827148434	0.41961669921875	-5.252838134765625	-3.936767578125	9.996989031982421	0.20530279235839843	-0.20171148986816406	3.101348876953125	-4.79888916015625	-0.946044921875	
153	0.612	0.0	0.0	0.0	0.0	4.65	4.674	4.6770000000000005	4.644	9.861118087768554	-0.3184288208007812	0.011971008300781249	1.880645751953125	-3.27301025390625	-0.507354736328125	9.890447058105469	0.7643488800048828	0.11671733093261719	0.3204345703125	-5.48553466796875	-3.780364990234375	9.872490545654296	-0.011971008300781249	0.17836802368164062	2.70843505859375	-4.69207763671875	-1.911163330078125	
154	0.616	0.0	0.0	0.0	0.0	4.65	4.674	4.6770000000000005	4.6290000000000004	9.880870251464843	-0.6272808349609375	-0.15263035583496093	2.55584716796875	-3.13568115234375	-1.102447509765625	9.835380419921874	0.5249287139892578	-0.06643909606933593	0.25177001953125	-5.260467529296875	-4.150390625	10.137648379516602	0.12210428466796874	-0.36092590026855464	3.070831298828125	-4.207611083984375	-1.28173828125	
155	0.62	0.0	0.0	0.0	0.0	4.65	4.674	4.6770000000000005	4.626	9.651026892089844	-0.7362170104980469	0.2723404388427734	1.804351806640625	-3.047943115234375	-0.335693359375	9.546879119873047	0.8864531646728515	0.38247371520996093	0.087738037109375	-5.2337646484375	-3.726959228515625	9.478045822143555	0.24600422058105467	0.3142389678955078	2.62451171875	-4.505157470703125	-1.77001953125	
156	0.624	0.0	0.0	0.0	0.0	4.65	4.671	4.6770000000000005	4.641	9.918578927612304	-0.6284779357910156	-0.12150573425292968	2.86102294921875	-3.787994384765625	-0.453948974609375	9.795876092529296	0.5428852264404297	0.09516951599121093	0.209808349609375	-5.390167236328125	-4.100799560546875	9.743802206420899	0.25318682556152344	0.08439560852050781	2.498626708984375	-5.062103271484375	-1.708984375	
157	0.628	0.0	0.0	0.0	0.0	4.647	4.6770000000000005	4.6770000000000005	4.644	9.886855755615233	-0.8164227661132812	-0.03651157531738281	2.124786376953125	-3.0975341796875	-0.54168701171875	9.882067352294921	0.6093243225097655	0.3220201232910156	-0.06866455078125	-4.817962646484375	-3.9520263671875	9.85752678527832	-0.04249707946777344	0.1771709228515625	2.63214111328125	-4.726409912109375	-2.010345458984375	
158	0.632	0.0	0.0	0.0	0.0	4.647	4.6770000000000005	4.674	0.003	9.775525378417969	-0.6715735656738281	0.054468087768554684	2.399444580078125	-3.0975341796875	-0.54931640625	9.592368951416015	0.7404068634033203	0.20051438903808594	-0.164031982421875	-5.19561767578125	-4.154205322265625	9.561842880249023	0.3489548919677734	0.10175357055664062	2.574920654296875	-4.634857177734375	-1.77001953125	
159	0.636	0.0	0.0	0.0	0.0	0.003	0.006	0.003	0.006	9.699509475708007	-0.9205705383300781	0.19812018737792966	0.87738037109375	-2.788543701171875	-0.171661376953125	9.542090716552734	0.6697779144287109	0.42437224426269526	-0.14495849609375	-5.321502685546875	-3.65447998046875	9.606734161376952	0.05985504150390625	0.10953472595214843	2.414703369140625	-4.398345947265625	-1.739501953125	
160	0.64	0.0	0.0	0.0	0.0	0.006	0.003	0.003	0.0	10.001777435302733	-0.7493851196289062	-0.27952304382324217	2.124786376953125	-3.2501220703125	-0.293731689453125	9.894038360595703	0.51714755859375	0.09576806640624999	0.431060791015625	-5.19561767578125	-3.833770751953125	9.937133990478515	0.08678981018066406	-0.009576806640625	2.40325927734375	-4.886627197265625	-1.85394287109375	
161	0.644	0.0	0.0	0.0	0.0	0.006	0.003	0.003	0.003	9.742605105590819	-0.7727285858154297	0.08020575561523437	0.698089599609375	-2.391815185546875	-0.080108642578125	9.516951599121093	0.6835445739746093	0.44053310546874996	0.08392333984375	-4.749298095703125	-4.161834716796875	9.649829791259766	0.04967968444824218	0.15263035583496093	2.498626708984375	-4.33349609375	-2.08282470703125	
162	0.648	0.0	0.0	0.0	0.0	0.003	0.003	0.003	0.003	9.784503634643555	-0.41060558471679687	-0.03890577697753906	2.51007080078125	-3.513336181640625	-0.484466552734375	9.503783489990234	0.5793968017578125	0.3327940307617187	0.041961669921875	-5.401611328125	-3.509521484375	9.52533130493164	0.2693476867675781	0.239420166015625	2.765655517578125	-4.64630126953125	-1.636505126953125	
163	0.652	0.0	0.0	0.0	0.0	0.006	0.003	0.006	0.006	10.043077413940429	-0.5716156463623047	-0.16460136413574217	4.6844482421875	-4.619598388671875	-0.568389892578125	9.821015209960937	0.6165069274902344	0.14544775085449219	0.133514404296875	-5.107879638671875	-3.871917724609375	9.943119494628906	0.028730419921875	-0.037708676147460936	2.330780029296875	-4.302978515625	-1.51824951171875	
164	0.656	0.0	0.0	0.0	0.0	0.003	0.003	0.003	0.0	9.961076007080077	-0.6865373260498047	-0.3112462158203125	2.08282470703125	-3.11279296875	-0.354766845703125	9.775525378417969	0.4560954162597656	0.07841010437011718	0.362396240234375	-5.18798828125	-3.7384033203125	10.043077413940429	0.0017956512451171875	-0.12330138549804687	2.376556396484375	-4.322052001953125	-1.773834228515625	
165	0.66	0.0	0.0	0.0	0.0	0.003	0.003	0.003	0.006	9.83178911743164	-0.2346317626953125	0.06284779357910156	5.218505859375	-4.581451416015625	-0.797271728515625	9.63307037963867	0.7278373046875	0.2346317626953125	0.06103515625	-5.31768798828125	-3.887176513671875	9.445724099731445	0.2825157958984375	0.32142157287597656	2.532958984375	-4.52423095703125	-1.708984375	
166	0.664	0.0	0.0	0.0	0.0	0.003	0.003	0.006	0.003	9.974244116210937	-0.6721721160888672	-0.2998737579345703	5.657196044921875	-5.344390869140625	-0.9918212890625	9.783306533813477	0.4100070343017578	0.05327098693847656	0.43487548828125	-5.092620849609375	-3.65447998046875	9.955689053344726	0.07422025146484375	-0.1352723937988281	2.64739990234375	-4.604339599609375	-1.499176025390625	
167	0.668	0.0	0.0	0.0	0.0	0.003	0.003	0.003	0.006	10.059238275146484	-0.7727285858154297	-0.27832594299316404	3.986358642578125	-3.871917724609375	-0.583648681640625	9.970054263305663	0.632667788696289	-0.00718260498046875	-0.064849853515625	-5.100250244140625	-3.7689208984375	10.47044241027832	0.13766659545898435	-0.6099228729248046	2.838134765625	-4.222869873046875	-1.2969970703125	
168	0.672	0.0	0.0	0.0	0.0	0.006	0.003	0.003	0.003	9.815029705810547	-0.4321533996582031	0.16160861206054686	5.031585693359375	-4.66156005859375	-1.06048583984375	9.67137760620117	0.6075286712646484	0.34237083740234375	0.156402587890625	-5.06591796875	-3.948211669921875	9.701305126953125	0.10115502014160156	0.03172317199707031	2.66265869140625	-4.528045654296875	-1.728057861328125	
169	0.676	0.0	0.0	0.0	0.0	0.006	0.003	0.003	0.003	9.992799179077148	-0.4159925384521484	-0.19871873779296872	4.87518310546875	-4.886627197265625	-1.216888427734375	9.7928833404541	0.6781576202392577	-0.004189852905273437	0.232696533203125	-5.1727294921875	-3.391265869140625	10.091559997558592	0.43035774841308594	-0.4375403533935547	3.021240234375	-4.474639892578125	-1.300811767578125	
170	0.68	0.0	0.0	0.0	0.0	0.009000000000000001	0.003	0.003	0.003	9.922768780517577	-0.7942764007568359	0.028131869506835935	5.3863525390625	-5.24139404296875	-0.86212158203125	9.958681805419921	0.5536591339111328	0.14245499877929688	0.026702880859375	-5.45501708984375	-3.65447998046875	10.426149679565428	0.008379705810546874	-0.42377369384765623	2.95257568359375	-4.734039306640625	-1.21307373046875	
171	0.684	0.0	0.0	0.0	0.0	0.006	0.006	0.003	0.003	9.82520506286621	-0.6524199523925781	0.21068974609375	2.3040771484375	-3.276824951171875	-0.3814697265625	9.955689053344726	0.6440402465820312	0.03950432739257812	0.25177001953125	-4.8675537109375	-3.997802734375	10.231620794677733	0.3393780853271484	-0.4626794708251953	2.99072265625	-4.23431396484375	-1.567840576171875	
172	0.6880000000000001	0.0	0.0	0.0	0.0	0.003	0.003	0.003	0.003	9.688735568237304	-0.5434837768554687	0.2693476867675781	4.535675048828125	-4.7454833984375	-0.743865966796875	9.65940659790039	0.7439981658935546	0.25737667846679685	0.16021728515625	-5.45501708984375	-3.551483154296875	10.004770187377929	0.297479556274414	-0.23523031311035156	3.231048583984375	-4.6234130859375	-1.068115234375	
173	0.6920000000000001	0.0	0.0	0.0	0.0	0.006	0.003	0.003	0.0	9.787496386718749	-0.7146691955566405	0.23523031311035156	1.89971923828125	-2.956390380859375	-0.331878662109375	10.025120901489258	0.6913257293701172	0.0796072052001953	0.732421875	-5.22613525390625	-4.055023193359375	10.426149679565428	0.24839842224121092	-0.517746109008789	3.055572509765625	-4.352569580078125	-1.270294189453125	
174	0.6960000000000001	0.0	0.0	0.0	0.0	0.0	0.003	0.003	0.006	9.735422500610351	-0.7811082916259765	0.30346506042480464	4.31060791015625	-4.03594970703125	-0.743865966796875	9.840168823242188	0.7433996154785156	0.2711433380126953	0.18310546875	-5.283355712890625	-4.32586669921875	10.388441003417968	0.05386953735351562	-0.44891281127929683	3.1890869140625	-4.573822021484375	-1.31988525390625	
175	0.7000000000000001	0.0	0.0	0.0	0.0	0.003	0.003	0.003	0.006	9.676166009521484	-0.49799394531249996	0.4267664459228515	0.553131103515625	-2.0904541015625	0.05340576171875	9.76116016845703	1.0121487518310546	0.1975216369628906	0.644683837890625	-5.27191162109375	-3.90625	9.96047745666504	0.2861070983886719	-0.35015199279785153	3.0364990234375	-4.09698486328125	-1.445770263671875	
176	0.704	0.0	0.0	0.0	0.0	0.006	0.003	0.003	0.006	9.792284790039062	-0.4213794921875	0.16759411621093748	-0.202178955078125	-1.77001953125	-0.171661376953125	9.712079034423828	0.7218518005371093	0.29867665710449215	0.28228759765625	-5.001068115234375	-3.894805908203125	10.29805989074707	0.21009119567871093	-0.4572925170898437	3.21197509765625	-4.657745361328125	-0.9307861328125	
177	0.708	0.0	0.0	0.0	0.0	0.003	0.003	0.003	0.003	9.892841259765625	-0.719457598876953	0.11432312927246092	0.457763671875	-1.918792724609375	-0.209808349609375	9.923965881347655	0.6721721160888672	0.005985504150390624	0.091552734375	-5.184173583984375	-4.0740966796875	10.328585961914062	-0.010773907470703125	-0.489015689086914	3.093719482421875	-4.50897216796875	-1.54876708984375	
178	0.712	0.0	0.0	0.0	0.0	0.003	0.003	0.003	0.006	9.83837317199707	-0.479438882446289	0.03411737365722656	0.759124755859375	-2.231597900390625	-0.31280517578125	9.605537060546874	0.63206923828125	0.3920505218505859	0.072479248046875	-5.054473876953125	-4.0435791015625	9.615712417602538	0.3232172241210937	0.1867477294921875	2.689361572265625	-4.76837158203125	-1.758575439453125	
179	0.716	0.0	0.0	0.0	0.0	0.0	0.003	0.003	0.003	9.87069489440918	-0.5165490081787109	0.03890577697753906	3.284454345703125	-4.20379638671875	0.6561279296875	9.648632690429688	0.9630676177978515	0.11073182678222655	0.32806396484375	-5.283355712890625	-3.97491455078125	9.984419473266602	0.2232593048095703	-0.39743747558593745	3.017425537109375	-4.37164306640625	-1.28936767578125	
180	0.72	0.0	0.0	0.0	0.0	0.003	0.003	0.006	0.006	9.984419473266602	-0.5422866760253906	-0.16819266662597654	2.231597900390625	-3.33404541015625	-0.4730224609375	9.884461553955077	0.5147533569335937	0.2609679809570312	0.40435791015625	-5.33294677734375	-3.955841064453125	9.944915145874022	0.2519897247314453	0.015562310791015624	2.941131591796875	-4.520416259765625	-1.445770263671875	
181	0.724	0.0	0.0	0.0	0.0	0.006	0.003	0.003	0.003	9.931148486328125	-0.5500678314208984	-0.19333178405761717	4.0130615234375	-4.322052001953125	-1.010894775390625	9.78031378173828	0.8218097198486327	0.04369418029785156	0.396728515625	-4.75311279296875	-4.093170166015625	9.828796365356444	-0.1005564697265625	-0.12988544006347655	2.4261474609375	-4.734039306640625	-2.033233642578125	
182	0.728	0.0	0.0	0.0	0.0	0.003	0.003	0.003	0.003	9.79348189086914	-0.34117373657226563	0.06584054565429687	2.933502197265625	-3.71551513671875	-0.667572021484375	9.485826977539062	0.738012661743164	0.42377369384765623	0.102996826171875	-5.31005859375	-4.116058349609375	9.555258825683593	0.5925649108886718	0.17657237243652343	2.872467041015625	-4.913330078125	-1.506805419921875	
183	0.732	0.0	0.0	0.0	0.0	0.006	0.003	0.003	0.003	9.816825357055663	-0.5333084197998047	-0.0017956512451171875	2.986907958984375	-3.90625	-0.507354736328125	9.923965881347655	0.728435855102539	-0.025737667846679687	0.58746337890625	-5.5084228515625	-3.978729248046875	9.790489138793944	-0.06344634399414062	-0.03591302490234375	2.49481201171875	-4.802703857421875	-1.48773193359375	
184	0.736	0.0	0.0	0.0	0.0	0.003	0.006	0.003	0.003	9.871891995239258	-0.7272387542724609	-0.03651157531738281	3.536224365234375	-3.570556640625	-0.835418701171875	9.731232647705077	0.5482721801757812	0.32620997619628905	-0.20599365234375	-5.06591796875	-4.062652587890625	9.88386300354004	0.3286041778564453	0.044891281127929686	2.3193359375	-4.367828369140625	-2.147674560546875	
185	0.74	0.0	0.0	0.0	0.0	0.006	0.003	0.003	0.006	9.80066449584961	-0.5207388610839844	0.029328970336914062	2.5634765625	-3.5552978515625	-0.7476806640625	9.568426934814452	0.6847416748046875	0.14305354919433594	-0.16021728515625	-5.413055419921875	-3.665924072265625	9.542689266967773	0.12988544006347655	0.06883329772949218	2.63214111328125	-4.79888916015625	-1.8157958984375	
186	0.744	0.0	0.0	0.0	0.0	0.003	0.003	0.006	0.006	9.789292037963866	-0.5237316131591797	0.04608838195800781	3.7994384765625	-4.077911376953125	-0.522613525390625	9.631873278808593	0.5770026000976562	0.4010287780761719	-0.179290771484375	-5.05828857421875	-3.780364990234375	9.630676177978515	0.22206220397949217	0.13946224670410157	2.5634765625	-4.611968994140625	-1.667022705078125	
187	0.748	0.0	0.0	0.0	0.0	0.003	0.003	0.003	0.003	9.964667309570311	-0.8295908752441405	-0.2705447875976562	1.73187255859375	-3.3416748046875	-0.392913818359375	9.815029705810547	0.4955997436523437	-0.017956512451171875	0.3509521484375	-5.390167236328125	-4.016876220703125	9.858723886108399	-0.08080430603027343	0.02693476867675781	2.361297607421875	-4.528045654296875	-1.6632080078125	
188	0.752	0.0	0.0	0.0	0.0	0.003	0.003	0.003	0.003	9.853935482788085	-0.48123453369140623	0.0005985504150390625	4.917144775390625	-4.5623779296875	-0.79345703125	9.661202249145507	0.6165069274902344	0.181959326171875	0.095367431640625	-4.886627197265625	-3.76129150390625	9.65342109375	0.12030863342285156	0.0987608184814453	2.227783203125	-4.46319580078125	-1.983642578125	
189	0.756	0.0	0.0	0.0	0.0	0.003	0.003	0.003	0.006	9.841365924072266	-0.5877765075683593	0.11192892761230468	4.28009033203125	-4.428863525390625	-0.5645751953125	9.596558804321289	0.6967126831054687	0.14724340209960937	0.545501708984375	-5.519866943359375	-3.826141357421875	9.759364517211914	0.44592005920410155	-0.014963760375976562	2.696990966796875	-4.772186279296875	-1.308441162109375	
190	0.76	0.0	0.0	0.0	0.0	0.003	0.003	0.003	4.62	9.868300692749022	-0.7152677459716796	-0.001197100830078125	4.49371337890625	-4.344940185546875	-0.431060791015625	9.791087689208984	0.4261678955078125	0.1867477294921875	-0.09918212890625	-5.10406494140625	-3.79180908203125	9.89523546142578	-0.10175357055664062	0.0526724365234375	2.254486083984375	-4.40216064453125	-1.80816650390625	
191	0.764	0.0	0.0	0.0	0.0	4.641	4.668	4.671	4.635	10.006565838623047	-0.63206923828125	-0.08738836059570312	3.90625	-4.20379638671875	-0.7476806640625	9.883264453125	0.6458358978271485	0.20470424194335937	0.14495849609375	-5.283355712890625	-3.818511962890625	10.03050785522461	0.3525461944580078	-0.14724340209960937	2.7008056640625	-4.543304443359375	-1.468658447265625	
192	0.768	0.0	0.0	0.0	0.0	4.644	4.674	4.6770000000000005	4.641	9.783905084228515	-0.508169302368164	0.09696516723632811	4.730224609375	-4.199981689453125	-0.48828125	9.51276174621582	0.6440402465820312	0.39324762268066404	0.125885009765625	-4.9285888671875	-3.662109375	10.115502014160155	0.07841010437011718	-0.5057751007080078	2.75421142578125	-4.52423095703125	-1.041412353515625	
193	0.772	0.0	0.0	0.0	0.0	4.644	4.674	4.674	4.644	9.969455712890625	-0.6584054565429687	0.040701428222656245	3.437042236328125	-4.001617431640625	-0.415802001953125	9.840168823242188	0.6386532928466796	0.25438392639160157	0.080108642578125	-5.596160888671875	-3.41033935546875	9.992799179077148	0.38786066894531246	-0.0987608184814453	2.780914306640625	-4.5928955078125	-1.22833251953125	
194	0.776	0.0	0.0	0.0	0.0	4.641	4.6770000000000005	4.674	4.65	9.988609326171874	-0.575206948852539	-0.09277531433105468	4.57763671875	-4.3487548828125	-1.068115234375	10.052055670166014	0.5716156463623047	-0.11073182678222655	0.46539306640625	-5.176544189453125	-3.74603271484375	10.433930834960936	-0.12808978881835936	-0.7050923889160156	2.99072265625	-4.291534423828125	-1.354217529296875	
195	0.78	0.0	0.0	0.0	0.0	4.65	4.674	4.674	4.638	9.889848507690429	-0.5889736083984375	0.12629413757324218	3.082275390625	-3.62396240234375	-0.2899169921875	9.728239895629882	0.6057330200195312	0.2597708801269531	0.06103515625	-5.481719970703125	-3.559112548828125	9.763554370117188	0.48722003784179685	0.04369418029785156	3.086090087890625	-4.375457763671875	-1.3580322265625	
196	0.784	0.0	0.0	0.0	0.0	4.647	4.674	4.6770000000000005	4.6290000000000004	9.931148486328125	-0.25917232971191406	-0.05386953735351562	4.4097900390625	-4.352569580078125	-0.820159912109375	9.879673150634765	0.7422025146484375	-0.00239420166015625	0.293731689453125	-5.36346435546875	-3.631591796875	10.21545993347168	0.06643909606933593	-0.5781997009277343	2.979278564453125	-4.50897216796875	-1.068115234375	
197	0.788	0.0	0.0	0.0	0.0	4.65	4.674	4.6770000000000005	4.626	9.828796365356444	-0.316034619140625	0.016759411621093748	4.37164306640625	-4.611968994140625	-1.026153564453125	9.90900212097168	0.6931213806152343	0.1083376251220703	0.28228759765625	-5.397796630859375	-3.574371337890625	10.372878692626953	0.16519991455078123	-0.4537012145996093	3.19671630859375	-4.46319580078125	-1.621246337890625	
198	0.792	0.0	0.0	0.0	0.0	4.647	4.671	4.674	4.641	10.016142645263672	-0.3082534637451172	-0.19632453613281248	4.61578369140625	-4.364013671875	-1.186370849609375	9.91558617553711	0.8074445098876952	-0.03232172241210937	0.469207763671875	-5.161285400390625	-3.7689208984375	10.229226593017577	0.12689268798828124	-0.6602011077880859	2.90679931640625	-4.283905029296875	-1.28173828125	
199	0.796	0.0	0.0	0.0	0.0	4.644	0.003	0.003	0.006	9.680355862426758	-0.22505495605468748	0.22685060729980466	4.67681884765625	-4.69207763671875	-0.98419189453125	9.690531219482422	0.8128314636230468	0.27353753967285155	0.278472900390625	-5.428314208984375	-3.631591796875	10.071209283447265	0.27892449340820313	-0.33578678283691404	3.192901611328125	-4.79888916015625	-1.3580322265625	
200	0.8	0.0	0.0	0.0	0.0	0.003	0.003	0.003	0.003	10.020332498168944	-0.4542997650146484	-0.25917232971191406	4.512786865234375	-4.650115966796875	-0.820159912109375	10.002974536132811	0.6500257507324219	-0.08319850769042968	0.476837158203125	-5.344390869140625	-4.1351318359375	10.24000050048828	0.1693897674560547	-0.39444472351074217	2.9449462890625	-4.772186279296875	-1.16729736328125	
201	0.804	0.0	0.0	0.0	0.0	0.003	0.003	0.003	0.003	9.7162688873291	-0.4572925170898437	0.20829554443359374	4.50897216796875	-4.1656494140625	-0.93841552734375	9.851541281127929	0.7320271575927734	0.19213468322753904	0.38909912109375	-5.214691162109375	-4.047393798828125	10.290278735351562	0.15502455749511718	-0.47165772705078124	2.93731689453125	-4.5318603515625	-1.44195556640625	
202	0.808	0.0	0.0	0.0	0.0	0.003	0.003	0.003	0.003	9.743203656005859	-0.5279214660644531	0.17896657409667968	1.956939697265625	-3.101348876953125	-0.64849853515625	9.823409411621093	0.680551821899414	0.05566518859863281	0.45013427734375	-5.275726318359375	-4.1656494140625	10.06163247680664	0.34057518615722654	-0.41838674011230464	3.11279296875	-4.608154296875	-1.47247314453125	
203	0.812	0.0	0.0	0.0	0.0	0.003	0.003	0.003	0.003	9.637260232543944	-0.527322915649414	0.24899697265624998	3.353118896484375	-3.841400146484375	-0.87738037109375	9.823409411621093	0.7733271362304687	0.1693897674560547	0.408172607421875	-5.401611328125	-3.57818603515625	9.7683427734375	0.07601590270996093	0.15861585998535155	2.8076171875	-4.802703857421875	-1.6021728515625	
204	0.8160000000000001	0.0	0.0	0.0	0.0	0.003	0.003	0.003	0.006	9.854534033203125	-0.6284779357910156	-0.0053869537353515625	1.922607421875	-3.055572509765625	-0.553131103515625	10.00417163696289	0.5524620330810547	-0.03531447448730469	0.156402587890625	-5.3253173828125	-4.1351318359375	10.359710583496094	0.20709844360351562	-0.6715735656738281	3.147125244140625	-4.283905029296875	-1.13677978515625	
205	0.8200000000000001	0.0	0.0	0.0	0.0	0.003	0.003	0.003	0.006	9.638457333374022	-0.3872621185302734	0.2747346405029297	3.8299560546875	-4.070281982421875	-0.881195068359375	9.692326870727538	0.7852981445312499	0.18076222534179687	0.2288818359375	-5.115509033203125	-4.146575927734375	9.699509475708007	0.11073182678222655	0.1693897674560547	2.73895263671875	-4.589080810546875	-1.499176025390625	
206	0.8240000000000001	0.0	0.0	0.0	0.0	0.003	0.003	0.003	0.003	9.7545761138916	-0.5578489868164063	0.09995791931152344	1.79290771484375	-2.986907958984375	-0.308990478515625	9.86291373901367	0.6817489227294922	0.055066638183593745	0.31280517578125	-5.207061767578125	-4.1961669921875	10.14542953491211	0.31483751831054685	-0.5327098693847656	2.452850341796875	-4.7454833984375	-1.819610595703125	
207	0.8280000000000001	0.0	0.0	0.0	0.0	0.003	0.006	0.003	0.006	9.860519537353515	-0.8475473876953125	-0.061650692749023434	1.079559326171875	-2.635955810546875	-0.11444091796875	9.804255798339844	0.719457598876953	0.22206220397949217	0.263214111328125	-5.19561767578125	-4.070281982421875	9.897031112670899	0.013766659545898436	0.031124621582031248	2.834320068359375	-4.6844482421875	-1.42669677734375	
208	0.8320000000000001	0.0	0.0	0.0	0.0	0.0	0.003	0.003	0.006	9.861118087768554	-0.5590460876464843	-0.0047884033203125	1.12152099609375	-2.635955810546875	-0.3204345703125	9.664793551635741	0.44891281127929683	0.2316390106201172	-0.11444091796875	-4.974365234375	-3.955841064453125	9.739612353515625	0.062249243164062495	-0.044292730712890624	2.498626708984375	-4.99725341796875	-1.97601318359375	
209	0.836	0.0	0.0	0.0	0.0	0.006	0.003	0.003	0.006	9.749787710571288	-0.46686932373046874	0.061650692749023434	2.574920654296875	-3.62396240234375	-0.3662109375	9.592368951416015	0.7870937957763672	0.36391865234375	0.232696533203125	-5.11932373046875	-3.997802734375	9.657012396240233	0.2280477081298828	0.15382745666503905	3.002166748046875	-4.817962646484375	-1.399993896484375	
210	0.84	0.0	0.0	0.0	0.0	0.006	0.003	0.003	0.006	9.819219558715819	-0.4944026428222656	-0.3489548919677734	4.444122314453125	-4.703521728515625	-0.74005126953125	9.724648593139648	0.5039794494628906	0.18136077575683593	-0.06103515625	-4.985809326171875	-3.85284423828125	9.777919580078125	0.037708676147460936	-0.10714052429199218	2.483367919921875	-4.84466552734375	-1.941680908203125	
211	0.844	0.0	0.0	0.0	0.0	0.003	0.003	0.003	0.006	9.917381826782226	-0.5704185455322265	-0.14006079711914063	2.666473388671875	-3.452301025390625	-0.522613525390625	9.727641345214844	0.5823895538330078	0.08978256225585937	-0.1678466796875	-5.0811767578125	-3.650665283203125	9.867702142333984	0.20231004028320312	-0.062249243164062495	2.536773681640625	-4.375457763671875	-1.7242431640625	
212	0.848	0.0	0.0	0.0	0.0	0.003	0.006	0.006	0.006	9.963470208740233	-0.4495113616943359	-0.3082534637451172	5.04302978515625	-4.802703857421875	-0.827789306640625	9.561244329833984	0.6530185028076172	0.2555810272216797	0.209808349609375	-5.5999755859375	-4.047393798828125	9.619303720092773	0.14484920043945312	-0.09756371765136718	2.5787353515625	-4.665374755859375	-1.77764892578125	
213	0.852	0.0	0.0	0.0	0.0	0.003	0.003	0.003	0.003	9.90181951599121	-0.469263525390625	-0.1227028350830078	2.9296875	-3.8909912109375	-0.408172607421875	9.64623848876953	0.6248866333007812	0.1657984649658203	0.278472900390625	-5.313873291015625	-3.551483154296875	9.737218151855469	0.34656069030761716	-0.0053869537353515625	2.437591552734375	-4.57763671875	-1.251220703125	
214	0.856	0.0	0.0	0.0	0.0	0.006	0.003	0.003	0.003	10.043675964355469	-0.5584475372314452	-0.40761283264160153	4.802703857421875	-4.75311279296875	-0.78582763671875	9.819219558715819	0.4842272857666015	0.017956512451171875	0.40435791015625	-5.199432373046875	-3.6773681640625	10.001777435302733	-0.027533319091796873	-0.16041151123046873	2.841949462890625	-4.52423095703125	-1.3885498046875	
215	0.86	0.0	0.0	0.0	0.0	0.003	0.003	0.006	0.003	9.931148486328125	-0.6811503723144531	-0.13168109130859373	5.558013916015625	-4.974365234375	-0.949859619140625	9.572616787719726	0.6607996582031249	0.2645592834472656	0.06103515625	-5.191802978515625	-3.635406494140625	9.751583361816406	0.3956418243408203	-0.059256491088867186	2.50244140625	-4.40216064453125	-1.605987548828125	
216	0.864	0.0	0.0	0.0	0.0	0.003	0.003	0.003	0.003	9.916184725952148	-0.6392518432617187	-0.23343466186523437	4.486083984375	-4.695892333984375	-0.850677490234375	9.664195001220703	0.5776011505126952	0.14245499877929688	0.400543212890625	-5.397796630859375	-3.711700439453125	9.792284790039062	0.1149216796875	-0.0526724365234375	2.38800048828125	-4.63104248046875	-1.2664794921875	
217	0.868	0.0	0.0	0.0	0.0	0.003	0.003	0.003	0.003	9.877877499389648	-0.6344634399414062	0.05805939025878906	5.031585693359375	-4.7454833984375	-0.96893310546875	9.943119494628906	0.7936778503417968	0.0005985504150390625	0.55694580078125	-5.13458251953125	-3.65447998046875	9.86291373901367	0.28371289672851563	0.047285482788085934	2.902984619140625	-4.638671875	-1.5411376953125	
218	0.872	0.0	0.0	0.0	0.0	0.006	0.003	0.003	0.003	9.903615167236328	-0.7266402038574218	-0.12988544006347655	4.39453125	-4.49371337890625	-0.79345703125	9.726444244384766	0.5482721801757812	0.21607669982910155	0.385284423828125	-5.4473876953125	-3.681182861328125	9.959280355834961	0.016160861206054686	-0.13407529296874998	2.5482177734375	-4.566192626953125	-1.59454345703125	
219	0.876	0.0	0.0	0.0	0.0	0.003	0.003	0.003	0.006	9.819219558715819	-0.6087257720947266	0.06823474731445311	4.1046142578125	-4.077911376953125	-0.701904296875	9.779715231323241	0.8044517578125	0.05686228942871093	0.335693359375	-5.214691162109375	-3.5247802734375	10.141239682006836	0.33698388366699217	-0.5410895751953124	2.90679931640625	-4.299163818359375	-1.556396484375	
220	0.88	0.0	0.0	0.0	0.0	0.009000000000000001	0.003	0.003	0.003	9.794678991699218	-0.3890577697753906	0.25318682556152344	3.398895263671875	-3.96728515625	-0.316619873046875	9.763554370117188	0.5398924743652344	0.14185644836425781	0.274658203125	-5.42449951171875	-3.57818603515625	9.93414123840332	0.08798691101074219	-0.06943184814453125	2.8076171875	-4.69970703125	-1.25885009765625	
221	0.884	0.0	0.0	0.0	0.0	0.003	0.003	0.003	0.006	9.952696301269532	-0.6494272003173828	-0.14425065002441406	4.40216064453125	-4.169464111328125	-0.5340576171875	9.890447058105469	0.6787561706542968	0.013168109130859374	0.370025634765625	-5.008697509765625	-3.56292724609375	10.33696566772461	0.13407529296874998	-0.5925649108886718	2.689361572265625	-4.314422607421875	-1.918792724609375	
222	0.888	0.0	0.0	0.0	0.0	0.003	0.003	0.003	0.006	9.78629928588867	-0.2998737579345703	0.24001871643066405	4.467010498046875	-4.37164306640625	-0.690460205078125	9.725845693969726	0.6955155822753906	0.39444472351074217	0.232696533203125	-5.4168701171875	-3.73077392578125	10.126874472045898	0.4465186096191406	-0.3076549133300781	3.11279296875	-4.486083984375	-1.140594482421875	
223	0.892	0.0	0.0	0.0	0.0	0.006	0.003	0.006	0.006	9.994594830322265	-0.6189011291503906	-0.1149216796875	2.35748291015625	-3.4637451171875	-0.400543212890625	9.83178911743164	0.6823474731445313	0.08439560852050781	0.499725341796875	-4.9591064453125	-3.36456298828125	10.220846887207031	0.1867477294921875	-0.4722562774658203	2.925872802734375	-4.3792724609375	-1.392364501953125	
224	0.896	0.0	0.0	0.0	0.0	0.003	0.003	0.003	0.003	9.809044201660155	-0.2920926025390625	0.2980781066894531	5.2490234375	-4.70733642578125	-0.797271728515625	9.883264453125	0.6590040069580078	0.27892449340820313	0.3662109375	-5.340576171875	-3.795623779296875	10.337564218139647	0.3387795349121094	-0.3920505218505859	3.02886962890625	-4.43267822265625	-1.308441162109375	
225	0.9	0.0	0.0	0.0	0.0	0.003	0.003	0.003	0.006	9.80006594543457	-0.4267664459228515	0.22744915771484372	2.552032470703125	-3.452301025390625	-0.78582763671875	9.948506448364258	0.7876923461914062	0.0017956512451171875	0.54168701171875	-5.126953125	-4.184722900390625	10.19510921936035	0.022146365356445312	-0.4010287780761719	3.0975341796875	-4.50897216796875	-1.239776611328125	
226	0.904	0.0	0.0	0.0	0.0	0.003	0.003	0.003	0.006	9.69831237487793	-0.2214636535644531	0.3585316986083984	4.512786865234375	-4.41741943359375	-0.843048095703125	9.74859060974121	0.7936778503417968	0.3435679382324219	0.247955322265625	-5.344390869140625	-3.589630126953125	10.088567245483398	0.479438882446289	-0.26276363220214843	2.960205078125	-4.673004150390625	-1.0986328125	
227	0.908	0.0	0.0	0.0	0.0	0.051000000000000004	4.656	4.671	4.647	9.867702142333984	-0.4674678741455078	0.09516951599121093	2.2125244140625	-3.078460693359375	-0.499725341796875	10.001178884887695	0.6949170318603515	-0.07302315063476562	0.396728515625	-5.321502685546875	-3.95965576171875	10.238803399658202	0.020949264526367185	-0.42018239135742186	3.02886962890625	-4.64630126953125	-1.148223876953125	
228	0.912	0.0	0.0	0.0	0.0	4.644	4.674	4.674	4.647	9.89583401184082	-0.7661445312499999	0.044292730712890624	1.407623291015625	-2.819061279296875	-0.3662109375	9.746794958496093	0.7398083129882812	0.33399113159179683	0.37384033203125	-5.43212890625	-4.1046142578125	10.223241088867187	0.31483751831054685	0.12808978881835936	2.44903564453125	-4.4097900390625	-1.86920166015625	
229	0.916	0.0	0.0	0.0	0.0	4.644	4.674	4.674	4.647	9.8311905670166	-0.5309142181396485	0.13646949462890623	2.26593017578125	-3.391265869140625	-0.370025634765625	9.874884747314452	0.7781155395507812	0.013766659545898436	0.30517578125	-5.28717041015625	-3.875732421875	10.070012182617187	0.09636661682128905	-0.33698388366699217	3.162384033203125	-4.67681884765625	-1.277923583984375	
230	0.92	0.0	0.0	0.0	0.0	4.647	4.674	4.6770000000000005	4.638	9.872490545654296	-0.7601590270996094	0.0526724365234375	1.3580322265625	-2.567291259765625	-0.377655029296875	9.76175871887207	0.7451952667236328	0.19871873779296872	0.446319580078125	-5.359649658203125	-4.047393798828125	9.688137017822266	0.18435352783203124	0.18555062866210936	2.597808837890625	-4.657745361328125	-1.827239990234375	
231	0.924	0.0	0.0	0.0	0.0	4.644	4.674	4.6770000000000005	4.6290000000000004	9.964667309570311	-0.6452373474121094	-0.11372457885742186	2.9449462890625	-3.509521484375	-0.606536865234375	9.80724855041504	0.5183446594238281	0.10175357055664062	0.286102294921875	-5.084991455078125	-4.169464111328125	10.18313821105957	0.025737667846679687	-0.30705636291503907	3.22723388671875	-4.886627197265625	-1.0986328125	
232	0.928	0.0	0.0	0.0	0.0	4.65	4.674	4.6770000000000005	4.623	9.783306533813477	-0.8086416107177734	0.11671733093261719	2.08282470703125	-3.18145751953125	-0.545501708984375	9.679158761596678	0.8014590057373047	0.2603694305419922	0.5645751953125	-5.40924072265625	-4.03594970703125	9.709086282348633	0.12389993591308593	0.1466448516845703	2.6092529296875	-4.703521728515625	-2.044677734375	
233	0.932	0.0	0.0	0.0	0.0	4.65	4.671	4.674	4.635	9.78031378173828	-0.8409633331298828	0.009576806640625	1.5411376953125	-2.964019775390625	-0.293731689453125	9.715670336914062	0.6254851837158203	0.09816226806640624	0.26702880859375	-5.161285400390625	-4.245758056640625	9.682151513671874	0.3172317199707031	-0.02154781494140625	2.4566650390625	-4.756927490234375	-1.506805419921875	
234	0.936	0.0	0.0	0.0	0.0	4.644	4.6770000000000005	4.6770000000000005	4.647	9.819818109130859	-0.93852705078125	0.08379705810546874	1.712799072265625	-3.11279296875	-0.48065185546875	9.656413845825195	0.5931634613037109	0.36092590026855464	-0.370025634765625	-4.779815673828125	-3.83758544921875	9.84555577697754	0.0047884033203125	0.0909796630859375	2.64739990234375	-4.550933837890625	-1.682281494140625	
235	0.9400000000000001	0.0	0.0	0.0	0.0	0.003	0.003	0.003	0.006	9.828197814941406	-0.7876923461914062	-0.017956512451171875	1.99127197265625	-3.276824951171875	-0.54168701171875	9.745597857666015	0.5865794067382812	0.08259995727539061	0.209808349609375	-5.367279052734375	-4.0283203125	9.819818109130859	0.20231004028320312	-0.12030863342285156	2.5634765625	-4.72259521484375	-1.64031982421875	
236	0.9440000000000001	0.0	0.0	0.0	0.0	0.006	0.006	0.003	0.006	9.764152920532226	-0.8110358123779297	0.11851298217773437	2.071380615234375	-3.070831298828125	-0.0457763671875	9.566032733154296	0.6637924102783203	0.35134909362792965	-0.152587890625	-5.0048828125	-4.11224365234375	9.645041387939452	0.028730419921875	0.08140285644531249	2.185821533203125	-4.39453125	-1.7547607421875	
237	0.9480000000000001	0.0	0.0	0.0	0.0	0.006	0.003	0.003	0.003	9.807847100830077	-0.8649053497314453	-0.0430956298828125	1.911163330078125	-3.108978271484375	-0.408172607421875	9.713276135253906	0.4734533782958984	0.15083470458984374	0.02288818359375	-5.60760498046875	-3.692626953125	9.772532626342773	0.15741875915527342	0.017956512451171875	2.323150634765625	-4.688262939453125	-1.697540283203125	
238	0.9520000000000001	0.0	0.0	0.0	0.0	0.003	0.003	0.003	0.003	9.923367330932617	-0.7529764221191406	-0.1005564697265625	2.777099609375	-3.41033935546875	-0.514984130859375	9.654019644165038	0.6278793853759765	0.32022447204589843	-0.02288818359375	-4.642486572265625	-4.405975341796875	9.757568865966796	0.004189852905273437	0.08738836059570312	2.422332763671875	-4.547119140625	-1.73187255859375	
239	0.9560000000000001	0.0	0.0	0.0	0.0	0.003	0.003	0.003	0.0	9.846752877807617	-0.7302315063476562	-0.17896657409667968	1.6937255859375	-3.08990478515625	-0.331878662109375	9.631274728393555	0.4638765716552734	0.1657984649658203	0.030517578125	-5.115509033203125	-3.753662109375	9.840767373657226	0.12330138549804687	-0.062249243164062495	2.651214599609375	-4.61578369140625	-1.605987548828125	
240	0.96	0.0	0.0	0.0	0.0	0.006	0.003	0.006	0.006	9.871293444824218	-0.5967547637939453	-0.04967968444824218	4.08172607421875	-4.169464111328125	-0.240325927734375	9.655815295410155	0.6637924102783203	0.22505495605468748	0.316619873046875	-5.184173583984375	-3.818511962890625	9.721057290649414	0.16280571289062498	0.0796072052001953	2.35748291015625	-4.5013427734375	-1.743316650390625	
241	0.964	0.0	0.0	0.0	0.0	0.0	0.003	0.003	0.003	9.973047015380859	-0.6260837341308594	-0.04129997863769531	4.970550537109375	-4.98199462890625	-0.9002685546875	9.775525378417969	0.4255693450927734	0.0	0.362396240234375	-5.14984130859375	-3.726959228515625	9.945513696289062	0.05985504150390625	-0.0909796630859375	2.223968505859375	-4.31060791015625	-1.617431640625	
242	0.968	0.0	0.0	0.0	0.0	0.006	0.003	0.003	0.003	9.986215124511718	-0.5099649536132812	-0.086191259765625	4.459381103515625	-4.39453125	-0.713348388671875	9.82460651245117	0.6817489227294922	-0.032920272827148434	0.217437744140625	-5.3558349609375	-3.871917724609375	9.726444244384766	0.14604630126953125	0.0652419952392578	2.349853515625	-4.558563232421875	-1.617431640625	
243	0.972	0.0	0.0	0.0	0.0	0.003	0.003	0.003	0.003	9.956886154174803	-0.6643909606933593	-0.09816226806640624	5.08880615234375	-4.840850830078125	-0.8544921875	9.666589202880859	0.4465186096191406	0.028730419921875	0.911712646484375	-5.611419677734375	-3.4942626953125	9.81263550415039	0.07062894897460938	-0.1197100830078125	2.67791748046875	-4.64630126953125	-1.56402587890625	
244	0.976	0.0	0.0	0.0	0.0	0.003	0.003	0.006	0.006	9.99220062866211	-0.6793547210693359	-0.2723404388427734	4.547119140625	-4.5928955078125	-0.904083251953125	9.891644158935547	0.6751648681640625	-0.13287819213867186	0.362396240234375	-5.1727294921875	-3.65447998046875	10.258555563354491	0.31663316955566406	-0.4914098907470703	2.819061279296875	-4.43267822265625	-1.194000244140625	
245	0.98	0.0	0.0	0.0	0.0	0.006	0.003	0.003	0.009000000000000001	9.898826763916015	-0.7517793212890624	-0.040701428222656245	5.374908447265625	-4.940032958984375	-0.995635986328125	9.810839852905273	0.594959112548828	0.11791443176269531	0.1068115234375	-5.19561767578125	-3.570556640625	9.887454306030273	-0.003591302490234375	-0.14784195251464843	2.468109130859375	-4.787445068359375	-1.46484375	
246	0.984	0.0	0.0	0.0	0.0	0.003	0.003	0.003	0.003	9.76235726928711	-0.6206967803955078	0.17477672119140625	3.261566162109375	-3.864288330078125	-0.6561279296875	9.783905084228515	0.8002619049072265	-0.025737667846679687	0.26702880859375	-5.283355712890625	-3.528594970703125	10.198101971435547	0.4112041351318359	-0.4782417816162109	2.838134765625	-4.29534912109375	-1.40380859375	
247	0.988	0.0	0.0	0.0	0.0	0.006	0.003	0.003	0.006	9.8449572265625	-0.6212953308105469	0.12150573425292968	6.267547607421875	-5.5389404296875	-0.9613037109375	9.795876092529296	0.5213374114990235	0.1610100616455078	-0.026702880859375	-5.260467529296875	-3.6773681640625	10.20229182434082	0.13347674255371092	-0.29867665710449215	3.124237060546875	-4.8675537109375	-1.09100341796875	
248	0.992	0.0	0.0	0.0	0.0	0.0	0.003	0.003	0.003	9.840767373657226	-0.7757213378906249	0.11611878051757812	2.79998779296875	-3.2501220703125	-0.58746337890625	9.964667309570311	0.8834604125976562	0.03232172241210937	0.782012939453125	-5.02777099609375	-4.0435791015625	10.299256991577147	0.3429693878173828	-0.5363011718749999	2.99835205078125	-4.390716552734375	-1.522064208984375	
249	0.996	0.0	0.0	0.0	0.0	0.003	0.003	0.003	0.006	9.779116680908203	-0.6949170318603515	0.2651578338623047	0.873565673828125	-2.5482177734375	-0.507354736328125	9.749787710571288	0.517746109008789	0.2507926239013672	0.16021728515625	-5.298614501953125	-3.89862060546875	10.202890374755858	0.15562310791015624	-0.36571430358886714	3.18145751953125	-4.791259765625	-1.361846923828125	
250	1.0	0.0	0.0	0.0	0.0	0.003	0.003	0.003	0.003	9.809642752075195	-0.6344634399414062	0.1640028137207031	2.193450927734375	-2.933502197265625	-0.492095947265625	9.88266590270996	0.9510966094970703	0.11432312927246092	0.720977783203125	-5.2642822265625	-3.95965576171875	10.092757098388672	0.20051438903808594	-0.3711012573242187	2.971649169921875	-4.46319580078125	-1.476287841796875	
251	1.004	0.0	0.0	0.0	0.0	0.003	0.003	0.006	0.003	9.738415252685547	-0.3890577697753906	0.18435352783203124	2.071380615234375	-2.895355224609375	-0.457763671875	9.75517466430664	0.6021417175292968	0.30346506042480464	-0.125885009765625	-5.062103271484375	-3.8604736328125	10.31062944946289	0.21188684692382811	-0.4477157104492187	2.910614013671875	-4.627227783203125	-1.224517822265625	
252	1.008	0.0	0.0	0.0	0.0	0.006	0.003	0.003	0.006	9.833584768676758	-0.41838674011230464	0.1227028350830078	2.6397705078125	-3.284454345703125	-0.560760498046875	9.91558617553711	0.8505401397705078	0.05686228942871093	0.263214111328125	-5.260467529296875	-3.814697265625	10.110713610839843	0.19512743530273435	-0.3333925811767578	3.124237060546875	-4.550933837890625	-1.678466796875	
253	1.012	0.0	0.0	0.0	0.0	0.006	0.003	0.003	0.003	9.777321029663085	-0.3573345977783203	0.0987608184814453	2.498626708984375	-3.345489501953125	-0.6866455078125	9.667786303710937	0.7104793426513671	0.38367081604003905	0.377655029296875	-5.268096923828125	-3.9520263671875	10.17056865234375	0.28012159423828126	-0.36152445068359373	3.749847412109375	-4.825592041015625	-1.087188720703125	
254	1.016	0.0	0.0	0.0	0.0	0.006	0.003	0.006	0.006	9.83837317199707	-0.5506663818359374	-0.04967968444824218	2.35748291015625	-3.48663330078125	-0.331878662109375	9.827599264526366	0.7613561279296874	-0.011971008300781249	0.4730224609375	-5.069732666015625	-4.146575927734375	10.16338604736328	0.08678981018066406	-0.36631285400390623	3.1890869140625	-4.528045654296875	-1.42669677734375	
255	1.02	0.0	0.0	0.0	0.0	0.009000000000000001	0.003	0.003	0.006	9.791686239624022	-0.3806780639648437	0.11611878051757812	3.170013427734375	-3.76129150390625	-0.75531005859375	9.734823950195311	0.7739256866455078	0.33758243408203126	0.492095947265625	-5.39398193359375	-4.02069091796875	9.841964474487304	0.316034619140625	0.06404489440917968	2.655029296875	-4.5013427734375	-1.6632080078125	
256	1.024	0.0	0.0	0.0	0.0	0.003	0.003	0.003	0.006	9.765948571777344	-0.36391865234375	0.1322796417236328	3.12042236328125	-3.79180908203125	-0.904083251953125	9.83178911743164	0.7805097412109374	0.034715924072265626	0.591278076171875	-5.054473876953125	-4.4403076171875	10.134655627441406	0.13347674255371092	-0.36750995483398435	3.330230712890625	-4.642486572265625	-1.346588134765625	
257	1.028	0.0	0.0	0.0	0.0	0.003	0.006	0.003	0.003	9.753977563476562	-0.4429273071289062	0.20470424194335937	2.46429443359375	-3.65447998046875	-0.396728515625	9.605537060546874	0.6625953094482422	0.4291606475830078	-0.087738037109375	-5.16510009765625	-3.940582275390625	9.789292037963866	0.39324762268066404	0.07122749938964844	2.63214111328125	-4.756927490234375	-1.682281494140625	
258	1.032	0.0	0.0	0.0	0.0	0.003	0.003	0.006	0.003	9.8449572265625	-0.4944026428222656	0.054468087768554684	2.0904541015625	-2.89154052734375	-0.38909912109375	9.87608184814453	0.7679401824951172	0.09217676391601562	0.263214111328125	-5.138397216796875	-4.314422607421875	9.746196408081055	0.020949264526367185	0.07362170104980469	2.315521240234375	-4.856109619140625	-1.750946044921875	
259	1.036	0.0	0.0	0.0	0.0	0.003	0.003	0.006	0.003	9.80724855041504	-0.6165069274902344	0.015562310791015624	2.429962158203125	-3.082275390625	-0.232696533203125	9.600150106811522	0.5907692596435546	0.47764323120117186	0.030517578125	-5.25665283203125	-4.0435791015625	9.746794958496093	0.3447650390625	0.1149216796875	2.7618408203125	-4.63104248046875	-1.697540283203125	
260	1.04	0.0	0.0	0.0	0.0	0.003	2.154	4.662	4.623	9.858125335693359	-0.5578489868164063	-0.061650692749023434	1.495361328125	-2.9754638671875	-0.29754638671875	9.819219558715819	0.8421604339599609	0.12449848632812499	0.087738037109375	-5.359649658203125	-3.6163330078125	9.65940659790039	0.1370680450439453	0.12569558715820311	2.506256103515625	-4.69970703125	-1.6021728515625	
261	1.044	0.0	0.0	0.0	0.0	4.644	4.671	4.674	4.638	9.815628256225585	-0.6284779357910156	0.02454056701660156	2.51007080078125	-3.48663330078125	-0.6256103515625	9.642647186279296	0.5758054992675781	0.4429273071289062	-0.0152587890625	-4.978179931640625	-4.0130615234375	9.749787710571288	0.028730419921875	0.037708676147460936	2.635955810546875	-4.8370361328125	-1.926422119140625	
262	1.048	0.0	0.0	0.0	0.0	4.65	4.6770000000000005	4.6770000000000005	4.644	9.880271701049804	-0.6865373260498047	-0.14784195251464843	3.612518310546875	-4.15802001953125	-0.6256103515625	9.725247143554688	0.594959112548828	0.09277531433105468	0.530242919921875	-5.5084228515625	-3.749847412109375	9.715670336914062	0.18614917907714842	0.1149216796875	2.490997314453125	-4.451751708984375	-1.7242431640625	
263	1.052	0.0	0.0	0.0	0.0	4.647	4.6770000000000005	4.674	4.644	9.743802206420899	-0.6602011077880859	0.13467384338378904	2.582550048828125	-3.559112548828125	-0.3509521484375	9.599551556396484	0.7416039642333984	0.3764882110595703	0.091552734375	-5.023956298828125	-4.184722900390625	9.688137017822266	0.07302315063476562	0.09337386474609374	2.40325927734375	-4.46319580078125	-1.83868408203125	
264	1.056	0.0	0.0	0.0	0.0	4.641	4.674	4.674	4.65	9.827000714111328	-0.623090982055664	0.029927520751953124	2.742767333984375	-3.734588623046875	-0.576019287109375	9.67137760620117	0.4997895965576172	0.23044190979003906	0.4425048828125	-5.45501708984375	-4.02069091796875	9.719860189819336	0.2507926239013672	0.14006079711914063	2.338409423828125	-4.512786865234375	-1.613616943359375	
265	1.06	0.0	0.0	0.0	0.0	4.65	4.6770000000000005	4.6770000000000005	4.641	9.676166009521484	-0.7960720520019531	0.21906945190429686	2.12860107421875	-3.0059814453125	0.003814697265625	9.718064538574218	0.6578069061279297	0.25258827514648435	0.02288818359375	-5.14984130859375	-3.955841064453125	9.801861596679688	-0.07302315063476562	0.03172317199707031	2.529144287109375	-4.46319580078125	-2.071380615234375	
266	1.064	0.0	0.0	0.0	0.0	4.644	4.6770000000000005	4.6770000000000005	4.6290000000000004	9.88386300354004	-0.6548141540527344	-0.027533319091796873	2.09808349609375	-3.124237060546875	-0.385284423828125	9.62109937133789	0.5303156677246094	0.2771288421630859	0.0	-5.30242919921875	-3.82232666015625	9.898228213500976	0.39145197143554683	-0.08798691101074219	2.536773681640625	-4.543304443359375	-1.3275146484375	
267	1.068	0.0	0.0	0.0	0.0	4.647	4.674	0.003	0.003	9.994594830322265	-0.2292448089599609	-0.15382745666503905	4.6844482421875	-4.268646240234375	-0.705718994140625	9.64683703918457	0.699106884765625	0.2424129180908203	-0.0152587890625	-4.970550537109375	-3.99017333984375	9.694122521972655	-0.022146365356445312	0.09816226806640624	2.3651123046875	-4.314422607421875	-1.708984375	
268	1.072	0.0	0.0	0.0	0.0	0.006	0.003	0.003	0.003	9.963470208740233	-0.7595604766845703	-0.19931728820800781	1.8310546875	-3.009796142578125	-0.19073486328125	9.874884747314452	0.565031591796875	0.09277531433105468	0.244140625	-5.48553466796875	-3.2501220703125	9.956886154174803	0.2651578338623047	-0.1406593475341797	2.471923828125	-4.344940185546875	-1.361846923828125	
269	1.076	0.0	0.0	0.0	0.0	0.003	0.003	0.003	0.003	10.020332498168944	-0.33698388366699217	-0.23582886352539062	4.390716552734375	-4.61578369140625	-0.762939453125	9.661800799560547	0.6194996795654296	0.2549824768066406	-0.431060791015625	-4.96673583984375	-4.09698486328125	10.264541067504883	0.13646949462890623	-0.6368576416015624	2.8076171875	-4.33349609375	-1.308441162109375	
270	1.08	0.0	0.0	0.0	0.0	0.003	0.003	0.006	0.003	9.97903251953125	-0.8164227661132812	-0.28730419921875	2.25067138671875	-3.459930419921875	-0.301361083984375	9.762955819702148	0.5919663604736328	0.15442600708007811	0.270843505859375	-5.413055419921875	-3.41796875	9.80066449584961	0.23044190979003906	-0.030526071166992186	2.399444580078125	-4.35638427734375	-1.64031982421875	
271	1.084	0.0	0.0	0.0	0.0	0.003	0.006	0.003	0.003	10.069413632202147	-0.3495534423828125	-0.31543606872558594	4.917144775390625	-4.573822021484375	-0.965118408203125	9.941922393798828	0.7134720947265625	-0.07481880187988281	0.896453857421875	-5.367279052734375	-3.795623779296875	10.242394702148436	0.24959552307128904	-0.5386953735351562	2.777099609375	-4.306793212890625	-1.285552978515625	
272	1.088	0.0	0.0	0.0	0.0	0.003	0.003	0.003	0.003	9.715670336914062	-0.1562216583251953	0.3058592620849609	6.305694580078125	-5.504608154296875	-1.300811767578125	9.82460651245117	0.5620388397216797	0.11552023010253906	0.453948974609375	-5.34820556640625	-3.528594970703125	10.269928021240235	0.10115502014160156	-0.46507367248535153	3.23486328125	-4.711151123046875	-1.506805419921875	
273	1.092	0.0	0.0	0.0	0.0	0.003	0.003	0.006	0.006	10.001777435302733	-0.28790274963378903	-0.15562310791015624	6.038665771484375	-5.329132080078125	-1.041412353515625	9.904812268066406	0.7487865692138671	-0.037110125732421874	0.957489013671875	-5.2490234375	-3.7384033203125	10.194510668945313	0.35673604736328124	-0.49679684448242184	2.880096435546875	-4.45556640625	-1.15203857421875	
274	1.096	0.0	0.0	0.0	0.0	0.006	0.003	0.003	0.006	9.6779616607666	-0.3902548706054687	0.373495458984375	4.863739013671875	-4.779815673828125	-0.9613037109375	9.764751470947266	0.7906850982666015	0.28969840087890625	0.02288818359375	-4.89044189453125	-3.79180908203125	10.229825143432617	0.13168109130859373	-0.4465186096191406	3.082275390625	-4.642486572265625	-1.1444091796875	
275	1.1	0.0	0.0	0.0	0.0	0.0	0.003	0.003	0.003	9.904812268066406	-0.6087257720947266	-0.011372457885742187	1.46484375	-2.895355224609375	-0.35858154296875	9.967061511230469	0.6877344268798827	-0.07721300354003906	0.568389892578125	-5.2337646484375	-3.79180908203125	10.29147583618164	0.3381809844970703	-0.5087678527832031	3.23486328125	-4.78363037109375	-1.628875732421875	
276	1.104	0.0	0.0	0.0	0.0	0.003	0.003	0.003	0.003	9.683348614501952	-0.39983167724609375	0.3716998077392578	3.24249267578125	-3.528594970703125	-0.759124755859375	9.78629928588867	0.7805097412109374	0.3094505645751953	0.2899169921875	-5.2642822265625	-3.849029541015625	10.22204398803711	0.1083376251220703	-0.4112041351318359	3.021240234375	-4.634857177734375	-1.16729736328125	
277	1.108	0.0	0.0	0.0	0.0	0.006	0.003	0.003	0.003	9.817423907470703	-0.4542997650146484	0.08678981018066406	1.16729736328125	-2.468109130859375	-0.118255615234375	9.795876092529296	0.690128628540039	0.27353753967285155	0.12969970703125	-5.336761474609375	-4.261016845703125	10.13884548034668	0.2154781494140625	-0.5063736511230469	3.13568115234375	-4.79888916015625	-1.399993896484375	
278	1.112	0.0	0.0	0.0	0.0	0.0	0.006	0.003	0.006	9.616909518432617	-0.43454760131835934	0.4578910675048828	2.956390380859375	-3.77655029296875	-0.69427490234375	9.79946739501953	0.6973112335205077	0.30406361083984373	0.331878662109375	-5.077362060546875	-3.917694091796875	10.280701928710936	0.09516951599121093	-0.39923312683105466	3.01361083984375	-4.791259765625	-1.094818115234375	
279	1.116	0.0	0.0	0.0	0.0	0.006	0.003	0.003	0.006	9.814431155395507	-0.6554127044677734	0.09217676391601562	-0.698089599609375	-1.5411376953125	-0.164031982421875	9.866505041503906	0.7601590270996094	0.21906945190429686	0.213623046875	-4.9591064453125	-4.26483154296875	10.184335311889647	0.1370680450439453	-0.4944026428222656	2.979278564453125	-4.38690185546875	-1.51824951171875	
280	1.12	0.0	0.0	0.0	0.0	0.006	0.003	0.003	0.003	9.898826763916015	-0.6697779144287109	-0.022744915771484374	1.068115234375	-2.593994140625	-0.3662109375	9.742605105590819	0.6362590911865234	0.38307226562499996	0.091552734375	-5.462646484375	-3.978729248046875	9.73063409729004	0.23822306518554687	0.06284779357910156	2.597808837890625	-4.4097900390625	-1.44195556640625	
281	1.124	0.0	0.0	0.0	0.0	0.009000000000000001	0.003	0.006	0.006	9.877877499389648	-0.5434837768554687	0.008379705810546874	-0.720977783203125	-1.552581787109375	0.3204345703125	9.90122096557617	0.8457517364501953	0.06643909606933593	0.22125244140625	-5.34820556640625	-4.1351318359375	10.102932455444336	0.17776947326660156	-0.38845921936035155	3.0975341796875	-4.207611083984375	-1.300811767578125	
282	1.1280000000000001	0.0	0.0	0.0	0.0	0.012	0.003	0.003	0.003	9.967061511230469	-0.6619967590332031	-0.19991583862304688	2.044677734375	-3.139495849609375	-0.579833984375	9.777919580078125	0.5207388610839844	0.14903905334472656	0.148773193359375	-5.176544189453125	-4.085540771484375	9.787496386718749	0.19093758239746092	0.06464344482421874	2.655029296875	-4.608154296875	-1.506805419921875	
283	1.1320000000000001	0.0	0.0	0.0	0.0	0.003	0.003	0.003	0.003	9.945513696289062	-0.6404489440917969	-0.14425065002441406	0.7781982421875	-2.593994140625	-0.301361083984375	9.860519537353515	0.8110358123779297	0.06404489440917968	0.457763671875	-5.115509033203125	-3.9825439453125	9.72943699645996	-0.03591302490234375	-0.1292868896484375	2.292633056640625	-4.474639892578125	-1.873016357421875	
284	1.1360000000000001	0.0	0.0	0.0	0.0	0.003	0.003	0.003	0.003	9.932345587158203	-0.6572083557128906	-0.15322890625	2.399444580078125	-3.543853759765625	-0.812530517578125	9.676166009521484	0.6057330200195312	0.3172317199707031	0.179290771484375	-4.909515380859375	-4.09698486328125	9.742605105590819	0.3327940307617187	0.07601590270996093	2.655029296875	-4.76837158203125	-1.312255859375	
285	1.1400000000000001	0.0	0.0	0.0	0.0	0.006	0.006	0.003	0.003	9.785102185058593	-0.7685387329101562	-0.04608838195800781	3.7994384765625	-4.180908203125	-0.492095947265625	9.756371765136718	0.6464344482421874	0.00718260498046875	0.293731689453125	-5.237579345703125	-3.84521484375	9.785102185058593	-0.07062894897460938	-0.14903905334472656	2.532958984375	-4.947662353515625	-1.9683837890625	
286	1.1440000000000001	0.0	0.0	0.0	0.0	0.003	0.003	0.006	0.006	9.897629663085937	-0.7332242584228515	-0.08798691101074219	2.490997314453125	-3.032684326171875	-0.514984130859375	9.651625442504882	0.5776011505126952	0.4016273284912109	0.293731689453125	-5.176544189453125	-3.986358642578125	9.732429748535155	0.3435679382324219	0.16759411621093748	2.574920654296875	-4.45556640625	-1.918792724609375	
287	1.1480000000000001	0.0	0.0	0.0	0.0	0.003	0.003	0.003	0.006	9.842563024902343	-0.642244595336914	-0.15083470458984374	3.2806396484375	-4.177093505859375	-0.904083251953125	9.704896429443359	0.6913257293701172	0.07062894897460938	0.293731689453125	-5.035400390625	-3.9215087890625	9.682151513671874	-0.044891281127929686	0.07721300354003906	2.17437744140625	-4.688262939453125	-1.97601318359375	
288	1.1520000000000001	0.0	0.0	0.0	0.0	0.003	0.003	0.003	0.006	9.880870251464843	-0.6254851837158203	-0.09217676391601562	5.04302978515625	-4.680633544921875	-0.6561279296875	9.663596450805663	0.5189432098388671	0.22685060729980466	-0.1678466796875	-5.06591796875	-3.88336181640625	9.74200655517578	0.28790274963378903	0.032920272827148434	2.292633056640625	-4.543304443359375	-1.83868408203125	
289	1.156	0.0	0.0	0.0	0.0	0.009000000000000001	0.003	0.006	0.003	9.947907897949218	-0.7152677459716796	-0.2765302917480469	2.92205810546875	-3.742218017578125	-0.415802001953125	9.746196408081055	0.6356605407714844	0.0718260498046875	0.217437744140625	-5.252838134765625	-4.00543212890625	9.715670336914062	-0.08200140686035155	0.09337386474609374	2.4871826171875	-4.741668701171875	-1.613616943359375	
290	1.16	0.0	0.0	0.0	0.0	0.003	0.003	0.003	4.416	9.92755718383789	-0.737414111328125	-0.04848258361816406	5.2337646484375	-4.680633544921875	-0.640869140625	9.554660275268555	0.5027823486328125	0.3920505218505859	-0.2899169921875	-4.8828125	-3.9520263671875	9.710881933593749	0.21009119567871093	0.025737667846679687	2.6702880859375	-4.566192626953125	-1.99127197265625	
291	1.164	0.0	0.0	0.0	0.0	4.626	4.668	4.671	4.638	9.930549935913085	-0.7529764221191406	-0.2813186950683594	2.410888671875	-3.490447998046875	-0.225067138671875	9.779116680908203	0.6278793853759765	0.033518823242187495	0.51116943359375	-5.615234375	-3.643035888671875	9.943119494628906	0.28431144714355466	-0.18555062866210936	2.597808837890625	-4.67681884765625	-1.056671142578125	
292	1.168	0.0	0.0	0.0	0.0	4.6290000000000004	4.674	4.674	4.647	9.917980377197265	-0.4327519500732422	-0.08858546142578125	5.779266357421875	-5.07354736328125	-1.04522705078125	9.509768994140625	0.5799953521728515	0.536899722290039	0.05340576171875	-4.84466552734375	-4.05120849609375	9.728838446044922	0.05805939025878906	0.05985504150390625	2.25830078125	-4.383087158203125	-1.995086669921875	
293	1.172	0.0	0.0	0.0	0.0	4.647	4.674	4.6770000000000005	4.638	9.859920986938477	-0.4944026428222656	0.21727380065917967	5.054473876953125	-4.8675537109375	-0.823974609375	9.813234054565429	0.5512649322509765	0.02154781494140625	0.51116943359375	-5.344390869140625	-3.551483154296875	10.014346994018554	0.3387795349121094	-0.21966800231933592	2.58636474609375	-4.55474853515625	-1.1444091796875	
294	1.176	0.0	0.0	0.0	0.0	4.647	4.6770000000000005	4.6770000000000005	4.632	9.816226806640625	-0.55545478515625	0.05805939025878906	4.611968994140625	-4.364013671875	-0.926971435546875	9.818022457885741	0.7661445312499999	0.012569558715820313	0.54168701171875	-5.191802978515625	-3.681182861328125	10.273519323730468	0.022146365356445312	-0.6434416961669921	3.017425537109375	-4.3792724609375	-1.338958740234375	
295	1.18	0.0	0.0	0.0	0.0	4.65	4.674	4.6770000000000005	4.626	9.837176071166992	-0.4513070129394531	0.19393033447265623	4.116058349609375	-4.33349609375	-0.67901611328125	9.750984811401366	0.4914098907470703	0.2232593048095703	-0.213623046875	-5.30242919921875	-3.6163330078125	9.950900650024414	0.42497079467773435	-0.14125789794921875	2.574920654296875	-4.41741943359375	-1.491546630859375	
296	1.184	0.0	0.0	0.0	0.0	4.647	4.671	4.674	4.641	9.929951385498047	-0.536899722290039	-0.054468087768554684	3.50189208984375	-3.60107421875	-0.51116943359375	9.865307940673828	0.8068459594726562	-0.034715924072265626	0.42724609375	-5.06591796875	-3.780364990234375	10.309432348632813	0.02633621826171875	-0.7003039855957031	2.8533935546875	-4.360198974609375	-1.415252685546875	
297	1.188	0.0	0.0	0.0	0.0	4.647	4.6770000000000005	0.003	0.003	9.886257205200195	-0.29867665710449215	0.09636661682128905	5.214691162109375	-4.64630126953125	-0.885009765625	9.782707983398437	0.747589468383789	0.18435352783203124	0.255584716796875	-5.37109375	-3.475189208984375	9.855731134033203	0.3794809631347656	0.00239420166015625	3.0059814453125	-4.5623779296875	-1.12152099609375	
298	1.192	0.0	0.0	0.0	0.0	0.003	0.003	0.003	0.003	9.941323843383788	-0.43634325256347656	-0.19093758239746092	4.3182373046875	-4.29534912109375	-0.949859619140625	9.835978970336914	0.7026981872558593	0.08439560852050781	0.324249267578125	-5.06591796875	-3.658294677734375	10.171765753173828	0.07422025146484375	-0.45669396667480466	2.62451171875	-4.28009033203125	-1.44195556640625	
299	1.196	0.0	0.0	0.0	0.0	0.009000000000000001	0.003	0.003	0.003	9.97125136413574	-0.526125814819336	-0.017956512451171875	4.9591064453125	-4.89044189453125	-0.732421875	9.823409411621093	0.7386112121582031	0.2292448089599609	0.1678466796875	-5.27191162109375	-3.467559814453125	10.242394702148436	0.373495458984375	-0.46627077331542965	3.139495849609375	-4.680633544921875	-1.453399658203125	
300	1.2	0.0	0.0	0.0	0.0	0.003	0.003	0.003	0.006	9.986215124511718	-0.39803602600097654	-0.16220716247558592	4.57763671875	-4.4097900390625	-0.988006591796875	9.828197814941406	0.6985083343505859	0.09157821350097656	0.392913818359375	-5.474090576171875	-4.1351318359375	10.220248336791991	0.14185644836425781	-0.5285200164794922	3.1585693359375	-4.43267822265625	-1.220703125	
301	1.204	0.0	0.0	0.0	0.0	0.003	0.003	0.003	0.006	9.892841259765625	-0.3705027069091797	0.08020575561523437	3.71551513671875	-4.09698486328125	-0.041961669921875	9.783306533813477	0.7769184387207031	0.24181436767578124	0.308990478515625	-5.4168701171875	-3.559112548828125	10.223839639282225	0.2902969512939453	-0.4740519287109375	3.1585693359375	-4.486083984375	-1.224517822265625	
302	1.208	0.0	0.0	0.0	0.0	0.003	0.003	0.003	0.003	9.92755718383789	-0.6607996582031249	-0.05027823486328125	3.421783447265625	-4.12750244140625	-0.6866455078125	9.997587582397461	0.6937199310302734	-0.04608838195800781	0.74005126953125	-5.3863525390625	-4.146575927734375	10.258555563354491	0.2885013000488281	-0.6464344482421874	3.284454345703125	-4.64630126953125	-1.361846923828125	
303	1.212	0.0	0.0	0.0	0.0	0.006	0.003	0.003	0.003	9.673173257446289	-0.6093243225097655	0.29388825378417965	2.178192138671875	-3.19671630859375	-0.560760498046875	9.746794958496093	0.7912836486816406	0.3896563201904297	0.583648681640625	-5.535125732421875	-3.11279296875	10.173561404418944	0.2316390106201172	-0.2861070983886719	3.147125244140625	-4.78363037109375	-1.25885009765625	
304	1.216	0.0	0.0	0.0	0.0	0.003	0.003	0.003	0.006	9.849745629882811	-0.5674257934570313	0.10295067138671875	1.5869140625	-2.902984619140625	-0.3509521484375	9.889848507690429	0.7218518005371093	0.11671733093261719	0.240325927734375	-5.2947998046875	-4.154205322265625	10.177751257324218	0.2741360900878906	-0.47704468078613277	3.376007080078125	-4.413604736328125	-1.1444091796875	
305	1.22	0.0	0.0	0.0	0.0	0.006	0.003	0.003	0.003	9.740809454345703	-0.7260416534423828	0.20350714111328125	0.194549560546875	-2.0294189453125	-0.030517578125	9.660603698730467	0.9020154754638672	0.42975919799804685	0.23651123046875	-5.14984130859375	-4.047393798828125	9.75517466430664	0.12988544006347655	0.13347674255371092	2.605438232421875	-4.634857177734375	-1.522064208984375	
306	1.224	0.0	0.0	0.0	0.0	0.009000000000000001	0.003	0.003	0.003	9.835380419921874	-0.526125814819336	-0.06703764648437499	1.590728759765625	-2.780914306640625	-0.25177001953125	9.950302099609374	0.7320271575927734	0.05985504150390625	0.61798095703125	-5.268096923828125	-4.329681396484375	10.181342559814453	0.22206220397949217	-0.4674678741455078	3.116607666015625	-4.64630126953125	-1.36566162109375	
