	time	dac1	dac2	dac3	dac4	adc1.3	adc2.3	adc3.3	adc4.3	imu1accx	imu1accy	imu1accz	imu1gyrox	imu1gyroy	imu1gyroz	imu2accx	imu2accy	imu2accz	imu2gyrox	imu2gyroy	imu2gyroz	imu3accx	imu3accy	imu3accz	imu3gyrox	imu3gyroy	imu3gyroz	log
0	0.0	0.0	0.0	0.0	0.0	0.003	0.003	0.003	0.003	9.886855755615233	0.19812018737792966	0.0796072052001953	2.57110595703125	-3.90625	-0.9918212890625	9.764751470947266	-0.20949264526367187	0.14305354919433594	0.141143798828125	-5.199432373046875	-2.7618408203125	9.743203656005859	-0.28431144714355466	0.08499415893554688	2.38037109375	-4.840850830078125	-1.42669677734375	estabilizou em 5s, descida em 16s, parou em 25s. 836 RPM
1	0.004	0.0	0.0	0.0	0.0	0.003	0.006	0.003	0.006	9.928155734252929	0.41419688720703124	-0.02454056701660156	3.887176513671875	-4.00543212890625	-1.537322998046875	9.689334118652344	-0.316034619140625	0.2705447875976562	0.255584716796875	-5.10406494140625	-3.780364990234375	9.90181951599121	-0.4171896392822265	-0.08978256225585937	2.4261474609375	-4.314422607421875	-1.911163330078125	Started
2	0.008	0.0	0.0	0.0	0.0	0.006	0.006	0.003	0.003	9.8694977935791	0.17956512451171874	0.1322796417236328	2.685546875	-3.894805908203125	-1.16729736328125	9.757568865966796	-0.23523031311035156	0.14425065002441406	0.03814697265625	-5.153656005859375	-2.727508544921875	10.007164389038085	0.004189852905273437	-0.21727380065917967	2.719879150390625	-4.69970703125	-1.224517822265625	IMU1|LSM6DS3|0x6A|I2C-1|±2g (±19,6m/s²)|±125º/s|400Hz
3	0.012	0.0	0.0	0.0	0.0	0.003	0.003	0.003	0.006	9.983222372436522	0.43035774841308594	-0.04908113403320312	3.936767578125	-4.047393798828125	-1.73187255859375	9.905410818481444	-0.5285200164794922	-0.04908113403320312	0.08392333984375	-4.962921142578125	-2.99072265625	9.926360083007811	-0.412401235961914	-0.11432312927246092	2.658843994140625	-4.41741943359375	-1.842498779296875	IMU2|LSM6DS3|0x6B|I2C-1|±2g (±19,6m/s²)|±125º/s|400Hz
4	0.016	0.0	0.0	0.0	0.0	0.0	0.003	0.003	0.003	9.880271701049804	0.16759411621093748	0.13287819213867186	2.716064453125	-3.826141357421875	-0.949859619140625	9.752780462646484	-0.25258827514648435	0.11252747802734374	0.240325927734375	-5.21087646484375	-2.880096435546875	10.03050785522461	0.04249707946777344	-0.24121581726074218	2.83050537109375	-4.528045654296875	-1.15203857421875	IMU3|LSM6DS3|0x6B|I2C-2|±2g (±19,6m/s²)|±125º/s|400Hz
5	0.02	0.0	0.0	0.0	0.0	0.009000000000000001	0.003	0.003	0.0	9.941922393798828	-0.21906945190429686	-0.15263035583496093	2.349853515625	-3.90625	-1.003265380859375	9.888651406860351	-0.5039794494628906	-0.05746083984375	0.217437744140625	-4.852294921875	-3.261566162109375	10.19570776977539	-0.6171054779052734	-0.46686932373046874	3.02886962890625	-4.451751708984375	-1.54876708984375	ADC|ADS1015|0|0|1|0|±6,144 V|2400 SPS
6	0.024	0.0	0.0	0.0	0.0	0.006	0.003	0.003	0.003	9.879074600219726	0.15741875915527342	0.1466448516845703	2.81524658203125	-3.83758544921875	-0.873565673828125	9.771335525512695	-0.0143652099609375	0.3507505432128906	0.003814697265625	-5.0811767578125	-2.872467041015625	10.040084661865233	0.07362170104980469	-0.2645592834472656	3.0670166015625	-4.894256591796875	-0.965118408203125	Gen1|Disabled
7	0.028	0.0	0.0	0.0	0.0	0.009000000000000001	0.003	0.003	0.003	9.935936889648437	-0.28431144714355466	-0.12629413757324218	2.5787353515625	-3.79180908203125	-0.926971435546875	9.890447058105469	-0.48542438659667964	-0.09696516723632811	0.18310546875	-5.0048828125	-3.101348876953125	10.20887587890625	-0.6302735870361328	-0.5093664031982421	2.8533935546875	-4.47845458984375	-1.5869140625	Gen2|Enabled|Noise|0.0|10.0|1668
8	0.032	0.0	0.0	0.0	0.0	0.003	0.003	0.003	0.003	9.890447058105469	0.1562216583251953	0.12629413757324218	3.612518310546875	-4.12750244140625	-0.99945068359375	9.776722479248047	0.001197100830078125	0.32920272827148434	0.141143798828125	-4.978179931640625	-2.95257568359375	10.037690460205077	0.08798691101074219	-0.28909985046386716	2.979278564453125	-4.64630126953125	-1.316070556640625	Gen3|Enabled|Noise|0.0|10.0|128
9	0.036000000000000004	0.0	0.0	0.0	0.0	0.003	0.003	0.003	0.003	9.949703549194336	-0.28431144714355466	-0.11432312927246092	2.529144287109375	-3.8299560546875	-0.9613037109375	9.90840357055664	-0.4656722229003906	0.04189852905273437	0.286102294921875	-5.13458251953125	-3.231048583984375	10.216657034301758	-0.5662286926269531	-0.5386953735351562	2.735137939453125	-4.364013671875	-1.51824951171875	Gen4|Enabled|Noise|0.0|10.0|128
10	0.04	0.0	0.0	0.0	0.0	0.006	0.003	0.003	0.006	9.782707983398437	0.19871873779296872	0.11731588134765625	3.45611572265625	-3.925323486328125	-0.93841552734375	9.80665	-0.03950432739257812	0.28311434631347654	0.247955322265625	-4.99725341796875	-2.899169921875	10.070610733032225	0.17657237243652343	-0.09995791931152344	2.7008056640625	-4.512786865234375	-1.28936767578125	Ctrl|Disabled
11	0.044	0.0	0.0	0.0	0.0	0.003	0.003	0.003	0.006	9.919177478027343	-0.34536358947753903	-0.07062894897460938	2.239227294921875	-3.5400390625	-0.743865966796875	9.91498762512207	-0.43514615173339843	0.016759411621093748	0.17547607421875	-4.817962646484375	-3.662109375	10.219051235961913	-0.6081272216796875	-0.565031591796875	2.742767333984375	-4.528045654296875	-1.44195556640625	
12	0.048	0.0	0.0	0.0	0.0	0.003	0.003	0.003	0.006	9.758765966796874	0.19991583862304688	0.15861585998535155	3.192901611328125	-3.795623779296875	-0.9918212890625	9.827000714111328	0.0526724365234375	0.10773907470703124	0.751495361328125	-4.955291748046875	-3.30352783203125	10.059238275146484	0.16759411621093748	-0.11073182678222655	2.872467041015625	-4.70733642578125	-1.4801025390625	
13	0.052000000000000005	0.0	0.0	0.0	0.0	0.003	0.003	0.003	0.009000000000000001	9.846752877807617	0.15322890625	0.020949264526367185	3.208160400390625	-3.818511962890625	-1.24359130859375	9.913191973876952	-0.36691140441894526	0.022146365356445312	0.35858154296875	-5.18798828125	-3.604888916015625	9.984419473266602	-0.44891281127929683	-0.3441664886474609	2.777099609375	-4.547119140625	-1.102447509765625	
14	0.056	0.0	0.0	0.0	0.0	0.003	0.003	0.003	0.003	9.782109432983399	0.24899697265624998	0.15203180541992187	3.44085693359375	-4.062652587890625	-0.91552734375	9.8311905670166	-0.023343466186523436	0.09337386474609374	0.60272216796875	-4.810333251953125	-3.459930419921875	10.075997686767577	0.18734627990722655	-0.08858546142578125	2.811431884765625	-4.64630126953125	-1.148223876953125	
15	0.06	0.0	0.0	0.0	0.0	0.003	0.003	0.003	0.006	9.866505041503906	0.1753752716064453	-0.012569558715820313	3.673553466796875	-3.582000732421875	-0.980377197265625	9.91558617553711	-0.316034619140625	0.020949264526367185	-0.408172607421875	-4.886627197265625	-3.3111572265625	10.005967288208007	-0.5069722015380859	-0.34237083740234375	2.685546875	-4.5623779296875	-1.300811767578125	
16	0.064	0.0	0.0	0.0	0.0	0.003	0.003	0.003	0.006	9.773131176757811	0.23582886352539062	0.16879121704101563	3.505706787109375	-3.894805908203125	-0.843048095703125	9.834183319091796	-0.07541735229492187	0.08978256225585937	0.461578369140625	-4.840850830078125	-3.345489501953125	9.788693487548828	-0.08319850769042968	0.04848258361816406	2.716064453125	-4.467010498046875	-1.972198486328125	
17	0.068	0.0	0.0	0.0	0.0	0.003	0.003	0.006	0.003	9.85094273071289	0.2088940948486328	-0.04369418029785156	3.307342529296875	-3.398895263671875	-1.102447509765625	9.670180505371093	-0.4321533996582031	0.26874913635253905	-0.202178955078125	-5.18798828125	-3.383636474609375	10.000580334472655	-0.5225345123291015	-0.3363853332519531	2.74658203125	-4.528045654296875	-1.25885009765625	
18	0.07200000000000001	0.0	0.0	0.0	0.0	0.003	0.003	0.003	0.006	9.779116680908203	0.5686228942871093	0.027533319091796873	2.9754638671875	-3.520965576171875	-1.56402587890625	9.829394915771484	-0.12808978881835936	0.09516951599121093	0.698089599609375	-4.924774169921875	-3.398895263671875	9.772532626342773	-0.010773907470703125	0.07003039855957031	2.86865234375	-4.608154296875	-1.934051513671875	
19	0.076	0.0	0.0	0.0	0.0	0.006	0.003	0.003	0.006	9.872490545654296	0.2346317626953125	-0.10654197387695312	3.505706787109375	-3.6468505859375	-1.094818115234375	9.661800799560547	-0.43035774841308594	0.2807201446533203	-0.2593994140625	-5.0506591796875	-3.42559814453125	9.991003527832031	-0.5596446380615234	-0.35613749694824215	2.429962158203125	-4.73785400390625	-1.300811767578125	
20	0.08	0.0	0.0	0.0	0.0	0.006	0.003	0.003	0.003	9.804255798339844	0.5267243652343749	0.004189852905273437	3.173828125	-3.692626953125	-1.70135498046875	9.656413845825195	-0.2699462371826172	0.3076549133300781	-0.110626220703125	-4.73785400390625	-3.070831298828125	9.765948571777344	-0.08319850769042968	0.07781155395507812	2.681732177734375	-4.60052490234375	-2.0294189453125	
21	0.084	0.0	0.0	0.0	0.0	0.003	0.003	0.003	0.003	9.885658654785155	0.2902969512939453	-0.11252747802734374	3.215789794921875	-3.978729248046875	-1.377105712890625	9.675567459106444	-0.44532150878906246	0.2914940521240234	-0.030517578125	-4.9896240234375	-3.4027099609375	9.67137760620117	-0.39444472351074217	0.07781155395507812	2.43377685546875	-4.61578369140625	-1.514434814453125	
22	0.088	0.0	0.0	0.0	0.0	0.003	0.003	0.003	0.003	9.80006594543457	0.642244595336914	0.02693476867675781	3.37982177734375	-3.3416748046875	-1.93023681640625	9.658808047485351	-0.2825157958984375	0.2962824554443359	-0.232696533203125	-4.92095947265625	-3.025054931640625	9.756970315551758	0.09157821350097656	0.0796072052001953	2.73895263671875	-4.657745361328125	-1.9378662109375	
23	0.092	0.0	0.0	0.0	0.0	0.003	0.003	0.003	0.003	9.889249957275391	0.5919663604736328	-0.16759411621093748	2.9296875	-4.024505615234375	-1.346588134765625	9.733626849365233	-0.49021278991699213	-0.051475335693359374	0.194549560546875	-5.153656005859375	-2.93731689453125	9.658209497070311	-0.2932897033691406	0.06703764648437499	2.3651123046875	-4.520416259765625	-1.19781494140625	
24	0.096	0.0	0.0	0.0	0.0	0.006	0.003	0.006	0.003	9.824007962036132	0.5404910247802734	0.02154781494140625	3.528594970703125	-3.57818603515625	-1.89971923828125	9.677363110351562	-0.29388825378417965	0.30406361083984373	-0.408172607421875	-4.985809326171875	-3.139495849609375	9.911994873046874	-0.6452373474121094	-0.12868833923339842	2.681732177734375	-4.3792724609375	-2.20489501953125	
25	0.1	0.0	0.0	0.0	0.0	0.003	0.003	0.003	0.003	9.89523546142578	0.4626794708251953	-0.13287819213867186	2.960205078125	-4.001617431640625	-1.09100341796875	9.743802206420899	-0.489015689086914	-0.08738836059570312	0.247955322265625	-4.779815673828125	-3.05938720703125	9.693523971557617	-0.41958384094238277	0.03651157531738281	2.475738525390625	-4.718780517578125	-1.35040283203125	
26	0.10400000000000001	0.0	0.0	0.0	0.0	0.003	0.003	0.003	0.006	10.054449871826172	-0.13826514587402344	-0.32142157287597656	3.30352783203125	-4.21142578125	-1.39617919921875	9.85094273071289	-0.3459621398925781	-0.05626373901367187	0.148773193359375	-4.69970703125	-3.24249267578125	9.903615167236328	-0.4291606475830078	-0.15682020874023436	2.532958984375	-4.375457763671875	-2.094268798828125	
27	0.108	0.0	0.0	0.0	0.0	0.006	0.003	0.003	0.006	9.882067352294921	0.36750995483398435	-0.09038111267089843	2.838134765625	-3.780364990234375	-1.110076904296875	9.719860189819336	-0.488417138671875	-0.05566518859863281	0.22125244140625	-5.435943603515625	-3.170013427734375	10.047865817260742	-0.03651157531738281	-0.277727392578125	2.75421142578125	-4.98199462890625	-0.75531005859375	
28	0.112	0.0	0.0	0.0	0.0	0.003	0.003	0.003	0.003	10.02332525024414	-0.4165910888671875	-0.2519897247314453	2.994537353515625	-4.0283203125	-1.0833740234375	9.868899243164062	-0.3651157531738281	-0.06045359191894531	-0.011444091796875	-5.06591796875	-3.0670166015625	9.956287603759765	-0.6889315277099609	-0.22206220397949217	2.613067626953125	-4.28009033203125	-2.040863037109375	
29	0.116	0.0	0.0	0.0	0.0	0.003	0.006	0.003	0.003	9.896432562255859	0.24121581726074218	-0.09277531433105468	2.86102294921875	-3.8299560546875	-1.239776611328125	9.816825357055663	-0.38845921936035155	0.2657563842773437	-0.255584716796875	-5.07354736328125	-3.147125244140625	10.066420880126952	-0.0796072052001953	-0.23642741394042968	2.780914306640625	-4.5013427734375	-0.92315673828125	
30	0.12	0.0	0.0	0.0	0.0	0.006	0.006	0.006	0.003	10.022128149414062	-0.4213794921875	-0.24061726684570311	2.75421142578125	-3.765106201171875	-0.743865966796875	9.82460651245117	-0.30346506042480464	-0.05027823486328125	0.064849853515625	-4.993438720703125	-3.021240234375	9.923965881347655	-0.4052186309814453	-0.22026655273437498	2.78472900390625	-4.451751708984375	-1.6326904296875	
31	0.124	0.0	0.0	0.0	0.0	0.006	0.003	0.003	0.006	9.758765966796874	-0.08020575561523437	0.34057518615722654	2.986907958984375	-3.612518310546875	-0.2288818359375	9.803058697509766	-0.4016273284912109	0.26216508178710934	0.041961669921875	-4.87518310546875	-2.979278564453125	10.041281762695311	-0.15263035583496093	-0.17357962036132812	2.76947021484375	-4.94384765625	-0.949859619140625	
32	0.128	0.0	0.0	0.0	0.0	0.006	0.003	0.003	0.003	10.025719451904296	-0.20829554443359374	-0.23343466186523437	3.170013427734375	-3.932952880859375	-0.827789306640625	9.945513696289062	-0.31483751831054685	0.09995791931152344	0.67138671875	-4.93621826171875	-3.34930419921875	10.344746823120117	-0.7793126403808593	-0.6584054565429687	3.040313720703125	-4.489898681640625	-1.9073486328125	
33	0.132	0.0	0.0	0.0	0.0	0.003	0.003	0.003	0.003	9.744999307250977	0.14185644836425781	0.3537432952880859	3.871917724609375	-4.1046142578125	-0.820159912109375	9.815029705810547	-0.3716998077392578	0.2507926239013672	0.32806396484375	-5.0048828125	-3.162384033203125	10.059238275146484	0.06464344482421874	-0.24301146850585936	2.674102783203125	-4.627227783203125	-1.2054443359375	
34	0.136	0.0	0.0	0.0	0.0	0.0	0.003	0.006	0.006	9.97783541870117	0.2609679809570312	-0.20470424194335937	3.6163330078125	-3.6468505859375	-0.629425048828125	9.891045608520507	-0.2645592834472656	0.12689268798828124	0.579833984375	-4.9285888671875	-3.47900390625	10.297461340332031	-0.6087257720947266	-0.6721721160888672	3.02886962890625	-4.581451416015625	-1.50299072265625	
35	0.14	0.0	0.0	0.0	0.0	0.006	0.003	0.003	0.006	9.712079034423828	0.4447229583740234	0.41359833679199215	4.535675048828125	-4.28009033203125	-1.850128173828125	9.810839852905273	-0.38367081604003905	0.2759317413330078	0.54931640625	-4.913330078125	-3.21197509765625	10.158597644042969	0.04548983154296875	-0.1406593475341797	2.857208251953125	-4.718780517578125	-1.251220703125	
36	0.14400000000000002	0.0	0.0	0.0	0.0	0.006	0.003	0.003	0.003	9.816226806640625	0.062249243164062495	0.21128829650878905	2.47955322265625	-3.16619873046875	-1.461029052734375	9.923965881347655	-0.26695348510742184	0.10354922180175781	0.400543212890625	-5.084991455078125	-3.276824951171875	10.332177264404296	-0.5386953735351562	-0.6913257293701172	2.83050537109375	-4.611968994140625	-1.628875732421875	
37	0.148	0.0	0.0	0.0	0.0	0.003	0.003	0.003	0.003	9.672574707031249	0.12569558715820311	0.46507367248535153	3.692626953125	-3.7689208984375	-1.140594482421875	9.751583361816406	-0.143652099609375	0.2759317413330078	0.29754638671875	-4.795074462890625	-3.124237060546875	10.117896215820313	0.008978256225585938	-0.16340426330566404	2.95257568359375	-4.589080810546875	-1.27410888671875	
38	0.152	0.0	0.0	0.0	0.0	0.003	0.003	0.006	0.006	9.823409411621093	0.4255693450927734	0.11432312927246092	2.582550048828125	-3.3111572265625	-1.12152099609375	9.911994873046874	-0.2615665313720703	0.1388636962890625	0.812530517578125	-5.260467529296875	-3.37982177734375	9.981426721191406	-0.479438882446289	-0.3525461944580078	3.07464599609375	-4.5928955078125	-1.125335693359375	
39	0.156	0.0	0.0	0.0	0.0	0.006	0.003	0.003	0.003	10.01015714111328	0.2424129180908203	-0.15741875915527342	2.62451171875	-3.54766845703125	-1.3275146484375	9.78031378173828	-0.19512743530273435	0.24001871643066405	-0.00762939453125	-4.92095947265625	-2.95257568359375	10.146626635742187	-0.06344634399414062	-0.22206220397949217	2.73895263671875	-4.47845458984375	-1.251220703125	
40	0.16	0.0	0.0	0.0	0.0	0.006	0.006	0.003	0.006	9.834183319091796	0.26874913635253905	0.05746083984375	2.899169921875	-3.34930419921875	-1.57928466796875	9.769539874267577	-0.3286041778564453	0.14006079711914063	0.141143798828125	-5.22613525390625	-3.45611572265625	9.958681805419921	-0.40282442932128903	-0.39803602600097654	3.032684326171875	-5.0201416015625	-1.47247314453125	
41	0.164	0.0	0.0	0.0	0.0	0.003	0.003	0.003	0.003	10.001777435302733	-0.016160861206054686	-0.15861585998535155	2.12860107421875	-3.448486328125	-0.858306884765625	9.734225399780273	-0.2615665313720703	0.2867056488037109	0.171661376953125	-4.79888916015625	-3.2806396484375	10.111312161254883	-0.06105214233398437	-0.17238251953125	2.5634765625	-4.50897216796875	-1.73187255859375	
42	0.168	0.0	0.0	0.0	0.0	0.006	0.003	0.003	0.006	9.891644158935547	0.16460136413574217	-0.020949264526367185	1.80816650390625	-3.16619873046875	-0.827789306640625	9.816825357055663	-0.2657563842773437	0.07062894897460938	0.049591064453125	-5.001068115234375	-3.4027099609375	9.997587582397461	-0.36092590026855464	-0.4560954162597656	3.0059814453125	-4.688262939453125	-1.3427734375	
43	0.17200000000000001	0.0	0.0	0.0	0.0	0.006	0.003	0.003	0.006	10.013149893188476	0.25797522888183594	-0.20709844360351562	2.292633056640625	-3.76129150390625	-0.91552734375	9.782109432983399	-0.3268085266113281	0.10654197387695312	-0.00762939453125	-4.833221435546875	-3.299713134765625	9.750984811401366	-0.201112939453125	0.09636661682128905	2.86102294921875	-4.791259765625	-1.995086669921875	
44	0.176	0.0	0.0	0.0	0.0	0.003	0.003	0.003	0.003	9.897629663085937	0.1640028137207031	-0.2472013214111328	3.597259521484375	-4.589080810546875	-1.163482666015625	9.81263550415039	-0.22505495605468748	0.04249707946777344	0.20599365234375	-5.077362060546875	-3.21197509765625	9.98561657409668	-0.3028665100097656	-0.45010991210937495	2.872467041015625	-5.0048828125	-1.18255615234375	
45	0.18	0.0	0.0	0.0	0.0	0.003	0.003	0.006	0.003	10.005967288208007	0.037110125732421874	-0.22026655273437498	2.590179443359375	-3.620147705078125	-1.117706298828125	9.785102185058593	-0.33578678283691404	0.09038111267089843	0.133514404296875	-5.340576171875	-3.299713134765625	9.770138424682617	-0.22864625854492185	0.0652419952392578	2.948760986328125	-4.6844482421875	-1.617431640625	
46	0.184	0.0	0.0	0.0	0.0	0.006	0.003	0.003	0.006	9.85094273071289	0.19393033447265623	-0.181959326171875	3.4027099609375	-4.184722900390625	-0.812530517578125	9.665392102050781	-0.30526071166992186	0.08020575561523437	0.38909912109375	-4.99725341796875	-3.37982177734375	9.720458740234374	-0.18435352783203124	0.034715924072265626	2.376556396484375	-4.82177734375	-1.476287841796875	
47	0.188	0.0	0.0	0.0	0.0	0.003	0.003	0.006	0.009000000000000001	10.013149893188476	0.17298106994628906	-0.19632453613281248	3.68499755859375	-2.933502197265625	-0.881195068359375	9.788693487548828	-0.30466216125488277	0.11611878051757812	0.064849853515625	-5.0506591796875	-3.314971923828125	9.773729727172851	-0.2537853759765625	0.1514332550048828	2.7923583984375	-4.665374755859375	-1.735687255859375	
48	0.192	0.0	0.0	0.0	0.0	0.003	0.003	0.003	0.003	9.8311905670166	0.2825157958984375	-0.1197100830078125	3.749847412109375	-4.14276123046875	-1.201629638671875	9.680954412841796	-0.3286041778564453	0.11252747802734374	0.339508056640625	-5.260467529296875	-3.47137451171875	9.74799205932617	-0.20470424194335937	0.07781155395507812	2.529144287109375	-4.909515380859375	-1.697540283203125	
49	0.196	0.0	0.0	0.0	0.0	0.003	0.003	0.003	0.003	9.85692823486328	-0.004189852905273437	0.08738836059570312	3.143310546875	-3.978729248046875	-1.13677978515625	9.756371765136718	-0.26396073303222656	0.13946224670410157	0.0152587890625	-5.0048828125	-3.231048583984375	9.923367330932617	-0.27293898925781246	-0.18435352783203124	2.44140625	-4.207611083984375	-1.598358154296875	
50	0.2	0.0	0.0	0.0	0.0	0.003	0.003	0.003	0.003	9.809044201660155	0.12629413757324218	-0.02693476867675781	3.551483154296875	-4.222869873046875	-1.102447509765625	9.650428341674804	-0.3393780853271484	0.16220716247558592	0.11444091796875	-5.0201416015625	-3.3111572265625	9.715071786499022	-0.1867477294921875	0.01975216369628906	2.35748291015625	-4.6539306640625	-1.796722412109375	
51	0.20400000000000001	0.0	0.0	0.0	0.0	0.003	0.003	0.003	0.006	9.886855755615233	0.1131260284423828	0.028730419921875	2.8839111328125	-3.673553466796875	-1.1138916015625	9.767145672607422	-0.2819172454833984	0.13467384338378904	-0.1068115234375	-4.98199462890625	-3.322601318359375	9.89583401184082	-0.29388825378417965	-0.06823474731445311	2.429962158203125	-4.230499267578125	-1.5411376953125	
52	0.20800000000000002	0.0	0.0	0.0	0.0	0.006	0.003	0.003	0.006	9.898826763916015	0.10175357055664062	0.05985504150390625	2.727508544921875	-3.66973876953125	-1.155853271484375	9.785700735473633	-0.3794809631347656	0.2723404388427734	0.415802001953125	-5.18035888671875	-3.1890869140625	9.733028298950195	-0.25737667846679685	-0.13287819213867186	2.696990966796875	-4.520416259765625	-1.308441162109375	
53	0.212	0.0	0.0	0.0	0.0	0.003	0.003	0.003	0.009000000000000001	9.891045608520507	0.1197100830078125	-0.0005985504150390625	2.96783447265625	-3.73077392578125	-1.0528564453125	9.74799205932617	-0.2537853759765625	0.10714052429199218	0.225067138671875	-5.138397216796875	-3.101348876953125	9.861118087768554	-0.20949264526367187	-0.12808978881835936	2.716064453125	-4.32586669921875	-1.56402587890625	
54	0.216	0.0	0.0	0.0	0.0	0.006	0.003	0.003	0.003	9.880870251464843	0.001197100830078125	0.051475335693359374	2.8839111328125	-3.589630126953125	-0.980377197265625	9.757568865966796	-0.3968389251708984	0.2663549346923828	0.186920166015625	-5.07354736328125	-3.047943115234375	9.986215124511718	-0.2609679809570312	-0.1131260284423828	2.666473388671875	-4.665374755859375	-1.41143798828125	
55	0.22	0.0	0.0	0.0	0.0	0.006	0.003	0.003	0.003	9.929951385498047	0.07062894897460938	-0.02454056701660156	2.925872802734375	-3.620147705078125	-0.701904296875	9.783905084228515	-0.3429693878173828	0.07601590270996093	0.034332275390625	-4.810333251953125	-3.01361083984375	9.931747036743163	-0.2693476867675781	-0.12988544006347655	2.605438232421875	-4.4403076171875	-1.70135498046875	
56	0.224	0.0	0.0	0.0	0.0	0.003	0.006	0.003	0.003	9.859322436523437	0.0017956512451171875	0.08319850769042968	2.635955810546875	-3.810882568359375	-1.087188720703125	9.752780462646484	-0.36930560607910157	0.21787235107421873	0.110626220703125	-5.11932373046875	-3.040313720703125	9.951499200439452	-0.29269115295410153	-0.09696516723632811	2.78472900390625	-4.619598388671875	-1.28936767578125	
57	0.228	0.0	0.0	0.0	0.0	0.003	0.003	0.006	0.006	9.937133990478515	0.49799394531249996	-0.14784195251464843	4.3182373046875	-4.077911376953125	-1.4495849609375	9.858125335693359	-0.18555062866210936	0.003591302490234375	0.1983642578125	-4.84466552734375	-3.040313720703125	10.266336718749999	-0.23822306518554687	-0.7404068634033203	2.811431884765625	-4.833221435546875	-1.392364501953125	
58	0.232	0.0	0.0	0.0	0.0	0.006	0.003	0.003	0.003	9.85752678527832	0.001197100830078125	0.13467384338378904	2.490997314453125	-3.498077392578125	-1.132965087890625	9.816825357055663	-0.4070142822265625	0.20171148986816406	-0.00762939453125	-5.13458251953125	-2.933502197265625	10.078391888427733	-0.2885013000488281	-0.16340426330566404	2.777099609375	-4.543304443359375	-1.293182373046875	
59	0.23600000000000002	0.0	0.0	0.0	0.0	0.006	0.006	0.003	0.003	9.969455712890625	0.3806780639648437	-0.21188684692382811	3.635406494140625	-3.849029541015625	-1.4801025390625	9.917980377197265	-0.22026655273437498	0.007781155395507812	0.1983642578125	-4.962921142578125	-3.360748291015625	10.344148272705077	-0.3321954803466797	-0.7404068634033203	2.81524658203125	-4.5928955078125	-1.674652099609375	
60	0.24	0.0	0.0	0.0	0.0	0.009000000000000001	0.003	0.003	0.006	9.764751470947266	0.16998831787109375	0.22744915771484372	2.140045166015625	-3.566741943359375	-1.068115234375	9.71028338317871	-0.26755203552246093	0.36930560607910157	-0.148773193359375	-5.023956298828125	-2.960205078125	10.067617980957031	-0.13646949462890623	-0.297479556274414	3.08990478515625	-4.772186279296875	-1.27410888671875	
61	0.244	0.0	0.0	0.0	0.0	0.003	0.003	0.006	0.003	9.962871658325195	0.2232593048095703	-0.23223756103515625	3.444671630859375	-4.0130615234375	-1.346588134765625	9.936535440063476	-0.21248539733886718	-0.013766659545898436	-0.274658203125	-4.82940673828125	-3.24249267578125	10.319009155273436	-0.29867665710449215	-0.747589468383789	2.872467041015625	-4.4097900390625	-1.19781494140625	
62	0.248	0.0	0.0	0.0	0.0	0.006	0.003	0.003	0.003	9.858125335693359	0.5363011718749999	-0.001197100830078125	4.3182373046875	-4.253387451171875	-1.4190673828125	9.783905084228515	-0.373495458984375	0.39743747558593745	0.12969970703125	-4.947662353515625	-3.047943115234375	10.205284576416014	-0.2280477081298828	-0.2962824554443359	2.81524658203125	-4.703521728515625	-1.430511474609375	
63	0.252	0.0	0.0	0.0	0.0	0.0	0.003	0.003	0.003	9.962871658325195	0.22385785522460935	-0.2136824981689453	3.1585693359375	-3.582000732421875	-1.232147216796875	9.952097750854492	-0.20290859069824219	-0.17776947326660156	0.213623046875	-4.756927490234375	-3.345489501953125	10.008361489868163	-0.37888241271972656	-0.4644751220703125	2.780914306640625	-4.45556640625	-1.354217529296875	
64	0.256	0.0	0.0	0.0	0.0	0.003	0.006	0.003	0.003	9.822212310791015	0.5351040710449219	0.013168109130859374	4.131317138671875	-4.070281982421875	-1.10626220703125	9.731232647705077	-0.30526071166992186	0.35673604736328124	-0.274658203125	-5.18035888671875	-3.34930419921875	10.049661468505859	-0.09935936889648436	-0.22385785522460935	3.017425537109375	-4.596710205078125	-1.186370849609375	
65	0.26	0.0	0.0	0.0	0.0	0.006	0.003	0.003	0.006	9.961674557495117	0.25318682556152344	-0.26216508178710934	2.8228759765625	-3.940582275390625	-1.2054443359375	10.041880313110351	-0.2759317413330078	-0.2346317626953125	0.453948974609375	-5.157470703125	-3.15093994140625	10.08078609008789	-0.4339490509033203	-0.3938461730957031	2.86102294921875	-4.840850830078125	-1.31988525390625	
66	0.264	0.0	0.0	0.0	0.0	0.0	0.003	0.003	0.006	9.878476049804688	0.29089550170898437	-0.025737667846679687	3.936767578125	-3.940582275390625	-1.800537109375	9.689334118652344	-0.3746925598144531	0.3082534637451172	0.1373291015625	-5.02777099609375	-3.36456298828125	10.10712230834961	-0.20290859069824219	-0.21068974609375	2.66265869140625	-4.7149658203125	-1.461029052734375	
67	0.268	0.0	0.0	0.0	0.0	0.0	0.003	0.003	0.003	9.794678991699218	0.3525461944580078	0.10474632263183593	3.162384033203125	-3.719329833984375	-1.12152099609375	9.90181951599121	-0.1580173095703125	-0.10953472595214843	0.35858154296875	-5.10406494140625	-3.299713134765625	9.9078050201416	-0.2998737579345703	-0.3854664672851562	2.8839111328125	-5.023956298828125	-1.201629638671875	
68	0.272	0.0	0.0	0.0	0.0	0.0	0.003	0.003	0.003	9.852139831542969	0.5087678527832031	-0.062249243164062495	3.72314453125	-4.062652587890625	-1.377105712890625	9.700108026123047	-0.37409400939941406	0.3190273712158203	0.156402587890625	-5.092620849609375	-3.093719482421875	9.753379013061522	-0.28909985046386716	0.11073182678222655	2.70843505859375	-4.657745361328125	-1.6632080078125	
69	0.276	0.0	0.0	0.0	0.0	0.006	0.003	0.003	0.006	9.890447058105469	0.037708676147460936	-0.0047884033203125	3.353118896484375	-3.570556640625	-1.285552978515625	9.75517466430664	-0.4608838195800781	0.12689268798828124	-0.415802001953125	-5.0811767578125	-3.421783447265625	10.1131078125	-0.46686932373046874	-0.4255693450927734	2.994537353515625	-4.9896240234375	-1.33514404296875	
70	0.28	0.0	0.0	0.0	0.0	0.0	0.003	0.003	0.003	9.746794958496093	0.09696516723632811	0.10175357055664062	2.040863037109375	-3.360748291015625	-0.762939453125	9.602544308471678	-0.2597708801269531	0.34656069030761716	0.148773193359375	-5.046844482421875	-3.22723388671875	9.642048635864258	-0.239420166015625	0.08978256225585937	2.62451171875	-4.718780517578125	-1.979827880859375	
71	0.28400000000000003	0.0	0.0	0.0	0.0	0.003	0.003	0.003	0.006	9.835978970336914	0.40761283264160153	0.025737667846679687	3.650665283203125	-3.734588623046875	-1.262664794921875	9.67137760620117	-0.37888241271972656	0.14784195251464843	-0.1983642578125	-5.218505859375	-3.47900390625	9.65940659790039	-0.1640028137207031	0.15382745666503905	2.399444580078125	-4.78363037109375	-1.316070556640625	
72	0.28800000000000003	0.0	0.0	0.0	0.0	0.003	0.003	0.003	0.006	9.784503634643555	-0.2549824768066406	0.11013327636718749	1.972198486328125	-3.398895263671875	-0.972747802734375	9.69112976989746	-0.4225765930175781	0.3172317199707031	0.202178955078125	-5.05828857421875	-3.2806396484375	9.85094273071289	-0.44891281127929683	0.02154781494140625	2.582550048828125	-4.375457763671875	-2.147674560546875	
73	0.292	0.0	0.0	0.0	0.0	0.003	0.003	0.003	0.003	9.889848507690429	0.12449848632812499	-0.044891281127929686	3.34930419921875	-3.662109375	-1.0223388671875	9.699509475708007	-0.3268085266113281	0.06464344482421874	-0.278472900390625	-5.016326904296875	-3.42559814453125	9.675567459106444	-0.18315642700195311	0.1227028350830078	2.20489501953125	-4.520416259765625	-1.720428466796875	
74	0.296	0.0	0.0	0.0	0.0	0.003	0.003	0.003	0.003	9.69771382446289	0.3399766357421875	0.21188684692382811	2.643585205078125	-3.696441650390625	-0.995635986328125	9.548076220703125	-0.3076549133300781	0.38187516479492184	-0.080108642578125	-4.848480224609375	-3.12042236328125	9.795277542114258	-0.35134909362792965	-0.09038111267089843	2.582550048828125	-4.28009033203125	-1.766204833984375	
75	0.3	0.0	0.0	0.0	0.0	0.0	0.006	0.003	0.003	9.934739788818359	-0.29867665710449215	-0.1322796417236328	2.201080322265625	-3.780364990234375	-0.77056884765625	9.80724855041504	-0.3860650177001953	0.07302315063476562	0.217437744140625	-5.298614501953125	-2.956390380859375	9.813832604980469	-0.2292448089599609	0.06404489440917968	2.49481201171875	-4.581451416015625	-1.636505126953125	
76	0.304	0.0	0.0	0.0	0.0	0.003	0.003	0.003	0.006	9.81862100830078	-0.19512743530273435	0.10893617553710937	2.12860107421875	-3.5552978515625	-0.904083251953125	9.611522564697266	-0.37768531188964843	0.3363853332519531	-0.179290771484375	-4.669189453125	-3.27301025390625	9.951499200439452	-0.5093664031982421	-0.1610100616455078	2.471923828125	-4.241943359375	-1.7242431640625	
77	0.308	0.0	0.0	0.0	0.0	0.003	0.003	0.003	0.006	9.853935482788085	0.1927332336425781	-0.0383072265625	1.842498779296875	-3.803253173828125	-0.64849853515625	9.721057290649414	-0.36810850524902344	0.09935936889648436	0.2593994140625	-5.36346435546875	-2.918243408203125	9.616310968017578	-0.06763619689941405	0.10594342346191406	2.552032470703125	-4.489898681640625	-1.56402587890625	
78	0.312	0.0	0.0	0.0	0.0	0.006	0.003	0.003	0.003	9.771335525512695	0.3537432952880859	0.13646949462890623	4.459381103515625	-4.1656494140625	-1.499176025390625	9.629479077148437	-0.4016273284912109	0.3890577697753906	0.52642822265625	-4.932403564453125	-3.1280517578125	9.932345587158203	-0.4944026428222656	-0.16041151123046873	2.452850341796875	-4.2877197265625	-1.28173828125	
79	0.316	0.0	0.0	0.0	0.0	0.003	0.003	0.003	0.006	9.963470208740233	-0.296881005859375	-0.08678981018066406	2.254486083984375	-3.79180908203125	-1.026153564453125	9.878476049804688	-0.4429273071289062	-0.020350714111328123	0.331878662109375	-5.2642822265625	-3.21197509765625	10.153210690307617	-0.1406593475341797	-0.24600422058105467	2.72369384765625	-4.61578369140625	-1.575469970703125	
80	0.32	0.0	0.0	0.0	0.0	0.009000000000000001	0.003	4.632	4.617	10.046070166015625	0.12449848632812499	-0.3286041778564453	3.726959228515625	-3.8909912109375	-0.736236572265625	9.861716638183593	-0.22505495605468748	-0.05805939025878906	0.18310546875	-4.833221435546875	-2.910614013671875	9.835380419921874	-0.46507367248535153	-0.13646949462890623	2.838134765625	-4.398345947265625	-1.804351806640625	
81	0.324	0.0	0.0	0.0	0.0	4.638	4.665	4.668	4.635	9.86291373901367	0.20709844360351562	0.009576806640625	2.00653076171875	-3.482818603515625	-0.41961669921875	9.747393508911133	-0.3429693878173828	0.10893617553710937	0.17547607421875	-5.481719970703125	-3.101348876953125	9.984419473266602	-0.06105214233398437	-0.1131260284423828	2.838134765625	-4.611968994140625	-1.468658447265625	
82	0.328	0.0	0.0	0.0	0.0	4.644	4.671	4.671	4.635	9.995791931152343	0.4016273284912109	-0.2424129180908203	4.3182373046875	-4.436492919921875	-1.9378662109375	9.947907897949218	-0.36571430358886714	-0.11432312927246092	0.30517578125	-5.031585693359375	-3.0670166015625	10.371681591796875	-0.4878185882568359	-0.6428431457519531	2.9296875	-4.734039306640625	-1.1138916015625	
83	0.332	0.0	0.0	0.0	0.0	4.641	4.671	4.671	4.641	9.82460651245117	-0.08140285644531249	0.10594342346191406	4.276275634765625	-4.2266845703125	-1.1138916015625	9.805452899169921	-0.26216508178710934	0.26336218261718747	0.102996826171875	-5.19561767578125	-2.95257568359375	10.041281762695311	-0.09277531433105468	-0.21068974609375	2.58636474609375	-4.497528076171875	-1.27410888671875	
84	0.336	0.0	0.0	0.0	0.0	4.635	4.671	4.668	4.644	9.934739788818359	-0.2507926239013672	-0.11791443176269531	2.86102294921875	-3.6163330078125	-0.46539306640625	9.789890588378906	-0.34117373657226563	0.05027823486328125	0.209808349609375	-4.787445068359375	-2.89154052734375	10.248380206298828	-0.37708676147460934	-0.6332663391113281	2.933502197265625	-4.7454833984375	-1.1749267578125	
85	0.34	0.0	0.0	0.0	0.0	4.644	4.668	4.671	4.632	9.782707983398437	0.9193734375	0.033518823242187495	4.062652587890625	-4.37164306640625	-1.285552978515625	9.855132583618163	-0.2442085693359375	0.15203180541992187	0.22125244140625	-5.0201416015625	-2.93731689453125	10.041281762695311	-0.24660277099609373	-0.10594342346191406	3.02886962890625	-4.848480224609375	-1.67083740234375	
86	0.34400000000000003	0.0	0.0	0.0	0.0	4.644	4.671	4.671	4.623	10.01674119567871	0.9265560424804687	-0.32441432495117184	4.45556640625	-4.1656494140625	-1.64031982421875	10.066420880126952	-0.38786066894531246	-0.277727392578125	0.751495361328125	-4.795074462890625	-3.23486328125	10.376469995117187	-0.4147954376220703	-0.7577648254394531	3.082275390625	-4.47845458984375	-1.430511474609375	
87	0.34800000000000003	0.0	0.0	0.0	0.0	4.647	4.671	4.671	4.626	9.734823950195311	0.2561795776367187	0.17417817077636719	4.482269287109375	-4.421234130859375	-2.017974853515625	9.773131176757811	-0.2507926239013672	0.20769699401855468	0.072479248046875	-5.31005859375	-2.735137939453125	10.02332525024414	-0.21428104858398436	-0.1879448303222656	2.910614013671875	-4.69970703125	-1.453399658203125	
88	0.352	0.0	0.0	0.0	0.0	4.644	4.665	4.671	4.641	9.9078050201416	-0.30705636291503907	-0.10175357055664062	2.170562744140625	-3.24249267578125	-0.32806396484375	9.950302099609374	-0.32142157287597656	-0.11432312927246092	0.270843505859375	-5.039215087890625	-3.3416748046875	10.317812054443358	-0.3842693664550781	-0.7535749725341796	3.047943115234375	-4.913330078125	-1.190185546875	
89	0.356	0.0	0.0	0.0	0.0	4.644	4.671	4.674	4.638	9.819818109130859	0.06823474731445311	0.014963760375976562	2.956390380859375	-3.84521484375	-0.3509521484375	9.782707983398437	-0.20649989318847656	0.15382745666503905	0.225067138671875	-4.825592041015625	-3.27301025390625	10.109516510009765	-0.28371289672851563	-0.25917232971191406	3.24249267578125	-4.70733642578125	-1.529693603515625	
90	0.36	0.0	0.0	0.0	0.0	4.638	4.671	4.671	4.638	9.951499200439452	0.7481880187988281	-0.2699462371826172	3.631591796875	-4.108428955078125	-1.48773193359375	10.034099157714843	-0.2765302917480469	-0.30526071166992186	0.58746337890625	-4.7607421875	-3.387451171875	10.037690460205077	-0.19991583862304688	-0.25139117431640623	3.021240234375	-4.64630126953125	-1.30462646484375	
91	0.364	0.0	0.0	0.0	0.0	4.635	4.671	4.668	4.644	9.751583361816406	1.0307038146972656	0.004189852905273437	3.879547119140625	-3.971099853515625	-2.25830078125	9.69771382446289	-0.14903905334472656	0.24361001892089842	0.732421875	-5.153656005859375	-3.017425537109375	10.012551342773437	-0.17956512451171874	-0.2376245147705078	2.956390380859375	-4.8065185546875	-1.377105712890625	
92	0.368	0.0	0.0	0.0	0.0	4.644	4.671	4.674	4.6290000000000004	9.94012674255371	0.04249707946777344	-0.12689268798828124	3.597259521484375	-4.016876220703125	-2.056121826171875	9.803058697509766	-0.4207809417724609	0.10654197387695312	0.293731689453125	-5.176544189453125	-3.6163330078125	10.077793338012695	-0.26336218261718747	-0.31483751831054685	2.964019775390625	-4.4708251953125	-1.209259033203125	
93	0.372	0.0	0.0	0.0	0.0	4.644	4.674	4.674	4.623	9.86291373901367	-0.3896563201904297	0.12509703674316405	1.956939697265625	-3.3721923828125	-0.6866455078125	9.75517466430664	-0.1771709228515625	0.2376245147705078	0.1068115234375	-4.99725341796875	-3.276824951171875	9.692326870727538	-0.42317514343261714	0.17836802368164062	2.277374267578125	-4.428863525390625	-2.033233642578125	
94	0.376	0.0	0.0	0.0	0.0	4.641	4.671	4.671	4.623	9.816226806640625	-0.105344873046875	0.06344634399414062	1.834869384765625	-3.650665283203125	-0.70953369140625	9.697115274047851	-0.39264907226562495	0.17417817077636719	-0.11444091796875	-5.084991455078125	-3.467559814453125	9.968857162475585	-0.17657237243652343	-0.2376245147705078	3.04412841796875	-4.76837158203125	-1.308441162109375	
95	0.38	0.0	0.0	0.0	0.0	4.644	4.668	4.671	4.638	9.8694977935791	0.12150573425292968	-0.03232172241210937	2.84576416015625	-3.665924072265625	-1.12152099609375	9.715670336914062	-0.1610100616455078	0.3082534637451172	0.240325927734375	-4.878997802734375	-3.34930419921875	9.64623848876953	-0.37708676147460934	0.24660277099609373	2.288818359375	-4.39453125	-1.758575439453125	
96	0.384	0.0	0.0	0.0	0.0	4.641	4.671	4.674	4.641	9.91438907470703	0.19572598571777342	-0.11851298217773437	3.875732421875	-4.001617431640625	-1.476287841796875	9.779116680908203	-0.4584896179199218	0.09337386474609374	0.00762939453125	-4.962921142578125	-3.387451171875	9.835380419921874	-0.24181436767578124	-0.0430956298828125	2.239227294921875	-4.566192626953125	-1.758575439453125	
97	0.388	0.0	0.0	0.0	0.0	4.638	0.006	0.003	0.003	9.819219558715819	0.11013327636718749	0.016160861206054686	2.674102783203125	-3.604888916015625	-1.2664794921875	9.655216744995117	-0.22385785522460935	0.2328361114501953	0.087738037109375	-4.974365234375	-3.326416015625	9.702502227783203	-0.28730419921875	0.0383072265625	2.7008056640625	-4.72259521484375	-1.735687255859375	
98	0.392	0.0	0.0	0.0	0.0	0.006	0.003	0.006	0.003	9.90122096557617	0.3399766357421875	-0.09038111267089843	3.971099853515625	-3.9825439453125	-1.644134521484375	9.737816702270507	-0.42317514343261714	0.18914193115234373	-0.2593994140625	-5.146026611328125	-3.07464599609375	9.727641345214844	-0.28969840087890625	0.11372457885742186	2.25830078125	-4.856109619140625	-1.80816650390625	
99	0.396	0.0	0.0	0.0	0.0	0.003	0.003	0.003	0.003	9.868300692749022	0.17238251953125	-0.011971008300781249	2.780914306640625	-3.551483154296875	-1.483917236328125	9.730035546875	-0.30705636291503907	0.30466216125488277	0.20599365234375	-5.107879638671875	-3.391265869140625	9.764152920532226	-0.33099837951660155	0.19871873779296872	2.7008056640625	-4.245758056640625	-1.499176025390625	
100	0.4	0.0	0.0	0.0	0.0	0.003	0.003	0.003	0.003	9.823409411621093	0.10115502014160156	0.00239420166015625	2.9449462890625	-3.849029541015625	-1.36566162109375	9.672574707031249	-0.4381389038085937	0.23403321228027343	-0.087738037109375	-5.0201416015625	-3.162384033203125	9.725845693969726	-0.2932897033691406	0.15083470458984374	2.353668212890625	-4.413604736328125	-1.7852783203125	
101	0.404	0.0	0.0	0.0	0.0	0.006	0.003	0.003	0.003	9.867702142333984	-0.044891281127929686	0.06883329772949218	2.819061279296875	-3.536224365234375	-0.7781982421875	9.651026892089844	-0.27832594299316404	0.3842693664550781	-0.26702880859375	-4.8370361328125	-3.1890869140625	9.79408044128418	-0.23582886352539062	-0.020949264526367185	2.445220947265625	-4.405975341796875	-1.59454345703125	
102	0.40800000000000003	0.0	0.0	0.0	0.0	0.006	0.003	0.003	0.003	9.925761532592773	-0.02693476867675781	-0.1197100830078125	2.765655517578125	-3.749847412109375	-1.01470947265625	9.743203656005859	-0.4483142608642578	0.22864625854492185	-0.011444091796875	-5.100250244140625	-3.1280517578125	9.76175871887207	-0.36571430358886714	0.20231004028320312	2.43377685546875	-4.680633544921875	-1.6326904296875	
103	0.41200000000000003	0.0	0.0	0.0	0.0	0.006	0.003	0.003	0.003	9.962273107910155	-0.016759411621093748	-0.04369418029785156	2.899169921875	-3.643035888671875	-0.67901611328125	9.810241302490233	-0.4207809417724609	0.1484405029296875	-0.011444091796875	-4.932403564453125	-3.269195556640625	9.90122096557617	-0.26276363220214843	-0.06763619689941405	2.262115478515625	-3.9825439453125	-1.712799072265625	
104	0.41600000000000004	0.0	0.0	0.0	0.0	0.003	0.003	0.003	0.006	9.919776028442381	0.008978256225585938	-0.1304839904785156	2.90679931640625	-3.803253173828125	-0.8544921875	9.631873278808593	-0.4052186309814453	0.29269115295410153	0.1220703125	-4.955291748046875	-2.9144287109375	9.952696301269532	-0.31543606872558594	-0.17657237243652343	2.777099609375	-4.657745361328125	-1.50299072265625	
105	0.42	0.0	0.0	0.0	0.0	0.003	0.003	0.003	0.003	9.970652813720703	0.034715924072265626	-0.04668693237304687	3.498077392578125	-4.199981689453125	-0.621795654296875	9.81862100830078	-0.3321954803466797	0.13826514587402344	0.38909912109375	-4.9591064453125	-3.24249267578125	9.896432562255859	-0.15203180541992187	-0.06823474731445311	2.559661865234375	-4.360198974609375	-1.53350830078125	
106	0.424	0.0	0.0	0.0	0.0	0.003	0.006	0.003	0.006	9.824007962036132	0.17477672119140625	0.19512743530273435	3.215789794921875	-3.70025634765625	-1.148223876953125	9.840767373657226	-0.3136404174804687	0.19931728820800781	0.156402587890625	-4.92095947265625	-3.021240234375	10.08018753967285	-0.4255693450927734	-0.2316390106201172	2.79998779296875	-4.444122314453125	-1.4190673828125	
107	0.428	0.0	0.0	0.0	0.0	0.003	0.003	0.003	0.003	9.926360083007811	0.15682020874023436	-0.037708676147460936	3.810882568359375	-3.89862060546875	-0.90789794921875	9.778518130493163	-0.24001871643066405	0.16041151123046873	-0.186920166015625	-4.711151123046875	-3.25775146484375	10.320804806518554	-0.10893617553710937	-0.6404489440917969	3.12042236328125	-4.383087158203125	-1.537322998046875	
108	0.432	0.0	0.0	0.0	0.0	0.003	0.003	0.003	0.003	9.788094937133788	0.3286041778564453	0.2166752502441406	3.932952880859375	-3.940582275390625	-1.422882080078125	9.790489138793944	-0.23822306518554687	0.25258827514648435	0.202178955078125	-5.199432373046875	-3.0059814453125	9.980229620361328	-0.354940396118164	-0.20530279235839843	3.009796142578125	-4.665374755859375	-1.239776611328125	
109	0.436	0.0	0.0	0.0	0.0	0.006	0.003	0.003	0.003	9.92755718383789	0.3327940307617187	-0.06105214233398437	3.536224365234375	-3.971099853515625	-1.667022705078125	9.968258612060547	-0.2998737579345703	0.0053869537353515625	0.720977783203125	-5.039215087890625	-3.16619873046875	10.319607705688476	-0.1562216583251953	-0.6027402679443359	2.964019775390625	-4.344940185546875	-1.430511474609375	
110	0.44	0.0	0.0	0.0	0.0	0.006	0.003	0.003	0.006	9.843760125732421	0.21906945190429686	0.13108254089355467	3.993988037109375	-4.00543212890625	-1.495361328125	9.797073193359374	-0.3238157745361328	0.21248539733886718	-0.026702880859375	-5.542755126953125	-2.918243408203125	10.022128149414062	-0.38845921936035155	-0.24899697265624998	2.92205810546875	-4.8370361328125	-1.079559326171875	
111	0.444	0.0	0.0	0.0	0.0	0.003	0.003	0.003	0.003	9.874884747314452	0.34057518615722654	0.04908113403320312	3.398895263671875	-3.871917724609375	-1.483917236328125	9.935338339233398	-0.1879448303222656	0.015562310791015624	0.568389892578125	-5.13458251953125	-3.23486328125	10.266336718749999	-0.105344873046875	-0.6362590911865234	2.86865234375	-4.505157470703125	-1.407623291015625	
112	0.448	0.0	0.0	0.0	0.0	0.003	0.006	0.006	0.006	9.848548529052733	0.1945288848876953	0.11611878051757812	3.814697265625	-4.039764404296875	-1.16729736328125	9.788693487548828	-0.12030863342285156	0.20709844360351562	0.118255615234375	-4.82177734375	-2.994537353515625	10.096946951293944	-0.22266075439453123	-0.11851298217773437	3.108978271484375	-4.81414794921875	-1.010894775390625	
113	0.452	0.0	0.0	0.0	0.0	0.006	0.003	0.003	0.003	9.83777462158203	0.3950432739257812	0.13766659545898435	3.7078857421875	-3.864288330078125	-1.445770263671875	9.951499200439452	-0.23582886352539062	0.030526071166992186	0.614166259765625	-5.191802978515625	-3.261566162109375	10.31062944946289	-0.21966800231933592	-0.6476315490722656	2.9296875	-4.413604736328125	-1.422882080078125	
114	0.456	0.0	0.0	0.0	0.0	0.003	0.003	0.003	0.003	9.68514426574707	0.3968389251708984	0.37828386230468747	3.314971923828125	-3.681182861328125	-1.5869140625	9.75517466430664	-0.11611878051757812	0.2537853759765625	0.293731689453125	-5.031585693359375	-3.299713134765625	10.073603485107421	-0.13766659545898435	-0.14125789794921875	2.849578857421875	-4.695892333984375	-1.12152099609375	
115	0.46	0.0	0.0	0.0	0.0	0.006	0.003	0.003	0.003	9.823409411621093	0.26874913635253905	0.15682020874023436	3.57818603515625	-3.787994384765625	-1.201629638671875	9.91558617553711	-0.296881005859375	0.2902969512939453	-0.1983642578125	-5.157470703125	-3.528594970703125	10.053252770996092	-0.36152445068359373	-0.4159925384521484	2.834320068359375	-4.901885986328125	-1.689910888671875	
116	0.464	0.0	0.0	0.0	0.0	0.003	0.003	0.003	0.003	9.750386260986328	0.41838674011230464	0.26216508178710934	3.25775146484375	-3.4637451171875	-1.42669677734375	9.766547122192382	-0.19512743530273435	0.30047230834960936	0.06866455078125	-5.039215087890625	-3.421783447265625	10.127473022460936	-0.2166752502441406	-0.12150573425292968	3.093719482421875	-4.730224609375	-1.186370849609375	
117	0.468	0.0	0.0	0.0	0.0	0.006	0.006	0.003	0.003	9.78031378173828	0.2980781066894531	0.2501940734863281	2.346038818359375	-3.444671630859375	-1.232147216796875	9.751583361816406	-0.27832594299316404	0.25917232971191406	-0.1220703125	-5.123138427734375	-3.406524658203125	9.981426721191406	-0.36691140441894526	-0.3705027069091797	2.834320068359375	-4.589080810546875	-1.51824951171875	
118	0.47200000000000003	0.0	0.0	0.0	0.0	0.006	0.003	0.003	0.003	9.766547122192382	0.316034619140625	0.2519897247314453	2.95257568359375	-3.57818603515625	-1.54876708984375	9.741408004760741	-0.16519991455078123	0.3699041564941406	-0.42724609375	-5.06591796875	-3.376007080078125	9.667786303710937	-0.08200140686035155	0.20949264526367187	2.651214599609375	-4.7607421875	-1.583099365234375	
119	0.47600000000000003	0.0	0.0	0.0	0.0	0.006	0.003	0.003	0.003	9.929951385498047	0.08499415893554688	-0.26874913635253905	2.20489501953125	-3.4332275390625	-1.003265380859375	9.80665	-0.373495458984375	0.16280571289062498	-0.091552734375	-5.123138427734375	-3.36456298828125	10.026916552734374	-0.430956298828125	-0.37409400939941406	2.849578857421875	-4.5166015625	-1.605987548828125	
120	0.48	0.0	0.0	0.0	0.0	0.003	0.003	0.003	0.006	9.832986218261718	0.1484405029296875	0.08678981018066406	2.5634765625	-3.215789794921875	-1.079559326171875	9.72285294189453	-0.3058592620849609	0.1514332550048828	-0.32806396484375	-4.69970703125	-3.284454345703125	9.706093530273437	-0.10893617553710937	0.12449848632812499	2.410888671875	-4.41741943359375	-1.453399658203125	
121	0.484	0.0	0.0	0.0	0.0	0.003	0.003	0.003	0.003	9.911994873046874	0.12330138549804687	-0.31962592163085934	2.28118896484375	-3.41033935546875	-0.6256103515625	9.767145672607422	-0.2651578338623047	0.14963760375976562	0.057220458984375	-5.001068115234375	-3.292083740234375	9.898826763916015	-0.3908534210205078	-0.30047230834960936	2.468109130859375	-4.764556884765625	-1.773834228515625	
122	0.488	0.0	0.0	0.0	0.0	-0.003	0.003	0.003	0.003	9.92755718383789	-0.08559270935058594	-0.21787235107421873	2.99835205078125	-4.08935546875	-0.89263916015625	9.798270294189452	-0.37828386230468747	0.030526071166992186	-0.026702880859375	-4.970550537109375	-3.19671630859375	9.744400756835937	-0.16340426330566404	0.20350714111328125	2.43377685546875	-4.543304443359375	-1.728057861328125	
123	0.492	0.0	0.0	0.0	0.0	0.003	0.003	0.003	0.006	9.9461122467041	-0.04967968444824218	-0.42317514343261714	2.83050537109375	-3.826141357421875	-0.9918212890625	9.737218151855469	-0.4896142395019531	-0.15382745666503905	0.48065185546875	-5.45501708984375	-3.19671630859375	9.775525378417969	-0.5213374114990235	-0.07242460021972656	2.384185791015625	-4.5928955078125	-1.74713134765625	
124	0.496	0.0	0.0	0.0	0.0	0.003	0.003	0.003	0.006	9.840767373657226	-0.025139117431640625	-0.0987608184814453	2.750396728515625	-4.032135009765625	-0.469207763671875	9.683947164916992	-0.3178302703857422	0.14604630126953125	-0.0762939453125	-4.695892333984375	-2.98309326171875	9.60194575805664	-0.05686228942871093	0.23582886352539062	2.44903564453125	-4.558563232421875	-1.708984375	
125	0.5	0.0	0.0	0.0	0.0	0.006	0.003	0.003	0.003	9.880271701049804	0.18076222534179687	-0.277727392578125	2.925872802734375	-4.02069091796875	-0.87738037109375	9.668983404541015	-0.40282442932128903	0.04369418029785156	0.28228759765625	-5.2947998046875	-3.23486328125	9.720458740234374	-0.469263525390625	0.012569558715820313	2.6092529296875	-4.962921142578125	-1.708984375	
126	0.504	0.0	0.0	0.0	0.0	0.0	0.006	0.006	0.006	9.874884747314452	-0.018555062866210937	-0.047285482788085934	2.941131591796875	-3.894805908203125	-1.1749267578125	9.822212310791015	-0.3746925598144531	0.08738836059570312	0.22125244140625	-4.82940673828125	-2.74658203125	10.01733974609375	-0.2819172454833984	-0.14903905334472656	2.841949462890625	-4.398345947265625	-1.9989013671875	
127	0.508	0.0	0.0	0.0	0.0	0.006	0.003	0.003	0.006	9.920374578857421	-0.016759411621093748	-0.028730419921875	3.13568115234375	-4.02069091796875	-1.117706298828125	9.619303720092773	-0.2980781066894531	0.029328970336914062	0.141143798828125	-5.321502685546875	-3.376007080078125	9.676764559936522	-0.4674678741455078	-0.06584054565429687	2.254486083984375	-4.619598388671875	-1.873016357421875	
128	0.512	0.0	0.0	0.0	0.0	0.003	0.003	0.003	0.006	9.771335525512695	0.04129997863769531	0.11372457885742186	2.681732177734375	-3.72314453125	-0.58746337890625	9.71028338317871	-0.3298012786865234	0.14484920043945312	-0.0762939453125	-4.669189453125	-2.735137939453125	9.833584768676758	-0.18914193115234373	-0.16280571289062498	2.635955810546875	-4.177093505859375	-1.689910888671875	
129	0.516	0.0	0.0	0.0	0.0	0.006	0.003	0.003	0.003	9.996390481567381	0.023942016601562498	-0.12150573425292968	2.99835205078125	-3.681182861328125	-0.942230224609375	9.91438907470703	-0.5153519073486328	0.0430956298828125	0.091552734375	-5.08880615234375	-3.116607666015625	10.131064324951172	-0.3399766357421875	-0.3136404174804687	2.529144287109375	-4.390716552734375	-1.0223388671875	
130	0.52	0.0	0.0	0.0	0.0	0.003	0.003	0.003	0.003	9.858723886108399	-0.11372457885742186	-0.011971008300781249	4.497528076171875	-4.016876220703125	-1.583099365234375	9.746794958496093	-0.4273649963378906	0.1131260284423828	-0.194549560546875	-4.87518310546875	-2.948760986328125	9.922768780517577	-0.30526071166992186	-0.17477672119140625	2.6702880859375	-4.230499267578125	-1.697540283203125	
131	0.524	0.0	0.0	0.0	0.0	0.0	0.003	0.003	0.006	9.928155734252929	-0.044292730712890624	-0.14305354919433594	2.689361572265625	-3.54766845703125	-0.79345703125	9.69831237487793	-0.38845921936035155	0.1657984649658203	0.3662109375	-5.24139404296875	-3.0059814453125	9.859920986938477	-0.19393033447265623	-0.18555062866210936	2.57110595703125	-4.543304443359375	-1.21307373046875	
132	0.528	0.0	0.0	0.0	0.0	0.006	0.003	0.006	0.003	9.995791931152343	0.29568390502929687	-0.18614917907714842	4.5013427734375	-4.337310791015625	-1.056671142578125	9.929951385498047	-0.2537853759765625	-0.008978256225585938	0.118255615234375	-4.695892333984375	-3.002166748046875	9.941323843383788	-0.3112462158203125	-0.11073182678222655	2.613067626953125	-4.5013427734375	-1.3885498046875	
133	0.532	0.0	0.0	0.0	0.0	0.006	0.003	0.003	0.003	9.981426721191406	-0.17238251953125	-0.09337386474609374	2.12860107421875	-3.604888916015625	-0.850677490234375	9.889249957275391	-0.5021837982177734	0.09038111267089843	0.5035400390625	-4.909515380859375	-3.025054931640625	10.16338604736328	-0.3076549133300781	-0.19033903198242186	2.655029296875	-4.856109619140625	-1.190185546875	
134	0.536	0.0	0.0	0.0	0.0	0.003	0.003	0.003	0.003	9.925162982177733	0.4435258575439453	-0.11671733093261719	4.383087158203125	-4.21142578125	-1.495361328125	9.889249957275391	-0.15322890625	-0.013766659545898436	0.48828125	-4.924774169921875	-3.131866455078125	10.226233840942383	-0.44053310546874996	-0.5410895751953124	2.742767333984375	-4.34112548828125	-1.697540283203125	
135	0.54	0.0	0.0	0.0	0.0	0.003	0.003	0.003	0.003	9.69771382446289	0.5955576629638671	0.2657563842773437	4.383087158203125	-4.016876220703125	-1.697540283203125	9.627084875488281	-0.2328361114501953	0.5189432098388671	-0.06103515625	-5.069732666015625	-2.841949462890625	9.977236868286132	-0.08978256225585937	-0.17178396911621094	2.86102294921875	-4.688262939453125	-1.1138916015625	
136	0.544	0.0	0.0	0.0	0.0	0.003	0.006	0.003	0.003	10.013149893188476	0.2813186950683594	-0.16819266662597654	3.91387939453125	-3.96728515625	-1.6021728515625	10.041880313110351	-0.2813186950683594	-0.02633621826171875	0.240325927734375	-4.947662353515625	-3.200531005859375	10.450690246582031	-0.5668272430419922	-0.612915625	2.803802490234375	-4.467010498046875	-1.4495849609375	
137	0.548	0.0	0.0	0.0	0.0	0.006	0.003	0.006	0.006	9.826402163696288	0.5620388397216797	0.14185644836425781	4.15802001953125	-4.14276123046875	-1.64031982421875	9.734225399780273	-0.3507505432128906	0.5123591552734374	-0.118255615234375	-4.962921142578125	-3.23486328125	10.141838232421874	-0.1466448516845703	-0.15682020874023436	2.8533935546875	-4.53948974609375	-1.617431640625	
138	0.552	0.0	0.0	0.0	0.0	0.003	0.003	0.006	0.006	9.858723886108399	0.3172317199707031	0.003591302490234375	3.528594970703125	-3.673553466796875	-1.148223876953125	9.817423907470703	-0.12330138549804687	0.040102877807617184	0.244140625	-4.917144775390625	-3.368377685546875	10.073603485107421	-0.36631285400390623	-0.42377369384765623	2.742767333984375	-4.512786865234375	-1.47247314453125	
139	0.556	0.0	0.0	0.0	0.0	0.003	0.006	0.003	0.003	9.781510882568359	0.3800795135498047	0.1849520782470703	4.009246826171875	-3.89862060546875	-1.316070556640625	9.821015209960937	-0.296881005859375	0.3800795135498047	0.11444091796875	-5.279541015625	-3.22723388671875	10.107720858764647	-0.08379705810546874	-0.06943184814453125	2.918243408203125	-4.657745361328125	-1.40380859375	
140	0.56	0.0	0.0	0.0	0.0	0.003	0.003	0.003	0.006	9.920374578857421	0.052073886108398436	0.029927520751953124	2.529144287109375	-3.482818603515625	-1.399993896484375	10.064026678466796	-0.3746925598144531	-0.062249243164062495	0.186920166015625	-5.01251220703125	-3.59344482421875	10.131064324951172	-0.5087678527832031	-0.18435352783203124	2.93731689453125	-4.72259521484375	-1.2969970703125	
141	0.5640000000000001	0.0	0.0	0.0	0.0	0.006	0.006	0.003	4.116	9.695319622802733	0.5386953735351562	0.29568390502929687	3.92913818359375	-4.222869873046875	-1.45721435546875	9.585186346435547	-0.17417817077636719	0.5446808776855468	0.240325927734375	-5.25665283203125	-3.108978271484375	9.868300692749022	0.0005985504150390625	-0.05327098693847656	2.75421142578125	-4.703521728515625	-1.56402587890625	
142	0.5680000000000001	0.0	0.0	0.0	0.0	4.62	4.665	4.668	4.62	9.848548529052733	0.4213794921875	0.037110125732421874	3.154754638671875	-3.82232666015625	-1.163482666015625	9.954491952514648	-0.19153613281249998	-0.029927520751953124	0.0762939453125	-4.917144775390625	-3.185272216796875	9.949703549194336	-0.17657237243652343	-0.2501940734863281	2.7618408203125	-4.67681884765625	-1.0833740234375	
143	0.5720000000000001	0.0	0.0	0.0	0.0	4.641	4.671	4.671	4.6290000000000004	9.822810861206055	0.3315969299316406	0.19632453613281248	2.62451171875	-3.448486328125	-1.15203857421875	9.758765966796874	-0.3507505432128906	0.5027823486328125	0.09918212890625	-4.8370361328125	-3.51715087890625	10.251971508789062	-0.2711433380126953	-0.040102877807617184	2.597808837890625	-4.703521728515625	-1.827239990234375	
144	0.5760000000000001	0.0	0.0	0.0	0.0	4.647	4.665	4.671	4.632	9.888651406860351	0.05327098693847656	-0.05985504150390625	2.780914306640625	-3.5552978515625	-1.36566162109375	9.883264453125	-0.316034619140625	-0.03172317199707031	0.19073486328125	-4.398345947265625	-3.35693359375	9.956886154174803	-0.26276363220214843	-0.16639701538085935	3.017425537109375	-4.70733642578125	-1.18255615234375	
145	0.58	0.0	0.0	0.0	0.0	4.641	4.671	4.671	4.638	9.719860189819336	0.12150573425292968	0.20231004028320312	2.559661865234375	-3.803253173828125	-0.91552734375	9.550470422363281	0.013168109130859374	0.42975919799804685	-0.08392333984375	-5.214691162109375	-3.0670166015625	9.475651620483397	-0.17178396911621094	0.20470424194335937	2.28118896484375	-4.642486572265625	-1.85394287109375	
146	0.584	0.0	0.0	0.0	0.0	4.638	4.671	4.671	4.641	9.952696301269532	0.19871873779296872	-0.055066638183593745	2.735137939453125	-3.650665283203125	-1.026153564453125	9.795277542114258	-0.5446808776855468	0.16699556579589842	0.133514404296875	-5.2947998046875	-3.444671630859375	10.142436782836914	-0.3429693878173828	-0.1131260284423828	2.81524658203125	-4.61578369140625	-1.1444091796875	
147	0.588	0.0	0.0	0.0	0.0	4.635	4.671	4.665	4.644	9.859322436523437	0.03950432739257812	0.10295067138671875	2.3651123046875	-3.570556640625	-1.38092041015625	9.737218151855469	-0.2561795776367187	0.31663316955566406	0.263214111328125	-4.82177734375	-3.444671630859375	9.809044201660155	-0.5063736511230469	0.1975216369628906	2.2125244140625	-4.4097900390625	-2.216339111328125	
148	0.592	0.0	0.0	0.0	0.0	4.644	4.671	4.674	4.626	9.777919580078125	0.23642741394042968	0.07841010437011718	2.925872802734375	-3.70025634765625	-0.93841552734375	9.555857376098633	-0.18914193115234373	0.19871873779296872	0.026702880859375	-5.153656005859375	-3.4027099609375	9.496600885009766	0.06823474731445311	0.17657237243652343	2.285003662109375	-4.711151123046875	-1.789093017578125	
149	0.596	0.0	0.0	0.0	0.0	4.644	4.674	4.671	4.623	9.750386260986328	-0.004189852905273437	0.16699556579589842	2.460479736328125	-3.88336181640625	-1.0986328125	9.567229833984374	-0.2645592834472656	0.36930560607910157	-0.110626220703125	-4.730224609375	-2.899169921875	9.673173257446289	-0.3872621185302734	0.3178302703857422	2.407073974609375	-4.436492919921875	-1.80816650390625	
150	0.6	0.0	0.0	0.0	0.0	4.641	4.671	4.671	4.6290000000000004	10.007762939453125	-0.17118541870117188	-0.10354922180175781	2.9144287109375	-3.498077392578125	-1.04522705078125	9.900023864746093	-0.5063736511230469	0.11432312927246092	-0.217437744140625	-4.810333251953125	-3.387451171875	10.051457119750976	-0.2980781066894531	-0.02154781494140625	2.49481201171875	-4.528045654296875	-1.956939697265625	
151	0.604	0.0	0.0	0.0	0.0	4.644	4.665	4.671	4.638	9.70369932861328	0.23582886352539062	0.16340426330566404	2.399444580078125	-3.39508056640625	-0.93841552734375	9.472060317993163	-0.16759411621093748	0.43454760131835934	-0.06866455078125	-4.82940673828125	-3.536224365234375	9.74799205932617	-0.3603273498535156	-0.1514332550048828	2.651214599609375	-4.23431396484375	-1.781463623046875	
152	0.608	0.0	0.0	0.0	0.0	4.641	4.674	4.674	4.641	9.78629928588867	0.3076549133300781	0.05686228942871093	2.92205810546875	-3.803253173828125	-1.21307373046875	9.598953005981445	-0.22266075439453123	0.3094505645751953	0.057220458984375	-5.340576171875	-2.84576416015625	9.622895022583007	0.001197100830078125	0.15981296081542967	2.330780029296875	-4.550933837890625	-1.38092041015625	
153	0.612	0.0	0.0	0.0	0.0	0.009000000000000001	0.003	0.003	0.003	9.9981861328125	-0.13826514587402344	-0.1149216796875	3.101348876953125	-3.71551513671875	-0.946044921875	9.837176071166992	-0.4477157104492187	0.24001871643066405	-0.003814697265625	-5.001068115234375	-3.391265869140625	10.204686026000976	-0.5710170959472656	-0.3537432952880859	2.445220947265625	-4.1656494140625	-1.28173828125	
154	0.616	0.0	0.0	0.0	0.0	0.003	0.003	0.003	0.003	9.962273107910155	0.09995791931152344	-0.22685060729980466	3.10516357421875	-3.810882568359375	-0.8697509765625	9.74200655517578	-0.39444472351074217	0.11372457885742186	-0.003814697265625	-5.115509033203125	-3.1280517578125	9.617508068847656	-0.14425065002441406	-0.35314474487304687	2.55584716796875	-4.4097900390625	-1.65557861328125	
155	0.62	0.0	0.0	0.0	0.0	0.003	0.003	0.003	0.003	9.858125335693359	0.36930560607910157	-0.03531447448730469	3.612518310546875	-3.92913818359375	-0.957489013671875	9.718064538574218	-0.055066638183593745	-0.0005985504150390625	0.400543212890625	-4.894256591796875	-3.12042236328125	9.635464581298828	-0.07362170104980469	-0.13587094421386717	2.40325927734375	-4.169464111328125	-1.22833251953125	
156	0.624	0.0	0.0	0.0	0.0	0.003	0.003	0.006	0.006	10.045471615600585	-0.15562310791015624	-0.30466216125488277	3.570556640625	-4.337310791015625	-0.919342041015625	9.899425314331054	-0.5470750793457031	0.04369418029785156	0.072479248046875	-5.268096923828125	-2.948760986328125	10.225635290527343	-0.3507505432128906	-0.35015199279785153	2.8839111328125	-4.61578369140625	-1.3580322265625	
157	0.628	0.0	0.0	0.0	0.0	0.006	0.003	0.003	0.003	10.051457119750976	0.16819266662597654	-0.3232172241210937	3.856658935546875	-4.169464111328125	-1.1749267578125	9.949104998779296	-0.37828386230468747	-0.10893617553710937	0.14495849609375	-5.0506591796875	-3.1585693359375	9.959280355834961	-0.3758896606445312	-0.24181436767578124	2.590179443359375	-4.215240478515625	-1.819610595703125	
158	0.632	0.0	0.0	0.0	0.0	0.003	0.003	0.003	0.003	9.78689783630371	0.40581718139648437	0.11013327636718749	3.871917724609375	-3.88336181640625	-1.3427734375	9.491812481689452	-0.2555810272216797	0.26336218261718747	-0.019073486328125	-4.734039306640625	-3.025054931640625	9.776722479248047	-0.07481880187988281	-0.2962824554443359	2.70843505859375	-4.161834716796875	-1.323699951171875	
159	0.636	0.0	0.0	0.0	0.0	0.003	0.006	0.003	0.006	9.917980377197265	0.11731588134765625	-0.051475335693359374	3.76129150390625	-4.0740966796875	-1.018524169921875	9.909600671386718	-0.3477577911376953	-0.055066638183593745	0.400543212890625	-5.10406494140625	-3.02886962890625	10.235212097167969	-0.14185644836425781	-0.5345055206298828	2.9144287109375	-4.642486572265625	-1.003265380859375	
160	0.64	0.0	0.0	0.0	0.0	0.003	0.003	0.003	0.003	9.898228213500976	0.15203180541992187	0.018555062866210937	3.5552978515625	-4.14276123046875	-1.38092041015625	9.966462960815429	-0.4010287780761719	0.11133037719726561	-0.0152587890625	-5.077362060546875	-3.204345703125	10.262745416259765	-0.5829881042480468	-0.4070142822265625	2.742767333984375	-4.398345947265625	-1.62506103515625	
161	0.644	0.0	0.0	0.0	0.0	0.006	0.003	0.003	0.006	9.9078050201416	0.2316390106201172	-0.0909796630859375	2.902984619140625	-3.265380859375	-1.5869140625	9.759963067626952	-0.16460136413574217	-0.0430956298828125	0.141143798828125	-4.55474853515625	-3.3416748046875	10.159196194458007	-0.015562310791015624	-0.747589468383789	2.933502197265625	-4.451751708984375	-1.583099365234375	
162	0.648	0.0	0.0	0.0	0.0	0.006	0.006	0.003	0.003	9.76116016845703	0.43574470214843747	0.19632453613281248	4.2572021484375	-4.31060791015625	-1.40380859375	9.706093530273437	-0.2316390106201172	0.3441664886474609	0.026702880859375	-5.340576171875	-2.69317626953125	9.871891995239258	-0.16160861206054686	-0.11073182678222655	3.18145751953125	-4.6234130859375	-1.35040283203125	
163	0.652	0.0	0.0	0.0	0.0	0.006	0.006	0.006	0.003	9.947907897949218	0.21308394775390624	-0.018555062866210937	2.948760986328125	-3.734588623046875	-1.346588134765625	10.084975942993163	-0.43514615173339843	-0.086191259765625	0.41961669921875	-5.245208740234375	-3.421783447265625	10.535684405517577	-0.3746925598144531	-0.6859387756347656	2.826690673828125	-4.39453125	-1.445770263671875	
164	0.656	0.0	0.0	0.0	0.0	0.003	0.003	0.003	0.006	9.83178911743164	0.3758896606445312	0.06584054565429687	4.0435791015625	-3.734588623046875	-1.5106201171875	9.795277542114258	-0.31962592163085934	0.18255787658691405	0.18310546875	-4.833221435546875	-3.08990478515625	10.155604891967773	-0.31663316955566406	-0.30466216125488277	2.986907958984375	-4.566192626953125	-1.495361328125	
165	0.66	0.0	0.0	0.0	0.0	0.009000000000000001	0.003	0.003	0.006	9.712079034423828	0.41838674011230464	0.27952304382324217	3.42559814453125	-3.963470458984375	-1.377105712890625	9.735422500610351	-0.09576806640624999	0.16220716247558592	0.67138671875	-4.970550537109375	-3.31878662109375	9.783905084228515	-0.16819266662597654	-0.30047230834960936	2.8533935546875	-4.7149658203125	-1.399993896484375	
166	0.664	0.0	0.0	0.0	0.0	0.003	0.003	0.003	0.003	9.810839852905273	0.16519991455078123	0.181959326171875	2.689361572265625	-3.849029541015625	-1.209259033203125	9.809044201660155	-0.33698388366699217	0.25797522888183594	0.19073486328125	-5.321502685546875	-3.2196044921875	10.211868630981444	-0.4213794921875	-0.09157821350097656	3.021240234375	-4.970550537109375	-1.1444091796875	
167	0.668	0.0	0.0	0.0	0.0	0.003	0.003	0.006	0.006	9.91498762512207	0.2184709014892578	0.016160861206054686	3.063201904296875	-3.4027099609375	-1.6937255859375	10.03050785522461	-0.28311434631347654	-0.08080430603027343	0.263214111328125	-4.886627197265625	-3.490447998046875	10.174758505249024	-0.4746504791259765	-0.4560954162597656	2.864837646484375	-4.596710205078125	-1.796722412109375	
168	0.672	0.0	0.0	0.0	0.0	0.003	0.003	0.006	0.003	9.795277542114258	0.20649989318847656	0.15382745666503905	2.38037109375	-3.154754638671875	-1.31988525390625	9.609726913452148	-0.15263035583496093	0.3441664886474609	0.1678466796875	-4.978179931640625	-3.391265869140625	9.84555577697754	-0.20530279235839843	0.010773907470703125	2.61688232421875	-4.45556640625	-1.148223876953125	
169	0.676	0.0	0.0	0.0	0.0	0.003	0.003	0.003	0.003	9.764751470947266	0.11731588134765625	0.33758243408203126	2.681732177734375	-3.68499755859375	-1.369476318359375	9.65342109375	-0.35134909362792965	0.22086510314941404	-0.339508056640625	-5.10406494140625	-3.192901611328125	9.962273107910155	-0.36092590026855464	-0.27952304382324217	2.9754638671875	-4.79888916015625	-1.44195556640625	
170	0.68	0.0	0.0	0.0	0.0	0.003	0.003	0.003	0.003	10.003573086547851	-0.01915361328125	-0.11372457885742186	2.231597900390625	-3.3111572265625	-1.24359130859375	9.920374578857421	-0.25797522888183594	0.1945288848876953	0.29754638671875	-4.871368408203125	-3.513336181640625	9.919177478027343	-0.3094505645751953	0.08978256225585937	2.349853515625	-4.642486572265625	-1.6326904296875	
171	0.684	0.0	0.0	0.0	0.0	0.006	0.003	0.003	0.006	9.929352835083007	0.03651157531738281	-0.30885201416015623	2.864837646484375	-3.84521484375	-1.163482666015625	9.663596450805663	-0.48063598327636714	0.10175357055664062	-0.072479248046875	-4.978179931640625	-3.543853759765625	9.805452899169921	-0.3902548706054687	-0.21607669982910155	3.15093994140625	-4.528045654296875	-1.728057861328125	
172	0.6880000000000001	0.0	0.0	0.0	0.0	0.006	0.006	0.003	0.003	9.821015209960937	0.05386953735351562	0.15682020874023436	2.166748046875	-3.30352783203125	-1.1138916015625	9.494206683349608	-0.16220716247558592	0.38845921936035155	-0.1373291015625	-5.2032470703125	-2.864837646484375	9.485228427124023	-0.00718260498046875	0.31543606872558594	2.64739990234375	-4.8980712890625	-1.628875732421875	
173	0.6920000000000001	0.0	0.0	0.0	0.0	0.003	0.003	0.003	0.003	9.970054263305663	-0.09816226806640624	-0.27892449340820313	2.38037109375	-3.8604736328125	-0.77056884765625	9.89523546142578	-0.49739539489746093	-0.11432312927246092	0.06866455078125	-5.298614501953125	-3.4942626953125	9.781510882568359	-0.5967547637939453	0.06464344482421874	2.3193359375	-4.848480224609375	-1.74713134765625	
174	0.6960000000000001	0.0	0.0	0.0	0.0	0.003	0.003	0.003	0.003	10.001777435302733	-0.03651157531738281	-0.2184709014892578	3.208160400390625	-3.90625	-1.04522705078125	9.737816702270507	-0.430956298828125	0.11731588134765625	-0.019073486328125	-4.69207763671875	-3.16619873046875	9.795876092529296	-0.2041056915283203	0.11192892761230468	2.719879150390625	-4.428863525390625	-1.811981201171875	
175	0.7000000000000001	0.0	0.0	0.0	0.0	0.003	0.003	0.003	0.003	9.759963067626952	0.12509703674316405	0.029927520751953124	3.11279296875	-4.0740966796875	-0.743865966796875	9.553463174438477	-0.3477577911376953	0.21009119567871093	0.080108642578125	-5.218505859375	-3.284454345703125	9.510367544555663	-0.40462008056640625	0.08080430603027343	2.4261474609375	-4.60052490234375	-1.766204833984375	
176	0.704	0.0	0.0	0.0	0.0	0.003	0.003	0.006	0.006	9.827000714111328	-0.05746083984375	0.16819266662597654	2.559661865234375	-3.688812255859375	-0.904083251953125	9.68454571533203	-0.4878185882568359	0.3387795349121094	0.347137451171875	-5.1116943359375	-2.90679931640625	9.872490545654296	-0.076614453125	-0.023343466186523436	2.960205078125	-4.364013671875	-1.56402587890625	
177	0.708	0.0	0.0	0.0	0.0	0.003	0.003	0.003	0.006	9.937732540893554	0.011971008300781249	-0.23104046020507812	3.505706787109375	-3.978729248046875	-1.06048583984375	9.846752877807617	-0.4878185882568359	0.025139117431640625	0.057220458984375	-5.084991455078125	-3.3416748046875	9.970054263305663	-0.6823474731445313	-0.13407529296874998	2.3956298828125	-4.730224609375	-1.86920166015625	
178	0.712	0.0	0.0	0.0	0.0	0.0	0.003	0.003	0.003	9.779116680908203	0.033518823242187495	0.19033903198242186	2.86865234375	-3.51715087890625	-0.89263916015625	9.508571893310547	-0.34117373657226563	0.4578910675048828	-0.110626220703125	-4.5166015625	-3.093719482421875	9.817423907470703	-0.07302315063476562	-0.15442600708007811	2.3956298828125	-4.1046142578125	-1.7852783203125	
179	0.716	0.0	0.0	0.0	0.0	0.0	0.003	0.003	0.003	9.85752678527832	0.10773907470703124	0.11372457885742186	2.605438232421875	-3.71551513671875	-0.949859619140625	9.603142858886718	-0.316034619140625	0.22026655273437498	0.026702880859375	-5.176544189453125	-2.941131591796875	9.600150106811522	-0.3525461944580078	0.18435352783203124	2.826690673828125	-5.8441162109375	-1.45721435546875	
180	0.72	0.0	0.0	0.0	0.0	0.003	0.003	0.003	0.003	9.981426721191406	-0.23582886352539062	-0.07781155395507812	2.72369384765625	-3.6163330078125	-0.92315673828125	9.969455712890625	-0.45489831542968745	0.022744915771484374	-0.03814697265625	-4.833221435546875	-2.918243408203125	10.130465774536132	-0.4291606475830078	-0.22385785522460935	2.681732177734375	-4.608154296875	-1.617431640625	
181	0.724	0.0	0.0	0.0	0.0	0.009000000000000001	0.006	0.003	0.003	9.957484704589843	-0.06045359191894531	-0.059256491088867186	2.468109130859375	-3.5400390625	-0.91552734375	9.704896429443359	-0.35194764404296874	0.02633621826171875	0.3814697265625	-5.084991455078125	-3.387451171875	10.088567245483398	-0.2214636535644531	-0.2442085693359375	2.76947021484375	-4.37164306640625	-1.30462646484375	
182	0.728	0.0	0.0	0.0	0.0	0.003	0.003	0.003	0.006	9.807847100830077	0.24839842224121092	0.11552023010253906	3.4637451171875	-3.89862060546875	-0.659942626953125	9.593566052246093	-0.21906945190429686	0.28012159423828126	-0.003814697265625	-4.924774169921875	-2.98309326171875	9.649829791259766	-0.20829554443359374	0.005985504150390624	2.4566650390625	-4.512786865234375	-1.77764892578125	
183	0.732	0.0	0.0	0.0	0.0	0.006	0.003	0.003	0.006	9.96586441040039	-0.07481880187988281	0.014963760375976562	2.567291259765625	-3.70025634765625	-0.8087158203125	9.891644158935547	-0.40462008056640625	0.2166752502441406	0.640869140625	-5.36346435546875	-2.933502197265625	10.187328063964843	-0.14185644836425781	-0.3136404174804687	2.788543701171875	-4.772186279296875	-1.068115234375	
184	0.736	0.0	0.0	0.0	0.0	0.003	0.003	0.003	0.003	10.006565838623047	0.27892449340820313	-0.18136077575683593	3.490447998046875	-3.742218017578125	-1.514434814453125	9.91438907470703	-0.34536358947753903	-0.009576806640625	0.080108642578125	-4.8675537109375	-3.3416748046875	10.479420666503906	-0.6266822845458984	-0.5991489654541016	2.994537353515625	-4.261016845703125	-1.300811767578125	
185	0.74	0.0	0.0	0.0	0.0	0.003	0.003	0.003	0.003	9.763554370117188	0.2555810272216797	0.26815058593749996	2.994537353515625	-3.787994384765625	-1.079559326171875	9.673771807861328	-0.25797522888183594	0.34835634155273437	0.12969970703125	-5.2490234375	-3.139495849609375	9.804255798339844	0.06763619689941405	-0.06883329772949218	2.887725830078125	-4.589080810546875	-1.2664794921875	
186	0.744	0.0	0.0	0.0	0.0	0.003	0.003	0.003	0.003	9.874884747314452	0.4333505004882812	-0.022146365356445312	3.56292724609375	-3.8909912109375	-1.262664794921875	9.91558617553711	-0.07900865478515624	0.008379705810546874	0.629425048828125	-5.039215087890625	-2.87628173828125	10.21486138305664	-0.4112041351318359	-0.5279214660644531	2.685546875	-4.46319580078125	-1.140594482421875	
187	0.748	0.0	0.0	0.0	0.0	0.003	0.003	4.647	4.635	10.043077413940429	-0.1322796417236328	0.03890577697753906	3.84521484375	-3.8604736328125	-1.636505126953125	10.004770187377929	-0.49380409240722656	0.11432312927246092	0.16021728515625	-5.31768798828125	-3.047943115234375	10.305841046142577	-0.17657237243652343	-0.23582886352539062	3.047943115234375	-4.817962646484375	-1.399993896484375	
188	0.752	0.0	0.0	0.0	0.0	4.632	4.668	4.668	4.644	9.883264453125	0.3794809631347656	-0.02693476867675781	3.30352783203125	-3.4637451171875	-1.4801025390625	9.880870251464843	-0.1370680450439453	0.025737667846679687	0.7171630859375	-4.970550537109375	-3.41033935546875	10.160991845703125	-0.411802685546875	-0.5183446594238281	3.170013427734375	-4.558563232421875	-1.4801025390625	
189	0.756	0.0	0.0	0.0	0.0	4.644	4.671	4.665	4.641	9.6917283203125	0.6416460449218749	0.18315642700195311	3.856658935546875	-4.119873046875	-1.300811767578125	9.610325463867188	-0.06943184814453125	0.33578678283691404	0.339508056640625	-5.367279052734375	-3.21197509765625	9.848548529052733	0.14544775085449219	-0.0383072265625	3.108978271484375	-5.0811767578125	-1.67083740234375	
190	0.76	0.0	0.0	0.0	0.0	4.641	4.674	4.674	4.626	10.04846436767578	0.3459621398925781	-0.229843359375	3.66973876953125	-3.9215087890625	-1.4801025390625	10.133458526611328	-0.34656069030761716	-0.21727380065917967	0.514984130859375	-4.695892333984375	-2.933502197265625	10.460267053222656	-0.6260837341308594	-0.6105214233398437	2.918243408203125	-4.6844482421875	-1.18255615234375	
191	0.764	0.0	0.0	0.0	0.0	4.644	4.671	4.671	4.62	9.8449572265625	0.4369418029785156	-0.037708676147460936	4.062652587890625	-3.94439697265625	-1.51824951171875	9.81263550415039	-0.20530279235839843	0.10773907470703124	0.438690185546875	-5.18798828125	-3.44085693359375	10.142436782836914	-0.12330138549804687	-0.24121581726074218	2.910614013671875	-4.505157470703125	-1.70135498046875	
192	0.768	0.0	0.0	0.0	0.0	4.644	4.671	4.671	4.6290000000000004	9.783905084228515	0.19033903198242186	-0.010773907470703125	2.43377685546875	-3.662109375	-1.171112060546875	9.68454571533203	-0.20290859069824219	0.07242460021972656	0.2288818359375	-4.87518310546875	-3.48663330078125	9.827000714111328	-0.16879121704101563	-0.2711433380126953	3.10516357421875	-4.69970703125	-1.300811767578125	
193	0.772	0.0	0.0	0.0	0.0	4.647	4.674	4.674	4.638	9.850344180297851	0.4159925384521484	-0.01915361328125	3.841400146484375	-4.2877197265625	-1.1444091796875	9.86411083984375	-0.16819266662597654	0.08020575561523437	0.37384033203125	-5.53131103515625	-2.933502197265625	10.224438189697265	-0.1514332550048828	-0.3489548919677734	3.108978271484375	-4.85992431640625	-1.277923583984375	
194	0.776	0.0	0.0	0.0	0.0	4.641	4.674	4.674	4.641	9.974244116210937	0.07242460021972656	-0.20649989318847656	2.9449462890625	-3.551483154296875	-1.377105712890625	9.924564431762695	-0.4704606262207031	0.002992752075195312	0.4119873046875	-4.978179931640625	-3.620147705078125	10.24000050048828	-0.44412440795898434	-0.48662148742675776	2.910614013671875	-4.627227783203125	-1.399993896484375	
195	0.78	0.0	0.0	0.0	0.0	4.638	4.671	4.671	4.644	9.750984811401366	0.46507367248535153	0.01975216369628906	3.01361083984375	-4.2266845703125	-1.50299072265625	9.586981997680663	-0.143652099609375	0.3585316986083984	0.148773193359375	-5.01251220703125	-3.448486328125	9.617508068847656	-0.18315642700195311	0.11133037719726561	2.593994140625	-4.505157470703125	-1.766204833984375	
196	0.784	0.0	0.0	0.0	0.0	4.644	4.671	4.668	0.006	9.811438403320311	0.19093758239746092	-0.0005985504150390625	2.956390380859375	-3.9520263671875	-1.194000244140625	9.803058697509766	-0.31483751831054685	0.032920272827148434	0.675201416015625	-5.451202392578125	-3.3721923828125	9.943119494628906	-0.1945288848876953	-0.21906945190429686	2.6092529296875	-4.673004150390625	-1.22833251953125	
197	0.788	0.0	0.0	0.0	0.0	0.006	0.003	0.003	0.003	9.87009634399414	-0.02454056701660156	-0.05746083984375	2.5177001953125	-3.50189208984375	-0.965118408203125	9.783905084228515	-0.3890577697753906	0.27353753967285155	0.05340576171875	-5.11932373046875	-3.429412841796875	9.90122096557617	-0.46806642456054687	0.08080430603027343	2.66265869140625	-4.833221435546875	-1.86920166015625	
198	0.792	0.0	0.0	0.0	0.0	0.003	0.003	0.003	0.003	9.828796365356444	0.16220716247558592	0.01975216369628906	2.79998779296875	-3.345489501953125	-1.30462646484375	9.847949978637695	-0.28431144714355466	-0.06584054565429687	-0.23651123046875	-5.126953125	-3.253936767578125	9.767145672607422	-0.30346506042480464	-0.0053869537353515625	2.26593017578125	-4.543304443359375	-1.708984375	
199	0.796	0.0	0.0	0.0	0.0	0.006	0.003	0.003	0.003	9.692925421142577	0.12988544006347655	0.13407529296874998	2.193450927734375	-3.31878662109375	-0.812530517578125	9.617508068847656	-0.17357962036132812	0.2232593048095703	-0.06866455078125	-5.035400390625	-3.31878662109375	9.513360296630859	-0.18734627990722655	0.28790274963378903	2.376556396484375	-4.177093505859375	-1.64031982421875	
200	0.8	0.0	0.0	0.0	0.0	0.003	0.006	0.003	0.006	9.934739788818359	0.14903905334472656	-0.1274912384033203	3.246307373046875	-4.047393798828125	-0.92315673828125	9.737816702270507	-0.5123591552734374	0.11192892761230468	-0.2288818359375	-5.107879638671875	-2.986907958984375	9.816825357055663	-0.4147954376220703	0.037110125732421874	2.3956298828125	-4.730224609375	-1.613616943359375	
201	0.804	0.0	0.0	0.0	0.0	0.003	0.006	0.003	0.003	9.878476049804688	-0.11671733093261719	-0.08858546142578125	2.1514892578125	-3.116607666015625	-0.9765625	9.76774422302246	-0.32082302246093747	0.12629413757324218	-0.00762939453125	-4.779815673828125	-3.513336181640625	9.765350021362304	-0.3585316986083984	0.06284779357910156	2.5787353515625	-4.47845458984375	-1.705169677734375	
202	0.808	0.0	0.0	0.0	0.0	0.006	0.003	0.003	0.003	9.865307940673828	0.029328970336914062	-0.06105214233398437	2.635955810546875	-3.570556640625	-0.568389892578125	9.504382040405273	-0.39324762268066404	0.3429693878173828	-0.133514404296875	-5.374908447265625	-3.078460693359375	9.51814869995117	-0.22385785522460935	0.11552023010253906	2.34222412109375	-4.779815673828125	-1.9073486328125	
203	0.812	0.0	0.0	0.0	0.0	0.003	0.003	0.003	0.006	9.853336932373047	-0.10474632263183593	-0.011971008300781249	2.040863037109375	-3.360748291015625	-0.736236572265625	9.753977563476562	-0.3764882110595703	0.12030863342285156	-0.03814697265625	-5.084991455078125	-3.078460693359375	9.875483297729492	-0.25139117431640623	-0.10354922180175781	2.70843505859375	-4.3182373046875	-1.476287841796875	
204	0.8160000000000001	0.0	0.0	0.0	0.0	0.006	0.003	0.003	0.009000000000000001	9.976638317871092	-0.028730419921875	-0.18255787658691405	2.986907958984375	-3.971099853515625	-0.881195068359375	9.7683427734375	-0.6542156036376953	0.08080430603027343	-0.17547607421875	-4.810333251953125	-3.116607666015625	9.881468801879882	-0.47165772705078124	-0.07541735229492187	2.38037109375	-4.589080810546875	-1.73187255859375	
205	0.8200000000000001	0.0	0.0	0.0	0.0	0.006	0.003	0.006	0.006	9.967660061645507	0.24779987182617186	-0.25917232971191406	3.875732421875	-3.90625	-1.19781494140625	9.6779616607666	-0.24600422058105467	0.04608838195800781	0.072479248046875	-4.940032958984375	-3.0364990234375	9.80006594543457	-0.17178396911621094	-0.11133037719726561	2.635955810546875	-4.08172607421875	-1.4801025390625	
206	0.8240000000000001	0.0	0.0	0.0	0.0	0.006	0.003	0.006	0.006	9.852139831542969	0.1562216583251953	-0.086191259765625	3.063201904296875	-4.116058349609375	-0.934600830078125	9.7162688873291	-0.36272155151367186	0.17956512451171874	0.293731689453125	-5.191802978515625	-2.620697021484375	9.92217023010254	-0.25917232971191406	-0.2615665313720703	2.887725830078125	-4.64630126953125	-1.4190673828125	
207	0.8280000000000001	0.0	0.0	0.0	0.0	0.006	0.003	0.003	0.006	10.069413632202147	0.07781155395507812	-0.2765302917480469	3.818511962890625	-3.978729248046875	-1.201629638671875	9.900023864746093	-0.39983167724609375	-0.10295067138671875	0.370025634765625	-5.16510009765625	-3.124237060546875	10.097545501708984	-0.3507505432128906	-0.29269115295410153	2.658843994140625	-4.383087158203125	-1.407623291015625	
208	0.8320000000000001	0.0	0.0	0.0	0.0	0.006	0.003	0.006	0.003	9.962871658325195	0.16819266662597654	-0.2807201446533203	3.6468505859375	-4.131317138671875	-1.03759765625	9.817423907470703	-0.4752490295410156	0.07900865478515624	0.6256103515625	-5.123138427734375	-3.0517578125	10.104129556274414	-0.4052186309814453	-0.3651157531738281	2.758026123046875	-4.2877197265625	-1.110076904296875	
209	0.836	0.0	0.0	0.0	0.0	0.006	0.003	0.003	0.003	9.952696301269532	0.2765302917480469	-0.15382745666503905	4.314422607421875	-4.245758056640625	-1.010894775390625	9.848548529052733	-0.09337386474609374	0.0652419952392578	0.461578369140625	-5.11932373046875	-3.147125244140625	10.128071572875976	-0.10295067138671875	-0.469263525390625	2.773284912109375	-4.520416259765625	-1.476287841796875	
210	0.84	0.0	0.0	0.0	0.0	0.003	0.003	0.003	0.003	9.746794958496093	0.3393780853271484	0.32022447204589843	3.96728515625	-3.9825439453125	-1.39617919921875	9.877877499389648	-0.5207388610839844	0.07362170104980469	0.26702880859375	-5.1727294921875	-2.696990966796875	10.139444030761718	-0.4537012145996093	-0.28969840087890625	2.83050537109375	-4.67681884765625	-1.190185546875	
211	0.844	0.0	0.0	0.0	0.0	0.003	0.003	0.003	0.006	10.015544094848632	0.11432312927246092	-0.20470424194335937	4.29534912109375	-4.093170166015625	-1.434326171875	10.014945544433592	-0.2507926239013672	-0.014963760375976562	0.457763671875	-4.779815673828125	-3.200531005859375	10.430339532470702	-0.26874913635253905	-0.6051344696044921	3.124237060546875	-4.486083984375	-1.445770263671875	
212	0.848	0.0	0.0	0.0	0.0	0.003	0.003	0.006	0.006	9.628281976318359	0.4513070129394531	0.4656722229003906	4.123687744140625	-4.08172607421875	-1.644134521484375	9.649829791259766	-0.25737667846679685	0.4860229370117187	0.385284423828125	-4.924774169921875	-3.2501220703125	9.885658654785155	-0.31663316955566406	-0.1406593475341797	2.7313232421875	-4.657745361328125	-1.430511474609375	
213	0.852	0.0	0.0	0.0	0.0	0.003	0.003	0.003	0.006	9.930549935913085	0.24959552307128904	-0.023343466186523436	2.796173095703125	-3.314971923828125	-1.163482666015625	9.938331091308592	-0.20530279235839843	0.06643909606933593	0.396728515625	-4.886627197265625	-2.9296875	10.27890627746582	-0.16460136413574217	-0.5476736297607422	2.8533935546875	-4.49371337890625	-1.434326171875	
214	0.856	0.0	0.0	0.0	0.0	0.006	0.003	0.003	0.003	9.792284790039062	0.3136404174804687	0.3064578125	4.302978515625	-3.8604736328125	-1.499176025390625	9.891644158935547	-0.3764882110595703	0.35015199279785153	0.041961669921875	-5.092620849609375	-3.215789794921875	10.254365710449218	-0.42018239135742186	-0.17238251953125	2.956390380859375	-4.665374755859375	-1.300811767578125	
215	0.86	0.0	0.0	0.0	0.0	0.003	0.003	0.003	0.003	9.833584768676758	0.3028665100097656	0.11133037719726561	2.429962158203125	-3.0364990234375	-1.434326171875	9.85692823486328	-0.24061726684570311	0.15322890625	-0.095367431640625	-4.665374755859375	-3.39508056640625	10.22204398803711	-0.1484405029296875	-0.5351040710449219	2.811431884765625	-4.24957275390625	-1.735687255859375	
216	0.864	0.0	0.0	0.0	0.0	0.003	0.006	0.006	0.006	9.642647186279296	0.4644751220703125	0.3746925598144531	4.009246826171875	-3.711700439453125	-1.30462646484375	9.648632690429688	-0.3441664886474609	0.4908113403320312	0.225067138671875	-5.046844482421875	-3.021240234375	9.928754284667969	-0.09038111267089843	-0.03950432739257812	2.84576416015625	-4.6539306640625	-1.03759765625	
217	0.868	0.0	0.0	0.0	0.0	0.006	0.003	0.006	0.006	9.932345587158203	0.15442600708007811	-0.11611878051757812	2.239227294921875	-3.63922119140625	-1.125335693359375	9.991003527832031	-0.1975216369628906	0.0017956512451171875	0.240325927734375	-4.89044189453125	-3.307342529296875	10.066420880126952	-0.48662148742675776	-0.31064766540527344	3.11279296875	-4.825592041015625	-1.76239013671875	
218	0.872	0.0	0.0	0.0	0.0	0.003	0.006	0.003	0.006	9.989806427001952	0.10414777221679687	-0.16340426330566404	2.8076171875	-3.72314453125	-1.30462646484375	9.734225399780273	-0.39743747558593745	0.38367081604003905	0.064849853515625	-5.130767822265625	-3.51715087890625	10.105326657104492	-0.17657237243652343	-0.14006079711914063	3.101348876953125	-4.779815673828125	-1.262664794921875	
219	0.876	0.0	0.0	0.0	0.0	0.006	0.003	0.003	0.003	9.804854348754882	0.2609679809570312	0.03232172241210937	2.46429443359375	-3.505706787109375	-1.117706298828125	9.792284790039062	-0.05027823486328125	0.06404489440917968	0.423431396484375	-4.8065185546875	-3.284454345703125	9.852738381958007	-0.3489548919677734	-0.21428104858398436	2.971649169921875	-4.581451416015625	-1.54876708984375	
220	0.88	0.0	0.0	0.0	0.0	0.006	0.003	0.003	0.006	9.904812268066406	0.16160861206054686	-0.020350714111328123	2.67791748046875	-3.56292724609375	-1.018524169921875	9.698910925292969	-0.36092590026855464	0.37229835815429685	0.244140625	-5.3558349609375	-3.143310546875	9.789890588378906	-0.06763619689941405	0.10175357055664062	2.74658203125	-4.886627197265625	-1.739501953125	
221	0.884	0.0	0.0	0.0	0.0	0.003	0.003	0.003	0.003	9.849147079467773	0.2166752502441406	0.08798691101074219	2.452850341796875	-3.093719482421875	-1.48773193359375	10.025719451904296	-0.11791443176269531	-0.1083376251220703	0.125885009765625	-4.199981689453125	-3.620147705078125	10.154407791137695	-0.5494692810058593	-0.36691140441894526	3.0975341796875	-4.81414794921875	-1.583099365234375	
222	0.888	0.0	0.0	0.0	0.0	0.003	0.003	0.003	0.006	9.83238766784668	0.16699556579589842	0.044891281127929686	2.471923828125	-3.23486328125	-1.16729736328125	9.593566052246093	-0.29089550170898437	0.3872621185302734	0.06103515625	-4.970550537109375	-3.368377685546875	9.648632690429688	-0.061650692749023434	0.09756371765136718	2.574920654296875	-4.5318603515625	-1.8157958984375	
223	0.892	0.0	0.0	0.0	0.0	0.003	0.003	0.006	0.006	9.904812268066406	0.0796072052001953	-0.1801636749267578	3.330230712890625	-4.108428955078125	-0.95367431640625	9.668983404541015	-0.21727380065917967	0.09576806640624999	-0.034332275390625	-5.0506591796875	-3.124237060546875	9.9981861328125	-0.354940396118164	-0.3298012786865234	2.60162353515625	-4.72259521484375	-1.39617919921875	
224	0.896	0.0	0.0	0.0	0.0	0.006	0.003	0.003	0.003	9.926360083007811	-0.10714052429199218	-0.05027823486328125	1.636505126953125	-3.10516357421875	-0.9613037109375	9.784503634643555	-0.39264907226562495	0.28012159423828126	0.152587890625	-5.405426025390625	-3.604888916015625	9.811438403320311	-0.32501287536621093	0.1227028350830078	2.47955322265625	-4.3792724609375	-1.77764892578125	
225	0.9	0.0	0.0	0.0	0.0	0.003	0.003	0.003	0.006	9.886257205200195	-0.027533319091796873	-0.19093758239746092	2.834320068359375	-3.620147705078125	-0.885009765625	9.69771382446289	-0.30885201416015623	0.05626373901367187	-0.05340576171875	-4.962921142578125	-3.337860107421875	9.773131176757811	-0.23044190979003906	-0.07601590270996093	2.20489501953125	-4.425048828125	-1.453399658203125	
226	0.904	0.0	0.0	0.0	0.0	0.006	4.6080000000000005	4.662	4.617	9.808445651245117	0.05626373901367187	0.09157821350097656	3.643035888671875	-3.818511962890625	-0.84686279296875	9.492411032104492	-0.2711433380126953	0.3585316986083984	-0.156402587890625	-4.92095947265625	-3.37982177734375	9.562441430664062	-0.11552023010253906	0.16819266662597654	2.655029296875	-4.57000732421875	-1.735687255859375	
227	0.908	0.0	0.0	0.0	0.0	4.641	4.668	4.671	4.632	9.922768780517577	0.007781155395507812	-0.17776947326660156	2.986907958984375	-3.83758544921875	-0.774383544921875	9.815628256225585	-0.4339490509033203	-0.008379705810546874	-0.1068115234375	-5.039215087890625	-3.19671630859375	9.807847100830077	-0.2663549346923828	0.044292730712890624	2.4871826171875	-4.6539306640625	-1.384735107421875	
228	0.912	0.0	0.0	0.0	0.0	4.641	4.671	4.671	4.638	9.93952819213867	0.20350714111328125	-0.16460136413574217	3.513336181640625	-3.818511962890625	-1.255035400390625	9.611522564697266	-0.2867056488037109	0.34177228698730466	-0.141143798828125	-4.57763671875	-3.284454345703125	10.073603485107421	-0.41419688720703124	-0.364517202758789	2.826690673828125	-4.34112548828125	-1.781463623046875	
229	0.916	0.0	0.0	0.0	0.0	4.641	4.671	4.674	4.641	9.815029705810547	0.11432312927246092	-0.07242460021972656	3.01361083984375	-3.76129150390625	-1.0528564453125	9.70369932861328	-0.31064766540527344	0.1274912384033203	0.0762939453125	-5.069732666015625	-2.92205810546875	9.619303720092773	-0.04668693237304687	0.07841010437011718	2.521514892578125	-4.89044189453125	-1.40380859375	
230	0.92	0.0	0.0	0.0	0.0	4.638	4.671	4.671	4.641	9.855132583618163	0.16460136413574217	0.010773907470703125	3.04412841796875	-3.6163330078125	-0.804901123046875	9.582193594360351	-0.17357962036132812	0.39743747558593745	0.34332275390625	-5.3253173828125	-3.414154052734375	9.920374578857421	-0.3537432952880859	-0.25917232971191406	2.193450927734375	-4.39453125	-1.316070556640625	
231	0.924	0.0	0.0	0.0	0.0	4.641	4.668	4.665	4.641	9.97184991455078	0.13347674255371092	-0.0430956298828125	2.796173095703125	-3.6163330078125	-1.285552978515625	9.886855755615233	-0.517746109008789	0.033518823242187495	0.003814697265625	-5.096435546875	-3.31878662109375	10.254964260864257	-0.13646949462890623	-0.489015689086914	2.864837646484375	-4.67681884765625	-1.3275146484375	
232	0.928	0.0	0.0	0.0	0.0	4.641	4.674	4.674	4.623	9.83837317199707	0.2166752502441406	0.03651157531738281	2.99072265625	-3.498077392578125	-1.0528564453125	9.822810861206055	-0.1304839904785156	0.017357962036132813	0.23651123046875	-5.001068115234375	-3.253936767578125	9.81263550415039	-0.3238157745361328	-0.1927332336425781	2.38037109375	-4.2877197265625	-1.89208984375	
233	0.932	0.0	0.0	0.0	0.0	4.644	4.671	4.671	4.617	9.873687646484374	0.16759411621093748	0.06045359191894531	3.10516357421875	-3.8299560546875	-1.04522705078125	9.658209497070311	-0.36571430358886714	0.2902969512939453	-0.461578369140625	-4.93621826171875	-3.063201904296875	9.951499200439452	0.012569558715820313	-0.2867056488037109	2.696990966796875	-4.61578369140625	-1.285552978515625	
234	0.936	0.0	0.0	0.0	0.0	4.644	4.668	0.003	0.003	9.957484704589843	0.0	-0.07242460021972656	2.73895263671875	-3.4942626953125	-0.9307861328125	9.956287603759765	-0.3238157745361328	-0.08918401184082031	-0.041961669921875	-4.81414794921875	-3.116607666015625	9.997587582397461	-0.48722003784179685	-0.20709844360351562	2.95257568359375	-4.28009033203125	-0.904083251953125	
235	0.9400000000000001	0.0	0.0	0.0	0.0	0.0	0.003	0.006	0.003	9.91438907470703	0.08559270935058594	0.029328970336914062	2.628326416015625	-3.658294677734375	-0.86212158203125	9.846752877807617	-0.2597708801269531	0.18315642700195311	0.209808349609375	-4.9591064453125	-3.032684326171875	10.04247886352539	-0.17238251953125	-0.3124433166503906	2.529144287109375	-4.5013427734375	-1.399993896484375	
236	0.9440000000000001	0.0	0.0	0.0	0.0	0.003	0.003	0.003	0.006	9.977236868286132	0.4171896392822265	-0.27892449340820313	3.627777099609375	-4.100799560546875	-1.2359619140625	9.76894132385254	-0.24121581726074218	0.07900865478515624	0.03814697265625	-4.917144775390625	-3.025054931640625	10.17715270690918	-0.17058686828613281	-0.6512228515624999	2.7313232421875	-4.41741943359375	-1.171112060546875	
237	0.9480000000000001	0.0	0.0	0.0	0.0	0.003	0.003	0.003	0.003	9.903016616821288	0.06943184814453125	0.055066638183593745	2.899169921875	-3.948211669921875	-0.86212158203125	9.893439810180663	-0.22505495605468748	0.14245499877929688	0.3204345703125	-5.5694580078125	-2.8533935546875	10.091559997558592	-0.2519897247314453	-0.2615665313720703	2.5482177734375	-4.47845458984375	-1.28173828125	
238	0.9520000000000001	0.0	0.0	0.0	0.0	0.003	0.003	0.003	0.006	9.950302099609374	0.21308394775390624	-0.12389993591308593	3.53240966796875	-3.7689208984375	-1.25885009765625	9.893439810180663	-0.3908534210205078	-0.022744915771484374	0.518798828125	-5.161285400390625	-3.490447998046875	10.378864196777343	-0.32920272827148434	-0.6554127044677734	2.9296875	-4.360198974609375	-1.209259033203125	
239	0.9560000000000001	0.0	0.0	0.0	0.0	0.006	0.003	0.003	0.006	9.779116680908203	0.24301146850585936	0.25318682556152344	3.936767578125	-3.955841064453125	-1.67083740234375	9.725247143554688	-0.18614917907714842	0.354940396118164	0.2899169921875	-5.30242919921875	-2.910614013671875	10.038887561035155	-0.229843359375	-0.17956512451171874	2.9144287109375	-5.039215087890625	-1.70135498046875	
240	0.96	0.0	0.0	0.0	0.0	0.006	0.006	0.003	0.003	9.9078050201416	0.3232172241210937	-0.07242460021972656	3.200531005859375	-3.711700439453125	-1.194000244140625	9.929352835083007	-0.3028665100097656	0.012569558715820313	0.621795654296875	-5.039215087890625	-3.4637451171875	10.27830772705078	-0.2154781494140625	-0.5542576843261718	2.81524658203125	-4.421234130859375	-1.251220703125	
241	0.964	0.0	0.0	0.0	0.0	0.006	0.003	0.003	0.003	9.791087689208984	0.3429693878173828	0.1657984649658203	3.5858154296875	-4.024505615234375	-1.422882080078125	9.90122096557617	-0.3633201019287109	0.21607669982910155	0.22125244140625	-4.9591064453125	-3.204345703125	10.25316860961914	-0.38307226562499996	-0.2609679809570312	3.13568115234375	-4.7760009765625	-1.739501953125	
242	0.968	0.0	0.0	0.0	0.0	0.0	0.003	0.003	0.003	9.828796365356444	0.26755203552246093	0.12808978881835936	3.055572509765625	-3.582000732421875	-1.567840576171875	9.917980377197265	-0.2663549346923828	0.011372457885742187	0.58746337890625	-5.16510009765625	-3.387451171875	10.044274514770507	-0.26755203552246093	-0.36212300109863277	2.83050537109375	-4.53948974609375	-1.499176025390625	
243	0.972	0.0	0.0	0.0	0.0	0.006	0.003	0.003	0.006	9.695918173217773	0.28012159423828126	0.3082534637451172	3.04412841796875	-3.7384033203125	-1.4190673828125	9.710881933593749	-0.16160861206054686	0.30466216125488277	0.23651123046875	-5.0506591796875	-3.387451171875	10.041880313110351	-0.2861070983886719	-0.12090718383789062	2.948760986328125	-4.940032958984375	-1.2664794921875	
244	0.976	0.0	0.0	0.0	0.0	0.003	0.003	0.003	0.006	9.828796365356444	0.07601590270996093	0.012569558715820313	2.300262451171875	-3.391265869140625	-1.026153564453125	10.001777435302733	-0.33758243408203126	-0.013766659545898436	0.537872314453125	-5.107879638671875	-3.284454345703125	10.117896215820313	-0.3716998077392578	-0.4291606475830078	3.086090087890625	-4.749298095703125	-1.415252685546875	
245	0.98	0.0	0.0	0.0	0.0	0.006	0.003	0.003	0.003	9.728838446044922	0.20949264526367187	0.36631285400390623	2.956390380859375	-3.330230712890625	-1.392364501953125	9.773729727172851	-0.26216508178710934	0.30885201416015623	0.0762939453125	-4.89044189453125	-3.345489501953125	10.110713610839843	-0.36391865234375	-0.08738836059570312	2.532958984375	-4.436492919921875	-1.54876708984375	
246	0.984	0.0	0.0	0.0	0.0	0.003	0.003	0.003	0.003	9.810241302490233	0.12509703674316405	0.025737667846679687	2.14385986328125	-3.276824951171875	-0.9613037109375	9.64623848876953	-0.3860650177001953	0.2519897247314453	-0.06866455078125	-5.336761474609375	-3.604888916015625	9.885060104370117	-0.2825157958984375	-0.21068974609375	2.925872802734375	-4.642486572265625	-1.5411376953125	
247	0.988	0.0	0.0	0.0	0.0	0.009000000000000001	0.003	0.003	0.003	9.79946739501953	0.24301146850585936	0.23702596435546874	3.204345703125	-3.631591796875	-1.62506103515625	9.784503634643555	-0.25917232971191406	0.33099837951660155	0.141143798828125	-5.14984130859375	-3.265380859375	9.67856021118164	-0.24660277099609373	0.2442085693359375	2.38800048828125	-4.589080810546875	-1.491546630859375	
248	0.992	0.0	0.0	0.0	0.0	0.009000000000000001	0.003	0.006	0.0	9.906607919311522	-0.12030863342285156	-0.17597382202148437	1.811981201171875	-3.24249267578125	-0.946044921875	9.783306533813477	-0.5321113189697265	0.07422025146484375	-0.4730224609375	-4.817962646484375	-3.5400390625	10.01015714111328	-0.48123453369140623	-0.2561795776367187	3.139495849609375	-4.505157470703125	-1.636505126953125	
249	0.996	0.0	0.0	0.0	0.0	0.009000000000000001	0.003	0.003	0.006	9.873687646484374	-0.014963760375976562	-0.15382745666503905	2.7618408203125	-3.6773681640625	-0.5340576171875	9.6013472076416	-0.2998737579345703	0.2657563842773437	-0.041961669921875	-5.115509033203125	-2.899169921875	9.664195001220703	-0.14604630126953125	0.16460136413574217	2.315521240234375	-4.528045654296875	-1.644134521484375	
250	1.0	0.0	0.0	0.0	0.0	0.006	0.003	0.003	0.003	9.865307940673828	0.09157821350097656	-0.13407529296874998	2.666473388671875	-3.772735595703125	-1.056671142578125	9.709086282348633	-0.36750995483398435	0.05805939025878906	-0.14495849609375	-5.458831787109375	-3.551483154296875	9.616310968017578	-0.5674257934570313	0.03890577697753906	2.346038818359375	-4.76837158203125	-1.560211181640625	
251	1.004	0.0	0.0	0.0	0.0	0.003	0.003	0.003	0.006	9.92217023010254	-0.25318682556152344	-0.16759411621093748	2.193450927734375	-3.612518310546875	-0.652313232421875	9.710881933593749	-0.5099649536132812	0.22266075439453123	0.072479248046875	-4.871368408203125	-2.780914306640625	9.771934075927733	-0.22206220397949217	0.20171148986816406	2.796173095703125	-4.772186279296875	-1.552581787109375	
252	1.008	0.0	0.0	0.0	0.0	0.006	0.003	0.003	0.003	9.930549935913085	-0.06823474731445311	-0.17896657409667968	3.50189208984375	-4.024505615234375	-1.010894775390625	9.70968483276367	-0.4836287353515625	0.08020575561523437	0.08392333984375	-5.035400390625	-3.322601318359375	9.740809454345703	-0.584185205078125	0.022146365356445312	2.346038818359375	-4.566192626953125	-1.861572265625	
253	1.012	0.0	0.0	0.0	0.0	0.003	0.006	0.003	0.006	9.740809454345703	0.06105214233398437	0.143652099609375	2.70843505859375	-3.85284423828125	-0.9002685546875	9.561244329833984	-0.45010991210937495	0.38247371520996093	0.133514404296875	-5.18035888671875	-3.093719482421875	9.829993466186522	-0.16998831787109375	-0.07122749938964844	2.32696533203125	-4.180908203125	-1.80816650390625	
254	1.016	0.0	0.0	0.0	0.0	0.003	0.003	0.003	0.006	9.945513696289062	-0.037708676147460936	-0.06883329772949218	2.98309326171875	-3.757476806640625	-0.96893310546875	9.719261639404296	-0.42317514343261714	0.09756371765136718	0.431060791015625	-5.283355712890625	-3.307342529296875	9.782707983398437	-0.5392939239501953	0.009576806640625	2.38037109375	-4.840850830078125	-1.674652099609375	
255	1.02	0.0	0.0	0.0	0.0	0.006	0.003	0.003	0.003	9.822212310791015	-0.06823474731445311	0.04967968444824218	2.49481201171875	-3.589630126953125	-0.911712646484375	9.85632968444824	-0.40222587890625	0.051475335693359374	0.041961669921875	-4.772186279296875	-2.9754638671875	9.943119494628906	-0.3477577911376953	-0.13168109130859373	2.7618408203125	-4.180908203125	-1.89971923828125	
256	1.024	0.0	0.0	0.0	0.0	0.009000000000000001	0.003	0.003	0.006	9.906009368896484	-0.09337386474609374	-0.07841010437011718	2.803802490234375	-3.631591796875	-1.094818115234375	9.688735568237304	-0.40282442932128903	0.022744915771484374	0.030517578125	-5.390167236328125	-3.238677978515625	9.524134204101562	-0.34715924072265625	-0.25258827514648435	2.6702880859375	-4.642486572265625	-1.285552978515625	
257	1.028	0.0	0.0	0.0	0.0	0.003	0.003	0.003	0.006	10.02332525024414	0.23104046020507812	-0.2507926239013672	4.436492919921875	-4.199981689453125	-1.10626220703125	9.76235726928711	-0.34057518615722654	0.11791443176269531	0.087738037109375	-4.665374755859375	-3.047943115234375	9.860519537353515	-0.36212300109863277	-0.1322796417236328	2.63214111328125	-4.207611083984375	-1.705169677734375	
258	1.032	0.0	0.0	0.0	0.0	0.006	0.003	0.003	0.006	9.968857162475585	-0.10714052429199218	-0.19093758239746092	2.69317626953125	-3.7078857421875	-0.78582763671875	9.782707983398437	-0.4525041137695312	-0.1149216796875	0.675201416015625	-5.168914794921875	-3.082275390625	10.085574493408203	-0.25737667846679685	-0.2376245147705078	2.696990966796875	-4.45556640625	-1.24359130859375	
259	1.036	0.0	0.0	0.0	0.0	0.006	0.003	0.003	0.006	9.997587582397461	0.21248539733886718	-0.23822306518554687	3.84521484375	-3.9520263671875	-1.079559326171875	9.759364517211914	-0.33099837951660155	0.05686228942871093	0.392913818359375	-4.871368408203125	-3.05938720703125	9.865307940673828	-0.3184288208007812	-0.1897404815673828	2.376556396484375	-4.024505615234375	-1.80816650390625	
260	1.04	0.0	0.0	0.0	0.0	0.003	0.006	0.003	1.1340000000000001	9.916783276367187	0.09217676391601562	-0.11851298217773437	2.655029296875	-4.001617431640625	-0.6103515625	9.78629928588867	-0.3076549133300781	0.2184709014892578	0.301361083984375	-5.21087646484375	-3.116607666015625	9.955689053344726	-0.07601590270996093	-0.20829554443359374	2.7618408203125	-4.5013427734375	-1.026153564453125	
261	1.044	0.0	0.0	0.0	0.0	4.59	4.665	4.668	4.623	9.961076007080077	0.21787235107421873	-0.1801636749267578	3.963470458984375	-3.90625	-1.3580322265625	9.83777462158203	-0.35194764404296874	-0.025737667846679687	0.41961669921875	-4.703521728515625	-3.063201904296875	10.329184512329102	-0.4608838195800781	-0.5781997009277343	2.651214599609375	-4.2724609375	-1.560211181640625	
262	1.048	0.0	0.0	0.0	0.0	4.647	4.668	4.668	4.6290000000000004	9.753977563476562	0.5374982727050781	0.14006079711914063	4.505157470703125	-4.161834716796875	-1.64031982421875	9.834781869506836	-0.3232172241210937	0.14185644836425781	0.2899169921875	-5.07354736328125	-2.87628173828125	10.114304913330077	0.013766659545898436	-0.354940396118164	2.727508544921875	-4.474639892578125	-1.0223388671875	
263	1.052	0.0	0.0	0.0	0.0	4.641	4.671	4.674	4.635	9.90241806640625	0.4369418029785156	-0.09816226806640624	4.2724609375	-3.955841064453125	-1.201629638671875	9.91438907470703	-0.14425065002441406	-0.06643909606933593	0.579833984375	-4.901885986328125	-3.0059814453125	10.206481677246094	-0.3890577697753906	-0.5662286926269531	2.765655517578125	-4.31060791015625	-1.40380859375	
264	1.056	0.0	0.0	0.0	0.0	4.644	4.674	4.674	4.641	9.770736975097655	0.5063736511230469	0.06464344482421874	3.936767578125	-3.986358642578125	-1.384735107421875	9.833584768676758	-0.24600422058105467	0.1849520782470703	0.030517578125	-5.359649658203125	-2.9754638671875	10.052055670166014	-0.06344634399414062	-0.19931728820800781	2.99072265625	-4.8370361328125	-1.50299072265625	
265	1.06	0.0	0.0	0.0	0.0	4.6290000000000004	4.671	4.671	4.644	9.983820922851562	0.364517202758789	-0.20829554443359374	3.032684326171875	-3.696441650390625	-1.434326171875	10.01075569152832	-0.29269115295410153	-0.14963760375976562	0.1983642578125	-4.791259765625	-3.040313720703125	10.340556970214843	-0.43574470214843747	-0.7015010864257812	2.9296875	-4.680633544921875	-1.3885498046875	
266	1.064	0.0	0.0	0.0	0.0	4.644	4.671	4.674	4.635	9.782109432983399	0.5003881469726562	0.06284779357910156	3.9825439453125	-4.093170166015625	-1.476287841796875	9.77492682800293	-0.06045359191894531	0.12030863342285156	0.29754638671875	-5.290985107421875	-3.086090087890625	10.050260018920898	-0.04908113403320312	-0.22744915771484372	2.92205810546875	-4.550933837890625	-1.6021728515625	
267	1.068	0.0	0.0	0.0	0.0	4.638	4.671	4.674	4.623	9.89523546142578	0.3315969299316406	-0.08918401184082031	2.90679931640625	-3.665924072265625	-1.39617919921875	9.937133990478515	-0.21727380065917967	-0.040701428222656245	0.293731689453125	-4.913330078125	-3.13568115234375	9.97184991455078	-0.18734627990722655	-0.2549824768066406	2.84576416015625	-4.67681884765625	-1.10626220703125	
268	1.072	0.0	0.0	0.0	0.0	4.647	4.671	4.671	0.006	9.841365924072266	0.47884033203125	-0.016160861206054686	3.765106201171875	-3.94439697265625	-1.415252685546875	9.861118087768554	-0.09816226806640624	0.09516951599121093	0.335693359375	-5.321502685546875	-3.387451171875	10.15680199279785	-0.1580173095703125	-0.2651578338623047	3.021240234375	-4.791259765625	-1.6326904296875	
269	1.076	0.0	0.0	0.0	0.0	0.009000000000000001	0.006	0.003	0.006	9.828796365356444	0.32441432495117184	0.0047884033203125	2.66265869140625	-3.658294677734375	-1.312255859375	9.859322436523437	-0.28730419921875	0.001197100830078125	0.14495849609375	-5.039215087890625	-3.51715087890625	10.1131078125	-0.14544775085449219	-0.3758896606445312	2.895355224609375	-4.627227783203125	-1.22833251953125	
270	1.08	0.0	0.0	0.0	0.0	0.003	0.003	0.003	0.003	9.767145672607422	0.17178396911621094	0.19692308654785154	2.4871826171875	-3.54766845703125	-1.09100341796875	9.778518130493163	-0.04189852905273437	0.14544775085449219	0.087738037109375	-5.07354736328125	-2.956390380859375	10.06881508178711	-0.10714052429199218	-0.23044190979003906	2.5482177734375	-4.53948974609375	-1.373291015625	
271	1.084	0.0	0.0	0.0	0.0	0.003	0.003	0.006	0.003	9.814431155395507	0.4112041351318359	0.08140285644531249	2.857208251953125	-3.5247802734375	-1.57928466796875	9.836577520751952	-0.32142157287597656	0.12509703674316405	0.141143798828125	-5.367279052734375	-3.231048583984375	10.120888967895507	-0.15382745666503905	-0.42018239135742186	2.99835205078125	-4.878997802734375	-1.392364501953125	
272	1.088	0.0	0.0	0.0	0.0	0.003	0.003	0.006	0.003	9.859322436523437	0.047884033203124995	0.03232172241210937	2.063751220703125	-3.35693359375	-1.220703125	9.74859060974121	-0.21188684692382811	0.23223756103515625	-0.148773193359375	-4.95147705078125	-3.543853759765625	9.704297879028319	-0.37828386230468747	0.2645592834472656	2.498626708984375	-4.58526611328125	-1.819610595703125	
273	1.092	0.0	0.0	0.0	0.0	0.003	0.003	0.003	0.006	9.770138424682617	0.4207809417724609	0.1879448303222656	2.811431884765625	-3.631591796875	-1.316070556640625	9.79348189086914	-0.32561142578124996	0.16280571289062498	0.057220458984375	-5.2642822265625	-3.543853759765625	10.007164389038085	-0.09038111267089843	-0.3764882110595703	2.811431884765625	-4.7760009765625	-1.552581787109375	
274	1.096	0.0	0.0	0.0	0.0	0.003	0.003	0.003	0.003	9.83777462158203	-0.058657940673828124	0.03651157531738281	1.861572265625	-3.322601318359375	-0.850677490234375	9.725247143554688	-0.15203180541992187	0.22864625854492185	-0.080108642578125	-4.98199462890625	-3.44085693359375	9.6396544342041	-0.3321954803466797	0.3142389678955078	2.7008056640625	-4.550933837890625	-1.7547607421875	
275	1.1	0.0	0.0	0.0	0.0	0.006	0.003	0.003	0.003	9.935936889648437	0.05805939025878906	-0.2316390106201172	2.96783447265625	-3.875732421875	-0.7171630859375	9.728239895629882	-0.4752490295410156	0.0987608184814453	-0.118255615234375	-4.978179931640625	-3.18145751953125	9.731831198120117	-0.2867056488037109	0.11372457885742186	2.35748291015625	-4.4097900390625	-1.93023681640625	
276	1.104	0.0	0.0	0.0	0.0	0.006	0.003	0.003	0.006	9.779116680908203	-0.04249707946777344	0.09935936889648436	1.705169677734375	-2.964019775390625	-1.01470947265625	9.679757312011718	-0.15203180541992187	0.2747346405029297	-0.05340576171875	-4.878997802734375	-3.448486328125	9.644442837524414	-0.3058592620849609	0.3172317199707031	2.52532958984375	-4.50897216796875	-1.659393310546875	
277	1.108	0.0	0.0	0.0	0.0	0.006	0.006	0.003	0.003	9.835978970336914	0.10654197387695312	-0.15861585998535155	2.99835205078125	-3.76129150390625	-0.820159912109375	9.610325463867188	-0.4908113403320312	0.11432312927246092	0.02288818359375	-5.43975830078125	-3.055572509765625	9.635464581298828	-0.2932897033691406	0.1352723937988281	2.105712890625	-4.791259765625	-1.983642578125	
278	1.112	0.0	0.0	0.0	0.0	0.003	0.003	0.003	0.0	9.80066449584961	-0.05327098693847656	0.09337386474609374	3.673553466796875	-4.146575927734375	-0.74005126953125	9.803657247924804	-0.27952304382324217	-0.017956512451171875	0.09918212890625	-4.852294921875	-3.047943115234375	9.947907897949218	-0.12090718383789062	-0.15203180541992187	2.513885498046875	-4.40216064453125	-1.377105712890625	
279	1.116	0.0	0.0	0.0	0.0	0.003	0.003	0.006	0.003	9.90241806640625	0.0526724365234375	-0.2292448089599609	2.9449462890625	-3.818511962890625	-0.81634521484375	9.667786303710937	-0.48243163452148435	0.020350714111328123	0.00762939453125	-5.2032470703125	-3.299713134765625	9.720458740234374	-0.46028526916503903	0.012569558715820313	2.43377685546875	-4.70733642578125	-2.086639404296875	
280	1.12	0.0	0.0	0.0	0.0	0.003	0.003	0.006	0.003	10.085574493408203	0.09217676391601562	-0.4010287780761719	3.582000732421875	-4.29534912109375	-0.8697509765625	9.735422500610351	-0.3274070770263672	0.08499415893554688	-0.06866455078125	-4.8065185546875	-2.948760986328125	9.8311905670166	-0.08020575561523437	-0.04129997863769531	2.593994140625	-4.398345947265625	-1.53350830078125	
281	1.124	0.0	0.0	0.0	0.0	0.003	0.006	0.003	0.006	10.011952792358398	-0.001197100830078125	-0.35314474487304687	2.84576416015625	-3.849029541015625	-0.81634521484375	9.68454571533203	-0.4513070129394531	0.02154781494140625	0.209808349609375	-5.336761474609375	-2.918243408203125	9.689334118652344	-0.536899722290039	0.04369418029785156	2.674102783203125	-4.673004150390625	-1.77764892578125	
282	1.1280000000000001	0.0	0.0	0.0	0.0	0.003	0.003	0.003	0.003	10.071209283447265	-0.08798691101074219	-0.2867056488037109	3.5400390625	-3.89862060546875	-0.804901123046875	9.782109432983399	-0.3298012786865234	0.05686228942871093	0.240325927734375	-4.5318603515625	-3.185272216796875	9.925162982177733	-0.12449848632812499	-0.054468087768554684	2.66265869140625	-4.138946533203125	-1.438140869140625	
283	1.1320000000000001	0.0	0.0	0.0	0.0	0.006	0.006	0.003	0.006	9.747393508911133	0.3130418670654297	0.3872621185302734	4.37164306640625	-4.14276123046875	-1.415252685546875	9.750386260986328	-0.536899722290039	0.25917232971191406	0.2593994140625	-5.138397216796875	-2.948760986328125	10.070012182617187	-0.4686649749755859	-0.30526071166992186	3.021240234375	-4.680633544921875	-1.262664794921875	
284	1.1360000000000001	0.0	0.0	0.0	0.0	0.006	0.003	0.003	0.006	9.94072529296875	0.07481880187988281	-0.031124621582031248	3.80706787109375	-4.0435791015625	-1.079559326171875	9.750386260986328	-0.3938461730957031	0.08499415893554688	-0.110626220703125	-4.7454833984375	-2.9754638671875	9.911994873046874	-0.10175357055664062	-0.1370680450439453	2.83050537109375	-4.39453125	-1.567840576171875	
285	1.1400000000000001	0.0	0.0	0.0	0.0	0.003	0.003	0.003	0.003	9.789292037963866	0.2885013000488281	0.30885201416015623	4.1656494140625	-4.11224365234375	-1.300811767578125	9.849147079467773	-0.47285482788085936	0.16460136413574217	0.164031982421875	-5.2490234375	-3.093719482421875	10.128670123291014	-0.5183446594238281	-0.3651157531738281	3.02886962890625	-4.8370361328125	-1.071929931640625	
286	1.1440000000000001	0.0	0.0	0.0	0.0	0.0	0.003	0.003	0.003	9.891045608520507	0.08499415893554688	0.04967968444824218	4.009246826171875	-4.119873046875	-1.3275146484375	9.912593423461914	-0.25737667846679685	0.06284779357910156	0.19073486328125	-4.84466552734375	-3.009796142578125	10.279504827880858	-0.34715924072265625	-0.5548562347412109	2.941131591796875	-4.573822021484375	-1.74713134765625	
287	1.1480000000000001	0.0	0.0	0.0	0.0	0.003	0.003	0.003	0.006	9.777919580078125	0.201112939453125	0.2280477081298828	3.452301025390625	-3.6468505859375	-1.007080078125	9.82460651245117	-0.37289690856933594	0.06883329772949218	0.431060791015625	-5.077362060546875	-3.02886962890625	10.019733947753906	-0.34715924072265625	-0.31483751831054685	2.735137939453125	-4.650115966796875	-1.16729736328125	
288	1.1520000000000001	0.0	0.0	0.0	0.0	0.006	0.003	0.003	0.006	10.006565838623047	0.11552023010253906	-0.2597708801269531	2.864837646484375	-3.6468505859375	-1.30462646484375	9.931747036743163	-0.35673604736328124	-0.044292730712890624	0.209808349609375	-4.894256591796875	-3.01361083984375	10.25975266418457	-0.40282442932128903	-0.5045779998779296	2.819061279296875	-4.352569580078125	-1.667022705078125	
289	1.156	0.0	0.0	0.0	0.0	0.003	0.003	0.003	0.006	9.829993466186522	0.1927332336425781	0.21009119567871093	3.658294677734375	-4.001617431640625	-1.033782958984375	9.76774422302246	-0.3327940307617187	0.3794809631347656	0.18310546875	-5.245208740234375	-3.326416015625	10.121487518310547	-0.25139117431640623	-0.16639701538085935	3.13568115234375	-4.642486572265625	-1.21307373046875	
290	1.16	0.0	0.0	0.0	0.0	0.003	0.003	0.003	0.006	9.894038360595703	0.20829554443359374	-0.07781155395507812	2.93731689453125	-3.71551513671875	-1.628875732421875	9.891644158935547	-0.30705636291503907	-0.02154781494140625	0.553131103515625	-5.084991455078125	-3.24249267578125	10.228029492187499	-0.3938461730957031	-0.4991910461425781	2.826690673828125	-4.45556640625	-1.636505126953125	
291	1.164	0.0	0.0	0.0	0.0	0.003	0.006	0.003	0.003	9.798270294189452	0.3705027069091797	0.296881005859375	3.2501220703125	-3.68499755859375	-1.28173828125	9.753379013061522	-0.2885013000488281	0.39743747558593745	0.095367431640625	-5.3558349609375	-3.1280517578125	10.059238275146484	-0.12030863342285156	-0.15861585998535155	3.078460693359375	-4.39453125	-1.262664794921875	
292	1.168	0.0	0.0	0.0	0.0	0.003	0.003	0.003	4.6290000000000004	9.871293444824218	0.26216508178710934	0.014963760375976562	3.0517578125	-3.543853759765625	-1.47247314453125	9.96586441040039	-0.36212300109863277	-0.07003039855957031	-0.0152587890625	-4.703521728515625	-3.35693359375	10.319607705688476	-0.4387374542236328	-0.5099649536132812	2.74658203125	-4.558563232421875	-1.483917236328125	
293	1.172	0.0	0.0	0.0	0.0	4.6290000000000004	4.668	4.668	4.644	9.861118087768554	0.19871873779296872	-0.0005985504150390625	2.628326416015625	-3.47137451171875	-1.232147216796875	9.752181912231444	-0.26815058593749996	0.32142157287597656	0.049591064453125	-5.222320556640625	-3.16619873046875	10.052055670166014	-0.19093758239746092	-0.11731588134765625	3.055572509765625	-4.46319580078125	-1.308441162109375	
294	1.176	0.0	0.0	0.0	0.0	4.644	4.671	4.674	4.632	9.89523546142578	0.3860650177001953	-0.08678981018066406	3.265380859375	-3.429412841796875	-1.537322998046875	9.911994873046874	-0.23702596435546874	-0.044891281127929686	0.28228759765625	-5.001068115234375	-3.4332275390625	9.962871658325195	-0.4213794921875	-0.2501940734863281	2.902984619140625	-4.8065185546875	-1.44195556640625	
295	1.18	0.0	0.0	0.0	0.0	4.644	4.671	4.674	4.623	9.874286196899414	0.01915361328125	0.017956512451171875	2.422332763671875	-3.505706787109375	-1.19781494140625	9.717465988159178	-0.354940396118164	0.28490999755859375	0.274658203125	-5.1116943359375	-3.39508056640625	10.079588989257813	-0.16460136413574217	-0.09636661682128905	2.956390380859375	-4.852294921875	-1.28936767578125	
296	1.184	0.0	0.0	0.0	0.0	4.644	4.671	4.671	4.623	9.860519537353515	0.07721300354003906	0.020949264526367185	3.0364990234375	-3.76129150390625	-1.190185546875	9.956287603759765	-0.26396073303222656	-0.06404489440917968	0.148773193359375	-5.039215087890625	-3.643035888671875	10.014945544433592	-0.4477157104492187	-0.20949264526367187	2.58636474609375	-4.3182373046875	-1.434326171875	
297	1.188	0.0	0.0	0.0	0.0	4.644	4.668	4.671	4.632	9.80665	0.1304839904785156	0.08020575561523437	3.131866455078125	-3.810882568359375	-1.369476318359375	9.640851535034178	-0.3238157745361328	0.31483751831054685	0.270843505859375	-5.0506591796875	-3.36456298828125	9.634866030883789	-0.27892449340820313	0.201112939453125	2.590179443359375	-4.486083984375	-1.8157958984375	
298	1.192	0.0	0.0	0.0	0.0	4.644	4.674	4.674	4.638	9.847351428222655	0.19632453613281248	0.047285482788085934	3.07464599609375	-3.570556640625	-0.885009765625	9.65940659790039	-0.36212300109863277	0.258573779296875	0.125885009765625	-4.81414794921875	-3.5552978515625	10.007164389038085	-0.39264907226562495	-0.20530279235839843	2.86865234375	-4.63104248046875	-1.1749267578125	
299	1.196	0.0	0.0	0.0	0.0	4.644	4.674	4.671	0.003	9.843760125732421	0.10893617553710937	0.022146365356445312	3.406524658203125	-4.0740966796875	-1.53350830078125	9.706093530273437	-0.24181436767578124	0.28969840087890625	0.392913818359375	-4.985809326171875	-3.36456298828125	9.71686743774414	-0.3459621398925781	0.27353753967285155	2.338409423828125	-4.634857177734375	-2.0904541015625	
300	1.2	0.0	0.0	0.0	0.0	0.003	0.003	0.003	0.003	9.79408044128418	0.15682020874023436	0.03232172241210937	2.89154052734375	-3.604888916015625	-0.965118408203125	9.639055883789062	-0.36092590026855464	0.181959326171875	-0.011444091796875	-5.157470703125	-3.192901611328125	9.719860189819336	-0.17118541870117188	0.051475335693359374	2.346038818359375	-4.390716552734375	-1.667022705078125	
301	1.204	0.0	0.0	0.0	0.0	0.003	0.003	0.003	0.003	9.76116016845703	-0.008978256225585938	0.09816226806640624	2.38800048828125	-3.6163330078125	-1.216888427734375	9.767145672607422	-0.16819266662597654	0.17836802368164062	-0.03814697265625	-4.932403564453125	-3.326416015625	9.692925421142577	-0.35015199279785153	0.14245499877929688	2.498626708984375	-4.60052490234375	-1.922607421875	
302	1.208	0.0	0.0	0.0	0.0	0.003	0.003	0.003	0.006	9.85752678527832	0.10594342346191406	-0.013766659545898436	3.673553466796875	-3.76129150390625	-1.270294189453125	9.708487731933593	-0.4531026641845703	0.16699556579589842	-0.1678466796875	-5.19561767578125	-3.101348876953125	9.785102185058593	-0.20290859069824219	-0.027533319091796873	2.414703369140625	-4.558563232421875	-1.644134521484375	
303	1.212	0.0	0.0	0.0	0.0	0.006	0.003	0.003	0.003	9.82580361328125	0.07541735229492187	0.04369418029785156	2.593994140625	-3.787994384765625	-0.9765625	9.623493572998047	-0.32501287536621093	0.2759317413330078	0.1220703125	-5.096435546875	-3.513336181640625	9.717465988159178	-0.3890577697753906	0.16160861206054686	2.5634765625	-4.344940185546875	-1.628875732421875	
304	1.216	0.0	0.0	0.0	0.0	0.006	0.003	0.003	0.003	9.859322436523437	0.055066638183593745	-0.06703764648437499	2.4566650390625	-3.60870361328125	-1.209259033203125	9.670779055786133	-0.4159925384521484	0.19033903198242186	-0.202178955078125	-4.932403564453125	-3.192901611328125	9.651625442504882	-0.18734627990722655	0.06883329772949218	2.28118896484375	-4.638671875	-1.9683837890625	
305	1.22	0.0	0.0	0.0	0.0	0.006	0.003	0.003	0.006	9.865307940673828	0.19812018737792966	0.006584054565429687	3.009796142578125	-3.597259521484375	-0.667572021484375	9.686939916992188	-0.25258827514648435	0.15861585998535155	-0.08392333984375	-5.0201416015625	-3.322601318359375	9.865906491088866	-0.2771288421630859	-0.11192892761230468	2.4871826171875	-4.119873046875	-1.415252685546875	
