	time	dac1	dac2	dac3	dac4	adc1.3	adc2.3	adc3.3	adc4.3	imu1accx	imu1accy	imu1accz	imu1gyrox	imu1gyroy	imu1gyroz	imu2accx	imu2accy	imu2accz	imu2gyrox	imu2gyroy	imu2gyroz	imu3accx	imu3accy	imu3accz	imu3gyrox	imu3gyroy	imu3gyroz	log
0	0.0	0.0	0.0	0.0	0.0	0.006	0.006	0.006	0.003	9.797671743774414	-0.5440823272705078	0.04668693237304687	3.47137451171875	-3.73077392578125	-0.885009765625	9.711480484008788	0.8092401611328125	0.20949264526367187	0.339508056640625	-5.321502685546875	-4.215240478515625	9.882067352294921	0.3226186737060547	-0.09756371765136718	2.719879150390625	-4.669189453125	-1.789093017578125	estabilizou em 6s, descida em 17s, parou em 28s. 1173 RPM
1	0.004	0.0	0.0	0.0	0.0	0.0	0.006	0.003	0.003	9.868899243164062	-0.5063736511230469	0.005985504150390624	3.787994384765625	-4.35638427734375	-0.579833984375	9.6917283203125	0.7451952667236328	0.16699556579589842	0.3509521484375	-5.565643310546875	-3.60107421875	9.820416659545899	0.1640028137207031	-0.04668693237304687	2.590179443359375	-4.444122314453125	-1.384735107421875	Started
2	0.008	0.0	0.0	0.0	0.0	0.003	0.003	0.003	0.003	9.792284790039062	-0.5578489868164063	0.031124621582031248	3.173828125	-3.665924072265625	-0.934600830078125	9.724050042724608	0.7972691528320313	0.19213468322753904	0.682830810546875	-5.31768798828125	-4.18853759765625	9.874286196899414	0.28730419921875	-0.10893617553710937	2.655029296875	-4.489898681640625	-1.842498779296875	IMU1|LSM6DS3|0x6A|I2C-1|±2g (±19,6m/s²)|±125º/s|400Hz
3	0.012	0.0	0.0	0.0	0.0	0.003	0.003	0.003	0.006	9.828197814941406	-0.6625953094482422	-0.029927520751953124	2.521514892578125	-3.63922119140625	-0.431060791015625	9.676166009521484	0.7637503295898437	0.15562310791015624	0.286102294921875	-5.084991455078125	-3.612518310546875	9.810241302490233	0.16699556579589842	-0.06284779357910156	2.44903564453125	-4.60052490234375	-1.422882080078125	IMU2|LSM6DS3|0x6B|I2C-1|±2g (±19,6m/s²)|±125º/s|400Hz
4	0.016	0.0	0.0	0.0	0.0	0.006	0.003	0.003	0.006	9.783306533813477	-0.5147533569335937	0.06344634399414062	3.269195556640625	-3.9825439453125	-0.850677490234375	9.759963067626952	0.6356605407714844	0.17178396911621094	-0.091552734375	-5.035400390625	-4.11224365234375	9.879074600219726	0.13168109130859373	-0.12629413757324218	2.5787353515625	-4.520416259765625	-1.9378662109375	IMU3|LSM6DS3|0x6B|I2C-2|±2g (±19,6m/s²)|±125º/s|400Hz
5	0.02	0.0	0.0	0.0	0.0	0.006	0.006	0.003	0.006	9.822212310791015	-0.6835445739746093	-0.0143652099609375	2.4261474609375	-3.536224365234375	-0.431060791015625	9.688137017822266	0.7463923675537109	0.16819266662597654	0.102996826171875	-5.527496337890625	-3.719329833984375	9.79946739501953	0.12449848632812499	-0.031124621582031248	2.460479736328125	-4.795074462890625	-1.392364501953125	ADC|ADS1015|0|0|1|0|±6,144 V|2400 SPS
6	0.024	0.0	0.0	0.0	0.0	0.006	0.003	0.003	0.003	9.795876092529296	-0.5722141967773438	0.013168109130859374	3.452301025390625	-3.68499755859375	-0.640869140625	9.779116680908203	0.6302735870361328	0.14784195251464843	-0.064849853515625	-5.06591796875	-4.299163818359375	9.886855755615233	0.10594342346191406	-0.08918401184082031	2.429962158203125	-4.482269287109375	-1.7852783203125	Gen1|Disabled
7	0.028	0.0	0.0	0.0	0.0	0.006	0.003	0.003	0.003	9.819219558715819	-0.6781576202392577	-0.027533319091796873	2.25830078125	-3.22723388671875	-0.35858154296875	9.674968908691406	0.776319888305664	0.2424129180908203	-0.2288818359375	-5.4779052734375	-3.47900390625	9.92217023010254	0.4100070343017578	-0.1466448516845703	2.658843994140625	-4.58526611328125	-1.1749267578125	Gen2|Enabled|Noise|0.0|10.0|1668
8	0.032	0.0	0.0	0.0	0.0	0.003	0.006	0.003	0.003	9.846154327392577	-0.7308300567626953	0.018555062866210937	3.017425537109375	-3.5400390625	-0.52642822265625	9.764751470947266	0.6416460449218749	0.181959326171875	-0.141143798828125	-5.1727294921875	-4.070281982421875	9.853336932373047	0.10654197387695312	-0.0909796630859375	2.437591552734375	-4.383087158203125	-1.888275146484375	Gen3|Enabled|Noise|0.0|10.0|128
9	0.036000000000000004	0.0	0.0	0.0	0.0	0.0	0.003	0.003	0.003	9.822212310791015	-0.7044938385009765	-0.02693476867675781	2.384185791015625	-3.574371337890625	-0.29754638671875	9.753977563476562	0.7715314849853515	0.24779987182617186	0.026702880859375	-5.615234375	-3.520965576171875	9.94072529296875	0.40402153015136716	-0.13766659545898435	2.67791748046875	-4.60052490234375	-1.247406005859375	Gen4|Enabled|Noise|0.0|10.0|128
10	0.04	0.0	0.0	0.0	0.0	0.003	0.003	0.003	0.009000000000000001	9.858125335693359	-0.6931213806152343	0.006584054565429687	3.208160400390625	-3.53240966796875	-0.751495361328125	9.753977563476562	0.6841431243896484	0.20231004028320312	0.286102294921875	-5.16510009765625	-4.009246826171875	10.174159954833984	-0.014963760375976562	-0.4590881683349609	2.8533935546875	-4.444122314453125	-1.59454345703125	Ctrl|Disabled
11	0.044	0.0	0.0	0.0	0.0	0.006	0.003	0.003	0.003	9.78031378173828	-0.3232172241210937	0.24361001892089842	3.391265869140625	-3.772735595703125	-0.232696533203125	9.750386260986328	0.8002619049072265	0.26755203552246093	0.1220703125	-5.397796630859375	-3.5400390625	9.922768780517577	0.42975919799804685	-0.12330138549804687	2.979278564453125	-4.627227783203125	-0.92315673828125	
12	0.048	0.0	0.0	0.0	0.0	0.003	0.003	0.003	0.003	9.86291373901367	-0.7176619476318359	0.0017956512451171875	3.1890869140625	-3.688812255859375	-0.67901611328125	9.90900212097168	0.34057518615722654	0.03172317199707031	0.263214111328125	-5.10406494140625	-3.7384033203125	10.191517916870117	-0.05566518859863281	-0.47884033203125	2.9449462890625	-4.47845458984375	-1.552581787109375	
13	0.052000000000000005	0.0	0.0	0.0	0.0	0.003	0.003	0.003	0.003	9.767145672607422	-0.28909985046386716	0.25139117431640623	3.448486328125	-3.894805908203125	-0.469207763671875	9.746794958496093	0.8307879760742187	0.2645592834472656	-0.339508056640625	-5.6304931640625	-3.59344482421875	9.93294413757324	0.4572925170898437	-0.13946224670410157	3.01361083984375	-4.5013427734375	-1.491546630859375	
14	0.056	0.0	0.0	0.0	0.0	0.003	0.003	0.006	0.006	9.841964474487304	-0.6853402252197265	0.00239420166015625	3.44085693359375	-3.780364990234375	-0.675201416015625	9.890447058105469	0.3890577697753906	0.030526071166992186	0.1678466796875	-5.25665283203125	-3.826141357421875	10.178948358154296	-0.02633621826171875	-0.49200844116210934	2.803802490234375	-4.383087158203125	-1.5716552734375	
15	0.06	0.0	0.0	0.0	0.0	0.003	0.003	0.003	0.003	9.765948571777344	-0.2705447875976562	0.2597708801269531	3.444671630859375	-3.73077392578125	-0.3814697265625	9.74200655517578	0.8559270935058593	0.2657563842773437	0.446319580078125	-5.283355712890625	-3.53240966796875	10.090961447143554	0.5428852264404297	-0.2555810272216797	2.948760986328125	-4.50897216796875	-1.438140869140625	
16	0.064	0.0	0.0	0.0	0.0	0.006	0.003	0.003	0.006	9.90840357055664	-0.7463923675537109	-0.047285482788085934	2.582550048828125	-3.4637451171875	-0.244140625	9.909600671386718	0.36212300109863277	0.0017956512451171875	0.354766845703125	-5.2032470703125	-3.849029541015625	10.223839639282225	-0.06464344482421874	-0.5351040710449219	3.01361083984375	-4.547119140625	-1.62506103515625	
17	0.068	0.0	0.0	0.0	0.0	0.006	0.003	0.003	0.003	9.770138424682617	-0.2651578338623047	0.2561795776367187	3.48663330078125	-3.662109375	-0.213623046875	9.73602105102539	0.8780734588623046	0.27293898925781246	0.492095947265625	-5.252838134765625	-3.83758544921875	10.103531005859374	0.5578489868164063	-0.24600422058105467	3.04412841796875	-4.520416259765625	-1.087188720703125	
18	0.07200000000000001	0.0	0.0	0.0	0.0	0.0	0.003	0.006	0.003	9.911994873046874	-0.7260416534423828	-0.05386953735351562	2.605438232421875	-3.62396240234375	-0.396728515625	9.868899243164062	0.4525041137695312	0.08559270935058594	0.26702880859375	-5.382537841796875	-3.734588623046875	10.043077413940429	-0.020350714111328123	-0.38187516479492184	2.960205078125	-4.79888916015625	-1.178741455078125	
19	0.076	0.0	0.0	0.0	0.0	0.003	0.006	0.003	0.003	9.764751470947266	-0.3010708587646484	0.2376245147705078	3.452301025390625	-3.833770751953125	-0.881195068359375	9.758765966796874	0.8182184173583984	0.2807201446533203	0.545501708984375	-5.4473876953125	-3.795623779296875	10.109516510009765	0.5249287139892578	-0.26874913635253905	3.032684326171875	-4.535675048828125	-1.312255859375	
20	0.08	0.0	0.0	0.0	0.0	0.006	0.003	0.003	0.006	9.916783276367187	-0.7906850982666015	-0.0652419952392578	2.6397705078125	-3.41796875	-0.362396240234375	9.898228213500976	0.3752911102294922	0.061650692749023434	0.278472900390625	-4.940032958984375	-3.53240966796875	10.04846436767578	-0.08559270935058594	-0.3842693664550781	3.10516357421875	-4.611968994140625	-0.934600830078125	
21	0.084	0.0	0.0	0.0	0.0	0.003	0.003	0.003	0.003	9.944915145874022	-0.34715924072265625	-0.05805939025878906	3.082275390625	-3.68499755859375	-0.63323974609375	9.74859060974121	0.9062053283691406	0.18136077575683593	0.682830810546875	-5.031585693359375	-4.055023193359375	9.810241302490233	0.4513070129394531	-0.061650692749023434	2.971649169921875	-4.61578369140625	-1.804351806640625	
22	0.088	0.0	0.0	0.0	0.0	0.006	0.003	0.003	0.006	9.916184725952148	-0.7978677032470702	-0.06883329772949218	2.5634765625	-3.124237060546875	-0.335693359375	9.89523546142578	0.3537432952880859	0.05985504150390625	0.31280517578125	-5.22613525390625	-3.597259521484375	10.052055670166014	-0.08978256225585937	-0.4016273284912109	3.08990478515625	-4.833221435546875	-1.171112060546875	
23	0.092	0.0	0.0	0.0	0.0	0.003	0.003	0.003	0.006	9.951499200439452	-0.37289690856933594	-0.07242460021972656	3.30352783203125	-4.1351318359375	-0.90789794921875	9.765350021362304	0.852335791015625	0.19871873779296872	0.804901123046875	-5.401611328125	-4.2724609375	9.828796365356444	0.4070142822265625	-0.04668693237304687	2.9296875	-4.642486572265625	-1.77764892578125	
24	0.096	0.0	0.0	0.0	0.0	0.003	0.003	0.003	0.006	9.801861596679688	-0.3687070556640625	-0.05746083984375	4.2572021484375	-4.322052001953125	-0.637054443359375	9.681552963256836	0.689530078125	0.10295067138671875	0.29754638671875	-5.352020263671875	-3.589630126953125	10.046070166015625	-0.09516951599121093	-0.37888241271972656	2.223968505859375	-4.627227783203125	-1.45721435546875	
25	0.1	0.0	0.0	0.0	0.0	0.006	0.003	0.003	0.006	9.947907897949218	-0.3848679168701172	-0.06883329772949218	3.60870361328125	-3.925323486328125	-0.7171630859375	9.746794958496093	0.8469488372802734	0.20171148986816406	0.70953369140625	-5.260467529296875	-4.24957275390625	9.788693487548828	0.4375403533935547	-0.03651157531738281	2.719879150390625	-4.261016845703125	-1.697540283203125	
26	0.10400000000000001	0.0	0.0	0.0	0.0	0.006	0.003	0.003	0.006	9.798270294189452	-0.364517202758789	-0.047285482788085934	4.26483154296875	-4.688262939453125	-0.797271728515625	9.702502227783203	0.6218938812255859	0.08858546142578125	0.37384033203125	-5.27191162109375	-3.51715087890625	9.718064538574218	0.061650692749023434	-0.016160861206054686	2.559661865234375	-4.638671875	-1.6632080078125	
27	0.108	0.0	0.0	0.0	0.0	0.003	0.003	0.003	0.006	9.94012674255371	-0.4578910675048828	-0.08798691101074219	3.429412841796875	-3.92913818359375	-0.6103515625	9.76235726928711	0.8822633117675781	0.23702596435546874	0.05340576171875	-5.06591796875	-4.306793212890625	9.795277542114258	0.39743747558593745	-0.0005985504150390625	2.605438232421875	-4.58526611328125	-1.7242431640625	
28	0.112	0.0	0.0	0.0	0.0	0.006	0.003	0.003	0.006	9.804255798339844	-0.37708676147460934	-0.04129997863769531	4.177093505859375	-4.33349609375	-0.537872314453125	9.707290631103515	0.6171054779052734	0.08738836059570312	0.19073486328125	-5.306243896484375	-3.582000732421875	9.713874685668944	0.062249243164062495	0.0017956512451171875	2.57110595703125	-4.779815673828125	-1.522064208984375	
29	0.116	0.0	0.0	0.0	0.0	0.006	0.003	0.003	0.006	9.907206469726562	-0.6093243225097655	-0.05027823486328125	4.241943359375	-4.329681396484375	-1.0223388671875	9.669581954956055	0.7882908966064452	0.2657563842773437	0.179290771484375	-5.123138427734375	-4.291534423828125	9.836577520751952	0.015562310791015624	-0.02154781494140625	2.25067138671875	-4.451751708984375	-2.32696533203125	
30	0.12	0.0	0.0	0.0	0.0	0.006	0.003	0.003	0.006	9.792284790039062	-0.4417302062988281	-0.04848258361816406	4.0130615234375	-4.425048828125	-0.537872314453125	9.733626849365233	0.5680243438720702	0.05686228942871093	-0.171661376953125	-5.462646484375	-3.444671630859375	9.713874685668944	0.015562310791015624	0.016759411621093748	2.254486083984375	-4.5166015625	-1.407623291015625	
31	0.124	0.0	0.0	0.0	0.0	0.003	0.003	0.003	0.003	9.90900212097168	-0.6536170532226562	-0.044891281127929686	4.322052001953125	-4.32586669921875	-1.148223876953125	9.656413845825195	0.7882908966064452	0.2741360900878906	0.400543212890625	-5.084991455078125	-4.261016845703125	9.829394915771484	-0.03411737365722656	-0.00239420166015625	2.559661865234375	-4.4097900390625	-2.239227294921875	
32	0.128	0.0	0.0	0.0	0.0	0.003	0.003	0.003	0.003	9.777919580078125	-0.43933600463867184	-0.044891281127929686	2.9296875	-3.658294677734375	-0.179290771484375	9.648632690429688	0.910395181274414	0.27892449340820313	-0.05340576171875	-5.50079345703125	-3.60870361328125	9.913790524291992	0.3333925811767578	-0.05327098693847656	2.9449462890625	-4.85992431640625	-0.946044921875	
33	0.132	0.0	0.0	0.0	0.0	0.003	0.003	0.003	0.006	9.909600671386718	-0.6715735656738281	-0.0526724365234375	4.169464111328125	-4.34112548828125	-1.186370849609375	9.649829791259766	0.814627114868164	0.25797522888183594	0.25177001953125	-5.420684814453125	-4.40216064453125	9.827599264526366	-0.04189852905273437	-0.01915361328125	2.4871826171875	-4.03594970703125	-2.208709716796875	
34	0.136	0.0	0.0	0.0	0.0	0.003	0.003	0.003	0.003	9.926360083007811	-0.7170633972167968	0.04548983154296875	2.719879150390625	-3.681182861328125	-0.1220703125	9.667786303710937	0.9002198242187499	0.24480711975097655	-0.011444091796875	-5.74493408203125	-3.528594970703125	9.949104998779296	0.28431144714355466	-0.09516951599121093	2.887725830078125	-4.7760009765625	-1.15966796875	
35	0.14	0.0	0.0	0.0	0.0	0.006	0.003	0.003	0.006	9.916184725952148	-0.6260837341308594	-0.04129997863769531	4.383087158203125	-4.306793212890625	-1.056671142578125	9.910797772216796	0.4285620971679687	0.0053869537353515625	0.049591064453125	-5.07354736328125	-4.146575927734375	9.842563024902343	-0.0143652099609375	-0.018555062866210937	3.002166748046875	-4.72259521484375	-1.64794921875	
36	0.14400000000000002	0.0	0.0	0.0	0.0	0.006	0.003	0.003	0.006	9.909600671386718	-0.6985083343505859	0.07781155395507812	2.685546875	-3.70025634765625	-0.156402587890625	9.635464581298828	0.8732850555419921	0.26336218261718747	-0.11444091796875	-5.4931640625	-3.448486328125	9.934739788818359	0.24660277099609373	-0.11013327636718749	2.712249755859375	-4.52423095703125	-0.827789306640625	
37	0.148	0.0	0.0	0.0	0.0	0.003	0.006	0.003	0.003	9.823409411621093	-0.9451111053466796	0.058657940673828124	2.74658203125	-3.50189208984375	-0.766754150390625	9.888052856445311	0.37828386230468747	-0.00239420166015625	0.0457763671875	-5.344390869140625	-4.3182373046875	10.320206256103514	-0.30705636291503907	-0.7026981872558593	2.948760986328125	-4.45556640625	-1.750946044921875	
38	0.152	0.0	0.0	0.0	0.0	0.003	0.003	0.003	0.006	9.888651406860351	-0.5692214447021484	0.0939724151611328	2.811431884765625	-3.7384033203125	-0.32806396484375	9.77432827758789	0.8601169464111328	0.297479556274414	0.030517578125	-5.47027587890625	-3.27301025390625	9.941323843383788	0.3950432739257812	-0.0987608184814453	2.849578857421875	-4.72259521484375	-0.96893310546875	
39	0.156	0.0	0.0	0.0	0.0	0.006	0.003	0.003	0.003	9.840168823242188	-0.9343371978759765	0.03890577697753906	2.666473388671875	-3.368377685546875	-0.640869140625	9.868899243164062	0.45669396667480466	0.011372457885742187	0.17547607421875	-4.913330078125	-4.29534912109375	10.302848294067383	-0.2292448089599609	-0.6907271789550781	3.12042236328125	-4.604339599609375	-1.544952392578125	
40	0.16	0.0	0.0	0.0	0.0	0.003	0.003	0.003	0.003	9.874286196899414	-0.5979518646240234	0.1149216796875	2.933502197265625	-3.582000732421875	-0.217437744140625	9.781510882568359	0.7793126403808593	0.2950853546142578	-0.133514404296875	-5.62286376953125	-3.322601318359375	10.152612139892577	0.6392518432617187	-0.296881005859375	2.9296875	-4.497528076171875	-1.15203857421875	
41	0.164	0.0	0.0	0.0	0.0	0.006	0.003	0.003	0.006	9.849147079467773	-0.9834183319091796	0.00239420166015625	2.716064453125	-3.406524658203125	-0.789642333984375	9.974244116210937	0.047884033203124995	0.06045359191894531	0.16021728515625	-5.107879638671875	-3.902435302734375	10.33696566772461	-0.17477672119140625	-0.690128628540039	3.143310546875	-4.5166015625	-1.697540283203125	
42	0.168	0.0	0.0	0.0	0.0	0.003	0.003	0.003	0.003	9.724050042724608	-0.09038111267089843	0.21906945190429686	2.41851806640625	-3.604888916015625	-0.54168701171875	9.759963067626952	0.9121908325195311	0.27174188842773433	0.25177001953125	-5.5999755859375	-3.5247802734375	10.12567737121582	0.6979097839355468	-0.27952304382324217	3.1280517578125	-4.512786865234375	-1.129150390625	
43	0.17200000000000001	0.0	0.0	0.0	0.0	0.003	0.003	0.003	0.003	9.858723886108399	-1.0007762939453124	-0.03232172241210937	2.658843994140625	-3.10516357421875	-0.5035400390625	9.937133990478515	0.07122749938964844	0.06643909606933593	0.171661376953125	-5.016326904296875	-3.688812255859375	10.04906291809082	-0.12988544006347655	-0.3555389465332031	3.23486328125	-4.69207763671875	-1.09100341796875	
44	0.176	0.0	0.0	0.0	0.0	0.006	0.003	0.003	0.009000000000000001	9.721655841064452	-0.20530279235839843	0.21487959899902342	2.8076171875	-3.307342529296875	-0.469207763671875	9.724050042724608	0.8409633331298828	0.2902969512939453	0.518798828125	-5.252838134765625	-4.161834716796875	10.181342559814453	0.5919663604736328	-0.2920926025390625	3.08990478515625	-4.7149658203125	-1.422882080078125	
45	0.18	0.0	0.0	0.0	0.0	0.003	0.003	0.003	0.003	9.89523546142578	-0.9702502227783203	-0.08379705810546874	2.376556396484375	-3.353118896484375	-0.40435791015625	9.969455712890625	0.17058686828613281	0.04848258361816406	0.209808349609375	-5.496978759765625	-3.925323486328125	10.08677159423828	-0.07541735229492187	-0.3705027069091797	3.185272216796875	-4.67681884765625	-1.094818115234375	
46	0.184	0.0	0.0	0.0	0.0	0.003	0.003	0.006	0.006	9.728239895629882	-0.10893617553710937	0.1897404815673828	2.83050537109375	-3.582000732421875	-0.35858154296875	9.663596450805663	1.0815805999755859	0.3130418670654297	0.89263916015625	-5.207061767578125	-3.932952880859375	10.128670123291014	0.5590460876464843	-0.3058592620849609	2.582550048828125	-4.642486572265625	-1.89971923828125	
47	0.188	0.0	0.0	0.0	0.0	0.006	0.006	0.003	0.006	9.78629928588867	-0.7924807495117187	0.04908113403320312	2.7923583984375	-3.63922119140625	-0.034332275390625	9.967061511230469	-0.031124621582031248	-0.05327098693847656	0.3814697265625	-5.496978759765625	-3.33404541015625	10.06163247680664	0.002992752075195312	-0.3896563201904297	3.10516357421875	-4.749298095703125	-0.972747802734375	
48	0.192	0.0	0.0	0.0	0.0	0.009000000000000001	0.003	0.006	0.006	9.753977563476562	-0.2328361114501953	0.15562310791015624	2.66265869140625	-3.2196044921875	-0.640869140625	9.70369932861328	0.9822212310791015	0.3321954803466797	0.553131103515625	-5.115509033203125	-4.222869873046875	9.821613760375977	0.29388825378417965	0.020949264526367185	2.74658203125	-4.61578369140625	-1.73187255859375	
49	0.196	0.0	0.0	0.0	0.0	0.006	0.003	0.003	0.003	9.792284790039062	-0.6194996795654296	0.06763619689941405	2.742767333984375	-3.60107421875	-0.095367431640625	9.808445651245117	0.47644613037109373	-0.07122749938964844	0.30517578125	-5.36346435546875	-3.72314453125	10.047267266845703	0.03172317199707031	-0.39863457641601563	3.063201904296875	-4.5928955078125	-0.919342041015625	
50	0.2	0.0	0.0	0.0	0.0	0.003	0.003	0.003	0.006	9.879074600219726	-0.5434837768554687	-0.12868833923339842	3.11279296875	-3.6773681640625	-0.576019287109375	9.695319622802733	0.9463082061767577	0.34117373657226563	0.705718994140625	-5.084991455078125	-4.283905029296875	9.773131176757811	0.34177228698730466	-0.0005985504150390625	3.093719482421875	-4.7454833984375	-2.025604248046875	
51	0.20400000000000001	0.0	0.0	0.0	0.0	0.003	0.003	0.003	0.006	9.779715231323241	-0.6392518432617187	0.08499415893554688	3.30352783203125	-3.879547119140625	-0.232696533203125	9.8449572265625	0.3573345977783203	-0.06643909606933593	0.5340576171875	-5.397796630859375	-3.543853759765625	9.740809454345703	0.22685060729980466	0.004189852905273437	2.643585205078125	-4.974365234375	-1.4495849609375	
52	0.20800000000000002	0.0	0.0	0.0	0.0	0.003	0.003	0.003	0.003	9.871293444824218	-0.4417302062988281	-0.11432312927246092	3.22723388671875	-3.696441650390625	-0.797271728515625	9.64623848876953	1.0600327850341795	0.18076222534179687	0.66375732421875	-5.199432373046875	-4.180908203125	9.794678991699218	0.27353753967285155	-0.023343466186523436	2.57110595703125	-4.4403076171875	-1.64031982421875	
53	0.212	0.0	0.0	0.0	0.0	0.003	0.003	0.003	0.006	9.767145672607422	-0.6853402252197265	0.105344873046875	3.108978271484375	-3.90625	-0.186920166015625	9.807847100830077	0.24181436767578124	-0.0718260498046875	0.1068115234375	-4.89044189453125	-3.6773681640625	9.658808047485351	0.2950853546142578	-0.001197100830078125	2.346038818359375	-4.5166015625	-1.4190673828125	
54	0.216	0.0	0.0	0.0	0.0	0.006	0.003	0.006	0.006	9.847351428222655	-0.4961982940673828	-0.06823474731445311	3.44085693359375	-3.803253173828125	-1.129150390625	9.658808047485351	0.9002198242187499	0.19931728820800781	0.949859619140625	-4.993438720703125	-4.3182373046875	9.816825357055663	0.09756371765136718	-0.016759411621093748	2.429962158203125	-4.38690185546875	-1.77001953125	
55	0.22	0.0	0.0	0.0	0.0	0.006	0.003	0.003	0.006	9.938929641723632	-0.5345055206298828	-0.24779987182617186	2.719879150390625	-3.936767578125	-0.164031982421875	9.664195001220703	0.9259574920654297	0.11911153259277343	-0.194549560546875	-5.31005859375	-3.147125244140625	9.74799205932617	0.21308394775390624	-0.010773907470703125	2.3956298828125	-5.0506591796875	-1.583099365234375	
56	0.224	0.0	0.0	0.0	0.0	0.003	0.003	0.003	0.003	9.83178911743164	-0.29568390502929687	-0.0383072265625	3.696441650390625	-4.100799560546875	-0.64849853515625	9.629479077148437	0.8475473876953125	0.17776947326660156	0.7781982421875	-5.405426025390625	-4.119873046875	9.792284790039062	0.1406593475341797	-0.05087678527832031	2.490997314453125	-4.50897216796875	-1.94549560546875	
57	0.228	0.0	0.0	0.0	0.0	0.003	0.006	0.003	0.003	9.85632968444824	-1.0283096130371092	-0.2059013427734375	2.0751953125	-3.353118896484375	-0.087738037109375	9.660603698730467	0.5339069702148437	0.11791443176269531	-0.1373291015625	-5.512237548828125	-3.3416748046875	9.715670336914062	0.2549824768066406	0.037110125732421874	2.605438232421875	-4.4708251953125	-1.30462646484375	
58	0.232	0.0	0.0	0.0	0.0	0.003	0.003	0.003	0.009000000000000001	9.827000714111328	-0.5165490081787109	-0.025737667846679687	4.817962646484375	-4.58526611328125	-0.8392333984375	9.80665	0.6093243225097655	0.15442600708007811	0.00762939453125	-4.93621826171875	-5.069732666015625	9.865906491088866	0.030526071166992186	-0.037110125732421874	2.2735595703125	-4.26483154296875	-1.880645751953125	
59	0.23600000000000002	0.0	0.0	0.0	0.0	0.006	0.003	0.003	0.006	9.890447058105469	-0.8918401184082031	-0.23104046020507812	2.76947021484375	-3.56292724609375	-0.759124755859375	9.645041387939452	0.8846575134277344	0.08319850769042968	0.091552734375	-5.664825439453125	-3.376007080078125	9.88386300354004	0.3274070770263672	0.014963760375976562	2.521514892578125	-4.512786865234375	-1.0833740234375	
60	0.24	0.0	0.0	0.0	0.0	0.0	0.003	0.006	0.006	9.868899243164062	-0.6009446166992187	-0.01975216369628906	4.20379638671875	-4.3487548828125	-0.66375732421875	9.730035546875	0.8858546142578124	0.1801636749267578	0.125885009765625	-5.2032470703125	-4.31060791015625	9.771934075927733	0.07122749938964844	0.03232172241210937	2.613067626953125	-4.57763671875	-1.987457275390625	
61	0.244	0.0	0.0	0.0	0.0	0.006	0.006	0.003	0.003	9.86291373901367	-1.1462240447998047	-0.17178396911621094	1.987457275390625	-3.231048583984375	-0.316619873046875	9.788693487548828	1.0863690032958984	0.25917232971191406	0.00762939453125	-5.767822265625	-3.15093994140625	9.958083255004881	0.26755203552246093	0.0047884033203125	2.60162353515625	-4.390716552734375	-1.369476318359375	
62	0.248	0.0	0.0	0.0	0.0	0.003	0.003	0.003	0.006	9.989207876586914	-0.4016273284912109	-0.18255787658691405	4.2724609375	-4.253387451171875	-0.69427490234375	9.78629928588867	0.517746109008789	0.1562216583251953	0.156402587890625	-5.229949951171875	-4.180908203125	10.311227999877929	0.06045359191894531	-0.622492431640625	2.8839111328125	-4.29534912109375	-1.41143798828125	
63	0.252	0.0	0.0	0.0	0.0	0.006	0.003	0.003	0.003	9.733626849365233	-0.24181436767578124	0.4213794921875	4.520416259765625	-4.413604736328125	-0.835418701171875	9.779116680908203	0.6530185028076172	0.28371289672851563	-0.17547607421875	-5.504608154296875	-3.536224365234375	9.847949978637695	0.33578678283691404	0.04249707946777344	2.620697021484375	-4.5166015625	-1.468658447265625	
64	0.256	0.0	0.0	0.0	0.0	0.003	0.003	0.003	0.003	9.968857162475585	-0.6643909606933593	-0.20649989318847656	4.4097900390625	-4.2724609375	-1.033782958984375	9.949703549194336	1.4059949249267578	-0.13287819213867186	0.705718994140625	-5.40924072265625	-4.241943359375	10.304643945312499	0.047884033203124995	-0.5997475158691405	2.87628173828125	-4.33349609375	-1.277923583984375	
65	0.26	0.0	0.0	0.0	0.0	0.003	0.003	0.003	0.003	9.713276135253906	-0.38247371520996093	0.41060558471679687	3.97491455078125	-4.150390625	-0.57220458984375	9.944915145874022	-0.699106884765625	0.24899697265624998	-0.843048095703125	-5.657196044921875	-3.490447998046875	10.187328063964843	0.2980781066894531	-0.37409400939941406	3.147125244140625	-4.34112548828125	-1.46484375	
66	0.264	0.0	0.0	0.0	0.0	0.003	0.003	0.003	0.003	9.958083255004881	-0.5781997009277343	-0.1945288848876953	2.902984619140625	-3.482818603515625	-0.40435791015625	9.879074600219726	1.732803451538086	-0.11372457885742186	1.224517822265625	-4.817962646484375	-3.688812255859375	10.271125122070313	0.08379705810546874	-0.5991489654541016	3.082275390625	-4.344940185546875	-1.178741455078125	
67	0.268	0.0	0.0	0.0	0.0	0.003	0.003	0.006	0.006	9.71686743774414	-0.2316390106201172	0.4177881896972656	5.687713623046875	-5.046844482421875	-1.003265380859375	9.909600671386718	-0.1610100616455078	0.3651157531738281	-0.194549560546875	-5.695343017578125	-3.68499755859375	10.158597644042969	0.26396073303222656	-0.3387795349121094	2.9144287109375	-4.680633544921875	-1.293182373046875	
68	0.272	0.0	0.0	0.0	0.0	0.006	0.003	0.003	0.006	9.855731134033203	-0.5446808776855468	0.11552023010253906	1.773834228515625	-2.979278564453125	-0.499725341796875	9.962273107910155	1.209071838378906	-0.15682020874023436	1.224517822265625	-4.913330078125	-3.124237060546875	10.318410604858398	0.014963760375976562	-0.4656722229003906	3.10516357421875	-4.749298095703125	-1.018524169921875	
69	0.276	0.0	0.0	0.0	0.0	0.009000000000000001	0.003	0.006	0.006	9.728838446044922	-0.3716998077392578	0.3094505645751953	5.42449951171875	-4.6844482421875	-1.16729736328125	9.746196408081055	0.28311434631347654	0.3585316986083984	-0.274658203125	-5.33294677734375	-4.238128662109375	10.157999093627929	0.23642741394042968	-0.35015199279785153	3.0517578125	-4.50897216796875	-1.31988525390625	
70	0.28	0.0	0.0	0.0	0.0	0.0	0.003	0.003	0.003	9.80066449584961	-0.5440823272705078	0.17657237243652343	1.239776611328125	-2.655029296875	-0.22125244140625	9.961076007080077	0.6260837341308594	-0.1227028350830078	0.576019287109375	-5.01251220703125	-3.65447998046875	10.09395419921875	0.1693897674560547	-0.412401235961914	3.1585693359375	-4.741668701171875	-0.93841552734375	
71	0.28400000000000003	0.0	0.0	0.0	0.0	0.003	0.006	0.006	0.003	9.764751470947266	-0.30047230834960936	0.22685060729980466	2.315521240234375	-3.509521484375	-0.476837158203125	9.71028338317871	0.7601590270996094	0.34536358947753903	0.3204345703125	-5.4931640625	-4.2572021484375	10.162787496948242	0.21787235107421873	-0.3447650390625	3.047943115234375	-4.57000732421875	-1.453399658203125	
72	0.28800000000000003	0.0	0.0	0.0	0.0	0.006	0.006	0.003	0.003	9.822212310791015	-0.556053335571289	0.1484405029296875	1.94549560546875	-2.62451171875	-0.3204345703125	9.9215716796875	0.5817910034179687	-0.022744915771484374	0.40435791015625	-5.130767822265625	-3.719329833984375	10.181342559814453	0.16280571289062498	-0.4375403533935547	3.0975341796875	-4.695892333984375	-0.942230224609375	
73	0.292	0.0	0.0	0.0	0.0	0.006	0.006	0.003	0.006	9.8449572265625	-0.805050308227539	0.033518823242187495	2.323150634765625	-3.177642822265625	-0.743865966796875	9.65342109375	0.8834604125976562	0.4112041351318359	0.667572021484375	-5.59234619140625	-4.03594970703125	9.720458740234374	-0.031124621582031248	0.05566518859863281	2.6397705078125	-4.57000732421875	-1.83868408203125	
74	0.296	0.0	0.0	0.0	0.0	0.003	0.003	0.003	0.003	9.81263550415039	-0.47105917663574215	0.09816226806640624	2.17437744140625	-3.276824951171875	-0.5035400390625	9.886855755615233	0.527322915649414	-0.013766659545898436	0.1678466796875	-5.05828857421875	-3.997802734375	10.116100564575195	0.2454056701660156	-0.4878185882568359	3.07464599609375	-4.558563232421875	-1.125335693359375	
75	0.3	0.0	0.0	0.0	0.0	0.003	4.623	4.665	4.632	9.873089096069336	-0.7499836700439453	-0.013168109130859374	2.094268798828125	-3.173828125	-0.6256103515625	9.623493572998047	0.7727285858154297	0.38187516479492184	0.16021728515625	-4.852294921875	-4.154205322265625	9.765948571777344	0.0047884033203125	-0.014963760375976562	2.872467041015625	-4.70733642578125	-1.64794921875	
76	0.304	0.0	0.0	0.0	0.0	4.641	4.671	4.671	4.626	9.810241302490233	-0.7846995941162109	-0.07122749938964844	2.14385986328125	-3.185272216796875	-0.48065185546875	9.90840357055664	0.6464344482421874	-0.040102877807617184	0.030517578125	-5.008697509765625	-4.40216064453125	9.726444244384766	0.28311434631347654	0.12330138549804687	2.44140625	-4.573822021484375	-1.453399658203125	
77	0.308	0.0	0.0	0.0	0.0	4.647	4.671	4.671	4.626	9.797671743774414	-0.6883329772949218	0.10354922180175781	1.73187255859375	-3.1280517578125	-0.591278076171875	9.591171850585937	0.7009025360107421	0.3920505218505859	0.362396240234375	-4.9285888671875	-3.936767578125	9.6917283203125	0.07122749938964844	0.04369418029785156	2.716064453125	-4.638671875	-1.750946044921875	
78	0.312	0.0	0.0	0.0	0.0	4.647	4.668	4.674	4.644	9.811438403320311	-0.6937199310302734	-0.10714052429199218	2.193450927734375	-3.35693359375	-0.408172607421875	9.676166009521484	0.5865794067382812	0.12988544006347655	0.18310546875	-5.504608154296875	-3.902435302734375	9.696516723632811	0.3746925598144531	0.09277531433105468	2.38037109375	-4.44793701171875	-1.720428466796875	
79	0.316	0.0	0.0	0.0	0.0	4.647	4.674	4.674	4.638	9.815029705810547	-0.6488286499023437	0.09756371765136718	2.31170654296875	-3.002166748046875	-0.545501708984375	9.657012396240233	0.5428852264404297	0.43993455505371093	0.12969970703125	-5.275726318359375	-4.184722900390625	9.864709390258788	-0.025139117431640625	-0.044891281127929686	2.41851806640625	-4.2877197265625	-1.73187255859375	
80	0.32	0.0	0.0	0.0	0.0	4.641	4.674	4.671	4.641	9.750386260986328	-0.8583212951660156	0.011372457885742187	1.987457275390625	-3.021240234375	-0.41961669921875	9.612719665527344	0.6691793640136718	0.19033903198242186	0.263214111328125	-5.298614501953125	-3.978729248046875	9.664195001220703	0.33578678283691404	0.16160861206054686	2.346038818359375	-4.741668701171875	-1.834869384765625	
81	0.324	0.0	0.0	0.0	0.0	4.638	4.671	4.671	4.644	9.872490545654296	-0.4273649963378906	-0.0526724365234375	3.082275390625	-3.7078857421875	-0.446319580078125	9.616310968017578	0.604535919189453	0.23882161560058593	-0.156402587890625	-5.2337646484375	-3.948211669921875	9.700706576538085	0.07122749938964844	-0.002992752075195312	2.38037109375	-4.45556640625	-1.89971923828125	
82	0.328	0.0	0.0	0.0	0.0	4.644	4.674	4.674	4.632	9.804255798339844	-0.7529764221191406	0.00239420166015625	2.044677734375	-3.18145751953125	-0.438690185546875	9.724050042724608	0.5710170959472656	0.17298106994628906	0.431060791015625	-5.817413330078125	-3.780364990234375	9.79946739501953	0.30526071166992186	0.13287819213867186	2.712249755859375	-4.558563232421875	-1.65557861328125	
83	0.332	0.0	0.0	0.0	0.0	4.644	4.674	4.674	4.6290000000000004	9.94012674255371	-0.7158662963867187	-0.1083376251220703	3.143310546875	-3.59344482421875	-0.331878662109375	9.642647186279296	0.6105214233398437	0.354341845703125	-0.06103515625	-4.92095947265625	-4.169464111328125	9.80605144958496	-0.025139117431640625	0.004189852905273437	2.3345947265625	-4.329681396484375	-1.850128173828125	
84	0.336	0.0	0.0	0.0	0.0	4.65	4.671	4.674	4.626	9.770736975097655	-0.5333084197998047	0.03651157531738281	4.459381103515625	-4.49371337890625	-0.640869140625	9.694122521972655	0.6721721160888672	0.3142389678955078	-0.484466552734375	-5.2490234375	-3.326416015625	9.809044201660155	0.3764882110595703	-0.03172317199707031	2.8228759765625	-4.669189453125	-1.495361328125	
85	0.34	0.0	0.0	0.0	0.0	4.647	4.668	4.674	4.641	9.904812268066406	-0.7661445312499999	-0.05626373901367187	2.384185791015625	-3.063201904296875	-0.32806396484375	9.643844287109374	0.7164648468017578	0.30466216125488277	0.03814697265625	-5.0201416015625	-3.810882568359375	9.817423907470703	0.03531447448730469	-0.011372457885742187	2.41851806640625	-4.66156005859375	-1.811981201171875	
86	0.34400000000000003	0.0	0.0	0.0	0.0	4.644	4.674	4.6770000000000005	4.641	9.973047015380859	-0.40402153015136716	-0.0047884033203125	3.997802734375	-3.864288330078125	-0.396728515625	9.829394915771484	0.5051765502929687	0.23223756103515625	-0.274658203125	-5.413055419921875	-3.5858154296875	10.03050785522461	0.21248539733886718	-0.10235212097167969	2.628326416015625	-4.75311279296875	-1.636505126953125	
87	0.34800000000000003	0.0	0.0	0.0	0.0	4.644	4.674	4.674	4.644	9.9215716796875	-0.239420166015625	-0.07422025146484375	3.15093994140625	-3.60107421875	-0.45013427734375	9.890447058105469	0.82360537109375	-0.09457096557617187	0.484466552734375	-5.11932373046875	-3.70025634765625	10.260949765014647	0.24121581726074218	-0.74699091796875	3.063201904296875	-4.505157470703125	-1.190185546875	
88	0.352	0.0	0.0	0.0	0.0	4.638	4.674	4.671	4.647	9.91558617553711	-0.5159504577636719	0.08319850769042968	4.703521728515625	-4.528045654296875	-0.629425048828125	9.733626849365233	0.5913678100585937	0.26276363220214843	0.0457763671875	-5.641937255859375	-3.5247802734375	9.886257205200195	0.38666356811523434	-0.08439560852050781	2.593994140625	-4.3182373046875	-1.552581787109375	
89	0.356	0.0	0.0	0.0	0.0	4.647	4.674	4.6770000000000005	4.638	10.05504842224121	-0.2867056488037109	-0.25139117431640623	4.7149658203125	-4.627227783203125	-0.560760498046875	9.9981861328125	0.7362170104980469	-0.1370680450439453	0.278472900390625	-5.22613525390625	-3.72314453125	10.424354028320312	0.1149216796875	-0.7362170104980469	3.11279296875	-4.4708251953125	-1.262664794921875	
90	0.36	0.0	0.0	0.0	0.0	4.644	4.674	4.674	4.626	9.974244116210937	-0.07122749938964844	-0.01975216369628906	5.18798828125	-5.100250244140625	-0.640869140625	9.713276135253906	0.6296750366210937	0.23642741394042968	0.48828125	-5.535125732421875	-3.4027099609375	10.189722265624999	0.28790274963378903	-0.469263525390625	3.082275390625	-4.604339599609375	-1.51824951171875	
91	0.364	0.0	0.0	0.0	0.0	4.65	4.671	4.674	4.626	9.9981861328125	-0.4477157104492187	-0.23582886352539062	5.275726318359375	-5.023956298828125	-1.148223876953125	9.881468801879882	0.8403647827148437	-0.11073182678222655	0.41961669921875	-4.852294921875	-3.429412841796875	10.223241088867187	0.32501287536621093	-0.7020996368408202	2.9296875	-4.650115966796875	-1.19781494140625	
92	0.368	0.0	0.0	0.0	0.0	4.647	4.668	4.674	4.638	9.919177478027343	-0.5734112976074218	0.012569558715820313	4.726409912109375	-4.852294921875	-0.446319580078125	9.819818109130859	0.7230489013671875	0.23104046020507812	0.244140625	-5.222320556640625	-3.604888916015625	10.212467181396484	0.22445640563964842	-0.37828386230468747	3.101348876953125	-4.66156005859375	-1.18255615234375	
93	0.372	0.0	0.0	0.0	0.0	4.644	4.674	4.674	4.641	10.035296258544921	-0.2214636535644531	-0.3136404174804687	4.7454833984375	-4.772186279296875	-0.79345703125	9.950900650024414	0.7320271575927734	-0.1657984649658203	0.34332275390625	-5.21087646484375	-3.54766845703125	10.359710583496094	0.21727380065917967	-0.7823053924560547	2.044677734375	-4.390716552734375	-1.2054443359375	
94	0.376	0.0	0.0	0.0	0.0	4.647	4.6770000000000005	4.674	4.641	9.651625442504882	-0.6955155822753906	0.1867477294921875	3.902435302734375	-4.108428955078125	-0.946044921875	9.730035546875	0.9121908325195311	0.18914193115234373	0.091552734375	-5.405426025390625	-3.54766845703125	10.089165795898436	0.38666356811523434	-0.43634325256347656	3.0517578125	-4.604339599609375	-1.30462646484375	
95	0.38	0.0	0.0	0.0	0.0	4.638	4.674	4.671	4.65	9.944316595458984	-0.824802471923828	-0.16998831787109375	4.085540771484375	-4.421234130859375	-0.74005126953125	9.97184991455078	0.6260837341308594	-0.06284779357910156	0.537872314453125	-5.3863525390625	-4.108428955078125	10.137049829101562	0.22864625854492185	-0.4100070343017578	3.276824951171875	-4.72259521484375	-1.07574462890625	
96	0.384	0.0	0.0	0.0	0.0	4.65	4.674	0.003	0.006	9.763554370117188	-0.4291606475830078	0.07062894897460938	3.757476806640625	-3.963470458984375	-0.6561279296875	9.846154327392577	0.7739256866455078	0.16340426330566404	0.049591064453125	-5.214691162109375	-3.7384033203125	10.280701928710936	0.2316390106201172	-0.49200844116210934	3.086090087890625	-4.5623779296875	-1.38092041015625	
97	0.388	0.0	0.0	0.0	0.0	0.003	0.003	0.003	0.006	10.002375985717773	-0.1083376251220703	-0.19991583862304688	2.735137939453125	-5.1727294921875	-1.220703125	9.994594830322265	0.7009025360107421	-0.20350714111328125	0.499725341796875	-5.37109375	-4.05120849609375	10.095151300048828	0.2807201446533203	-0.43933600463867184	3.185272216796875	-4.741668701171875	-1.28173828125	
98	0.392	0.0	0.0	0.0	0.0	0.006	0.003	0.006	0.003	9.613318215942382	-0.9935936889648437	0.25438392639160157	3.391265869140625	-3.818511962890625	-1.033782958984375	9.622895022583007	0.8218097198486327	0.36092590026855464	0.41961669921875	-5.30242919921875	-3.97491455078125	9.67137760620117	0.12629413757324218	0.19812018737792966	2.66265869140625	-4.657745361328125	-1.674652099609375	
99	0.396	0.0	0.0	0.0	0.0	0.006	0.003	0.003	0.006	9.787496386718749	-0.8277952239990234	0.023942016601562498	0.67138671875	-2.613067626953125	0.385284423828125	10.083180291748047	0.6572083557128906	-0.18375497741699218	0.492095947265625	-5.344390869140625	-4.150390625	10.257957012939453	0.15442600708007811	-0.5063736511230469	2.9144287109375	-4.528045654296875	-0.881195068359375	
100	0.4	0.0	0.0	0.0	0.0	0.006	0.003	0.003	0.006	9.745597857666015	-0.36092590026855464	0.0718260498046875	2.40325927734375	-3.0975341796875	-0.31280517578125	9.721655841064452	0.7894879974365234	0.14724340209960937	0.423431396484375	-5.19561767578125	-4.12750244140625	9.719261639404296	0.10654197387695312	0.13467384338378904	2.513885498046875	-4.35638427734375	-1.605987548828125	
101	0.404	0.0	0.0	0.0	0.0	0.006	0.003	0.003	0.003	9.727641345214844	-0.41838674011230464	0.12868833923339842	3.910064697265625	-4.131317138671875	-1.1444091796875	9.605537060546874	0.5638344909667968	0.3280056274414062	0.25177001953125	-5.146026611328125	-3.997802734375	9.642048635864258	0.21308394775390624	0.11731588134765625	2.513885498046875	-4.73785400390625	-1.888275146484375	
102	0.40800000000000003	0.0	0.0	0.0	0.0	0.0	0.003	0.006	0.003	9.683947164916992	-1.4909890838623046	0.17118541870117188	-0.453948974609375	-1.91497802734375	0.55694580078125	9.718064538574218	0.7553706237792969	0.24660277099609373	0.63323974609375	-5.222320556640625	-3.94439697265625	9.753977563476562	0.0652419952392578	0.21068974609375	2.742767333984375	-4.8065185546875	-1.6632080078125	
103	0.41200000000000003	0.0	0.0	0.0	0.0	0.003	0.003	0.003	0.006	9.78031378173828	-1.1318588348388672	-0.00239420166015625	0.030517578125	-1.811981201171875	0.58746337890625	9.670180505371093	0.5135562561035156	0.2885013000488281	-0.34332275390625	-5.07354736328125	-4.131317138671875	9.746794958496093	0.11073182678222655	0.029927520751953124	2.3651123046875	-4.634857177734375	-1.96075439453125	
104	0.41600000000000004	0.0	0.0	0.0	0.0	0.003	0.003	0.003	0.003	9.823409411621093	-0.13826514587402344	0.02633621826171875	2.758026123046875	-3.23486328125	-0.270843505859375	9.567828384399414	0.6338648895263671	0.38307226562499996	0.20599365234375	-5.191802978515625	-4.058837890625	9.631873278808593	0.12629413757324218	0.27174188842773433	2.532958984375	-4.2724609375	-1.636505126953125	
105	0.42	0.0	0.0	0.0	0.0	0.003	0.003	0.003	0.003	9.84555577697754	-0.017357962036132813	-0.013766659545898436	4.40216064453125	-4.35638427734375	-1.03759765625	9.649231240844726	0.4944026428222656	0.3184288208007812	0.38909912109375	-5.077362060546875	-3.80706787109375	9.699509475708007	0.08918401184082031	0.10235212097167969	2.34222412109375	-4.72259521484375	-1.7242431640625	
106	0.424	0.0	0.0	0.0	0.0	0.006	0.003	0.003	0.003	9.712677584838866	-1.2958616485595702	0.19393033447265623	2.20489501953125	-3.055572509765625	-0.640869140625	9.67137760620117	0.6212953308105469	0.3058592620849609	-0.102996826171875	-5.031585693359375	-3.910064697265625	9.810839852905273	0.12868833923339842	0.025737667846679687	2.47955322265625	-4.47845458984375	-1.667022705078125	
107	0.428	0.0	0.0	0.0	0.0	0.006	0.003	0.003	0.003	9.929951385498047	-1.024119760131836	-0.22685060729980466	-0.095367431640625	-2.3193359375	0.86212158203125	9.708487731933593	0.48662148742675776	0.16280571289062498	-0.164031982421875	-5.3863525390625	-3.566741943359375	9.637858782958984	0.09995791931152344	0.15861585998535155	2.40325927734375	-4.9285888671875	-1.8157958984375	
108	0.432	0.0	0.0	0.0	0.0	0.003	0.003	0.003	0.006	9.81862100830078	-0.8002619049072265	0.07481880187988281	-0.823974609375	-1.6937255859375	0.89263916015625	9.578003741455078	0.5740098480224609	0.4608838195800781	-0.3204345703125	-5.191802978515625	-4.150390625	9.721655841064452	0.1580173095703125	0.15203180541992187	2.25067138671875	-4.085540771484375	-1.506805419921875	
109	0.436	0.0	0.0	0.0	0.0	0.003	0.006	0.003	0.003	10.034099157714843	-0.013168109130859374	-0.3184288208007812	6.683349609375	-5.6915283203125	-1.415252685546875	9.752181912231444	0.517746109008789	0.12150573425292968	0.80108642578125	-5.6915283203125	-3.2958984375	9.941922393798828	0.06943184814453125	-0.08319850769042968	2.719879150390625	-4.535675048828125	-1.514434814453125	
110	0.44	0.0	0.0	0.0	0.0	0.003	0.003	0.003	0.006	9.892841259765625	-0.229843359375	-0.022146365356445312	6.412506103515625	-4.909515380859375	-1.2054443359375	9.62109937133789	0.6284779357910156	0.3525461944580078	0.270843505859375	-5.27191162109375	-3.765106201171875	9.733626849365233	0.1897404815673828	0.12689268798828124	2.2125244140625	-4.38690185546875	-1.613616943359375	
111	0.444	0.0	0.0	0.0	0.0	0.003	0.003	0.003	0.003	9.78031378173828	-1.1013327636718748	0.05327098693847656	3.6773681640625	-4.302978515625	-0.81634521484375	9.67197615661621	0.48662148742675776	0.17776947326660156	0.125885009765625	-5.68389892578125	-3.650665283203125	9.855132583618163	0.07422025146484375	-0.020949264526367185	2.643585205078125	-4.680633544921875	-1.415252685546875	
112	0.448	0.0	0.0	0.0	0.0	0.006	0.006	0.003	0.003	9.957484704589843	-0.7487865692138671	-0.1975216369628906	1.99127197265625	-3.086090087890625	0.186920166015625	9.885658654785155	0.6350619903564453	-0.02633621826171875	-0.148773193359375	-5.05828857421875	-3.85284423828125	10.335768566894531	0.1897404815673828	-0.6554127044677734	2.826690673828125	-4.589080810546875	-1.708984375	
113	0.452	0.0	0.0	0.0	0.0	0.003	0.003	0.003	0.003	9.974244116210937	-0.6530185028076172	-0.21308394775390624	2.78472900390625	-3.475189208984375	-0.057220458984375	9.726444244384766	0.47884033203125	0.08858546142578125	-0.270843505859375	-5.168914794921875	-3.620147705078125	9.937133990478515	0.06703764648437499	-0.12449848632812499	2.582550048828125	-4.2877197265625	-1.48773193359375	
114	0.456	0.0	0.0	0.0	0.0	0.006	0.003	0.003	0.006	10.013149893188476	-0.29269115295410153	-0.2262520568847656	6.89697265625	-5.36346435546875	-1.293182373046875	9.804854348754882	0.6733692169189452	0.04908113403320312	0.789642333984375	-5.496978759765625	-3.551483154296875	10.223839639282225	0.2567781280517578	-0.55545478515625	3.13568115234375	-4.50897216796875	-1.438140869140625	
115	0.46	0.0	0.0	0.0	0.0	0.009000000000000001	0.003	0.003	0.003	10.001777435302733	-0.5931634613037109	-0.29927520751953124	5.153656005859375	-4.787445068359375	-1.201629638671875	9.760561618041992	0.6512228515624999	0.3094505645751953	0.35858154296875	-5.252838134765625	-3.398895263671875	9.911994873046874	0.037110125732421874	-0.086191259765625	3.017425537109375	-4.550933837890625	-1.132965087890625	
116	0.464	0.0	0.0	0.0	0.0	0.0	0.003	0.003	0.003	9.944316595458984	-0.6087257720947266	-0.10773907470703124	5.19561767578125	-4.962921142578125	-1.10626220703125	9.920374578857421	0.6655880615234374	-0.059256491088867186	0.75531005859375	-5.31005859375	-3.57818603515625	10.332177264404296	0.21128829650878905	-0.603338818359375	3.040313720703125	-4.46319580078125	-1.399993896484375	
117	0.468	0.0	0.0	0.0	0.0	0.003	0.003	0.003	0.003	9.60194575805664	-0.5315127685546874	0.5267243652343749	2.8533935546875	-3.80706787109375	-0.518798828125	9.776123928833007	0.6548141540527344	0.30705636291503907	-0.072479248046875	-5.130767822265625	-3.704071044921875	10.164583148193358	0.22026655273437498	-0.26755203552246093	3.017425537109375	-4.619598388671875	-1.13677978515625	
118	0.47200000000000003	0.0	0.0	0.0	0.0	0.003	0.003	0.003	0.003	9.835978970336914	-0.5913678100585937	0.07541735229492187	4.29534912109375	-4.2724609375	-0.881195068359375	9.859920986938477	0.7829039428710937	0.12090718383789062	0.57220458984375	-5.36346435546875	-4.119873046875	10.250774407958984	0.24361001892089842	-0.49739539489746093	3.0517578125	-4.367828369140625	-1.644134521484375	
119	0.47600000000000003	0.0	0.0	0.0	0.0	0.006	0.003	0.003	0.003	9.580996493530273	-0.7852981445312499	0.5327098693847656	1.7852783203125	-2.8228759765625	-0.4119873046875	9.79946739501953	0.6769605194091797	0.29568390502929687	0.1678466796875	-5.36346435546875	-3.765106201171875	10.236409197998046	0.22565350646972654	-0.31962592163085934	3.124237060546875	-4.6234130859375	-0.90789794921875	
120	0.48	0.0	0.0	0.0	0.0	0.003	0.003	0.003	0.006	9.820416659545899	-0.5267243652343749	0.11432312927246092	-0.42724609375	-1.590728759765625	0.286102294921875	9.892841259765625	0.7924807495117187	0.13347674255371092	0.484466552734375	-5.184173583984375	-4.245758056640625	10.16398459777832	0.10115502014160156	-0.5291185668945312	2.93731689453125	-4.31060791015625	-1.40380859375	
121	0.484	0.0	0.0	0.0	0.0	0.0	0.003	0.003	0.006	9.551667523193359	-0.536899722290039	0.5746083984375	1.18255615234375	-2.460479736328125	0.080108642578125	9.701903677368163	0.8565256439208984	0.3286041778564453	0.308990478515625	-5.039215087890625	-3.9825439453125	10.160991845703125	0.28790274963378903	-0.24839842224121092	2.941131591796875	-4.49371337890625	-1.140594482421875	
122	0.488	0.0	0.0	0.0	0.0	0.006	0.003	0.003	0.003	9.847351428222655	-0.3812766143798828	0.037110125732421874	0.179290771484375	-1.941680908203125	0.0	9.90840357055664	0.795473501586914	0.12389993591308593	0.232696533203125	-5.039215087890625	-4.047393798828125	10.117297665405273	0.11791443176269531	-0.4417302062988281	2.8076171875	-4.642486572265625	-1.247406005859375	
123	0.492	0.0	0.0	0.0	0.0	0.0	0.003	0.003	0.003	9.580397943115234	-0.5865794067382812	0.5243301635742187	0.96893310546875	-2.071380615234375	-0.080108642578125	9.77432827758789	0.7607575775146483	0.26396073303222656	0.25177001953125	-4.970550537109375	-3.96728515625	9.74799205932617	0.29089550170898437	0.10953472595214843	2.834320068359375	-4.64630126953125	-1.50299072265625	
124	0.496	0.0	0.0	0.0	0.0	0.003	0.003	0.003	0.003	9.937732540893554	-0.31543606872558594	-0.0796072052001953	-0.25177001953125	-1.789093017578125	0.354766845703125	9.69112976989746	0.6961141326904297	0.11073182678222655	0.18310546875	-5.214691162109375	-4.177093505859375	10.052055670166014	0.16639701538085935	-0.4848258361816406	2.8533935546875	-4.459381103515625	-1.117706298828125	
125	0.5	0.0	0.0	0.0	0.0	0.003	0.006	0.003	0.003	10.041281762695311	-0.14724340209960937	-0.296881005859375	4.302978515625	-4.459381103515625	-1.03759765625	9.745597857666015	0.7218518005371093	0.23223756103515625	0.23651123046875	-4.87518310546875	-3.77655029296875	9.69771382446289	0.364517202758789	0.14305354919433594	2.544403076171875	-4.543304443359375	-1.38092041015625	
126	0.504	0.0	0.0	0.0	0.0	0.003	0.003	0.003	0.0	10.041281762695311	-0.1370680450439453	-0.26276363220214843	2.18963623046875	-3.13568115234375	-0.1678466796875	9.782707983398437	0.689530078125	-0.013168109130859374	0.64849853515625	-5.21087646484375	-4.131317138671875	10.108917959594725	0.07601590270996093	-0.47764323120117186	2.429962158203125	-4.8065185546875	-1.922607421875	
127	0.508	0.0	0.0	0.0	0.0	0.003	0.006	0.003	0.003	9.967660061645507	-0.4722562774658203	-0.19931728820800781	4.60052490234375	-4.856109619140625	-0.98419189453125	9.644442837524414	0.6189011291503906	0.2232593048095703	-0.00762939453125	-5.18035888671875	-3.753662109375	9.694122521972655	0.36691140441894526	0.14544775085449219	2.685546875	-4.680633544921875	-1.53350830078125	
128	0.512	0.0	0.0	0.0	0.0	0.003	0.003	0.003	0.003	10.002974536132811	-0.2813186950683594	-0.2615665313720703	5.199432373046875	-5.2490234375	-1.1138916015625	9.713874685668944	0.8164227661132812	0.0143652099609375	0.705718994140625	-5.53131103515625	-3.91387939453125	9.635464581298828	0.09636661682128905	0.06105214233398437	2.2430419921875	-4.6844482421875	-1.811981201171875	
129	0.516	0.0	0.0	0.0	0.0	0.006	0.003	0.003	0.006	9.916184725952148	-0.49859249572753905	-0.11552023010253906	4.520416259765625	-4.5623779296875	-1.0223388671875	9.692326870727538	0.565630142211914	0.2759317413330078	0.1983642578125	-5.084991455078125	-4.032135009765625	9.828796365356444	0.31543606872558594	0.052073886108398436	2.86102294921875	-4.680633544921875	-1.209259033203125	
130	0.52	0.0	0.0	0.0	0.0	0.003	0.003	0.003	0.006	9.7545761138916	-0.6392518432617187	-0.010773907470703125	3.8604736328125	-4.33349609375	-1.201629638671875	9.749787710571288	0.7751227874755859	-0.0053869537353515625	0.339508056640625	-5.306243896484375	-4.009246826171875	9.734823950195311	0.02154781494140625	-0.04369418029785156	2.4871826171875	-4.8828125	-1.93023681640625	
131	0.524	0.0	0.0	0.0	0.0	0.006	0.003	0.003	0.006	9.783905084228515	-0.5452794281005859	0.04967968444824218	4.09698486328125	-4.3487548828125	-1.064300537109375	9.572616787719726	0.6560112548828124	0.37229835815429685	0.026702880859375	-4.978179931640625	-3.7841796875	9.720458740234374	0.2998737579345703	0.10773907470703124	2.513885498046875	-4.596710205078125	-1.819610595703125	
132	0.528	0.0	0.0	0.0	0.0	0.006	0.006	0.003	0.003	9.776722479248047	-0.6392518432617187	0.009576806640625	2.9144287109375	-3.753662109375	-0.63323974609375	9.64623848876953	0.613514175415039	0.1897404815673828	0.064849853515625	-5.4473876953125	-3.72314453125	9.731232647705077	0.047884033203124995	-0.0053869537353515625	2.429962158203125	-4.913330078125	-1.956939697265625	
133	0.532	0.0	0.0	0.0	0.0	0.006	0.003	0.003	0.003	9.943718045043944	-0.843956085205078	-0.015562310791015624	2.73895263671875	-3.2501220703125	-0.339508056640625	9.668983404541015	0.6434416961669921	0.32920272827148434	0.873565673828125	-4.81414794921875	-3.955841064453125	9.83897172241211	0.15741875915527342	0.09457096557617187	2.285003662109375	-4.49371337890625	-2.197265625	
134	0.536	0.0	0.0	0.0	0.0	0.006	0.003	0.003	0.003	9.830592016601562	-0.6542156036376953	-0.10295067138671875	2.750396728515625	-3.387451171875	-0.37384033203125	9.629479077148437	0.5470750793457031	0.17836802368164062	0.1373291015625	-5.779266357421875	-3.84521484375	9.880870251464843	0.23582886352539062	-0.05386953735351562	2.803802490234375	-4.840850830078125	-1.27410888671875	
135	0.54	0.0	0.0	0.0	0.0	0.012	0.006	0.003	0.003	9.916184725952148	-0.5955576629638671	-0.04967968444824218	4.161834716796875	-4.344940185546875	-0.28228759765625	9.743203656005859	0.737414111328125	0.12629413757324218	0.32806396484375	-5.1116943359375	-3.7384033203125	9.713276135253906	0.19871873779296872	0.08858546142578125	2.4566650390625	-4.70733642578125	-1.911163330078125	
136	0.544	0.0	0.0	0.0	0.0	0.003	0.003	0.003	0.006	9.95329485168457	-0.6554127044677734	-0.2615665313720703	3.482818603515625	-4.184722900390625	-0.606536865234375	9.694122521972655	0.4369418029785156	0.1484405029296875	0.148773193359375	-5.352020263671875	-3.74603271484375	9.981426721191406	0.21428104858398436	-0.05805939025878906	2.46429443359375	-4.50897216796875	-1.399993896484375	
137	0.548	0.0	0.0	0.0	0.0	0.006	0.003	0.003	0.006	9.923965881347655	-0.5584475372314452	-0.011971008300781249	5.50079345703125	-4.894256591796875	-0.743865966796875	9.765948571777344	0.7344213592529296	0.1592144104003906	0.362396240234375	-5.023956298828125	-3.753662109375	9.742605105590819	0.1005564697265625	0.13347674255371092	2.979278564453125	-4.241943359375	-1.514434814453125	
138	0.552	0.0	0.0	0.0	0.0	0.006	0.003	0.003	0.003	9.715670336914062	-0.49380409240722656	0.3525461944580078	4.4403076171875	-4.192352294921875	-0.72479248046875	9.779715231323241	0.6218938812255859	0.22026655273437498	0.16021728515625	-5.588531494140625	-3.589630126953125	9.871293444824218	0.33399113159179683	-0.06943184814453125	2.5634765625	-4.627227783203125	-1.40380859375	
139	0.556	0.0	0.0	0.0	0.0	0.003	0.003	0.003	0.006	9.91438907470703	-0.40761283264160153	0.013168109130859374	6.0882568359375	-5.11932373046875	-1.071929931640625	9.769539874267577	0.6739677673339843	0.1867477294921875	0.209808349609375	-4.703521728515625	-3.635406494140625	10.333374365234375	0.10115502014160156	-0.6332663391113281	2.742767333984375	-4.18853759765625	-1.438140869140625	
140	0.56	0.0	0.0	0.0	0.0	0.006	0.003	0.003	0.003	9.77492682800293	-0.43634325256347656	0.34117373657226563	4.589080810546875	-4.44793701171875	-0.7476806640625	9.882067352294921	0.546476528930664	0.1975216369628906	-0.003814697265625	-5.367279052734375	-3.71551513671875	9.989806427001952	0.316034619140625	-0.07601590270996093	2.471923828125	-4.512786865234375	-1.468658447265625	
141	0.5640000000000001	0.0	0.0	0.0	0.0	0.003	0.006	0.003	0.003	9.9461122467041	-0.4465186096191406	-0.08319850769042968	1.705169677734375	-2.880096435546875	-0.3204345703125	9.943119494628906	0.8080430603027343	-0.047285482788085934	0.514984130859375	-5.069732666015625	-3.864288330078125	10.280701928710936	0.09038111267089843	-0.5787982513427734	2.52532958984375	-4.2572021484375	-1.18255615234375	
142	0.5680000000000001	0.0	0.0	0.0	0.0	0.003	0.003	0.003	0.003	9.779116680908203	-0.35613749694824215	0.3363853332519531	5.046844482421875	-4.741668701171875	-0.522613525390625	9.80006594543457	0.546476528930664	0.2454056701660156	0.072479248046875	-5.51605224609375	-3.5552978515625	10.16338604736328	0.3393780853271484	-0.40282442932128903	3.009796142578125	-4.67681884765625	-1.38092041015625	
143	0.5720000000000001	0.0	0.0	0.0	0.0	0.003	0.006	0.003	0.003	9.89463691101074	-0.5255272644042969	0.0526724365234375	2.75421142578125	-3.734588623046875	-0.52642822265625	9.997587582397461	0.7368155609130859	-0.0652419952392578	0.5340576171875	-4.962921142578125	-3.696441650390625	10.350732327270507	0.00718260498046875	-0.6392518432617187	2.925872802734375	-4.364013671875	-1.621246337890625	
144	0.5760000000000001	0.0	0.0	0.0	0.0	0.003	0.006	0.006	0.003	9.805452899169921	-0.4285620971679687	0.2861070983886719	4.894256591796875	-4.791259765625	-0.7171630859375	9.74799205932617	0.7260416534423828	0.3327940307617187	0.17547607421875	-5.19561767578125	-4.039764404296875	10.242993252563476	0.33578678283691404	-0.4034229797363281	3.18145751953125	-4.58526611328125	-1.407623291015625	
145	0.58	0.0	0.0	0.0	0.0	0.003	0.003	0.006	0.006	9.833584768676758	-0.5680243438720702	0.12629413757324218	2.704620361328125	-3.21197509765625	-0.51116943359375	9.93952819213867	0.7649474304199219	-0.044292730712890624	1.010894775390625	-4.985809326171875	-3.72314453125	10.090362896728514	0.11073182678222655	-0.3800795135498047	3.10516357421875	-4.703521728515625	-1.38092041015625	
146	0.584	0.0	0.0	0.0	0.0	0.003	0.003	0.003	0.003	9.749787710571288	-0.5913678100585937	0.06703764648437499	1.483917236328125	-2.796173095703125	-0.61798095703125	9.704896429443359	0.7032967376708984	0.34715924072265625	0.537872314453125	-5.504608154296875	-3.841400146484375	10.179546908569336	0.2950853546142578	-0.3495534423828125	3.131866455078125	-4.489898681640625	-1.369476318359375	
147	0.588	0.0	0.0	0.0	0.0	0.003	4.3500000000000005	4.662	4.623	9.89463691101074	-0.661398208618164	0.03890577697753906	2.117156982421875	-3.093719482421875	-0.339508056640625	9.87668039855957	0.6691793640136718	0.04129997863769531	0.095367431640625	-5.18798828125	-4.199981689453125	10.162188946533202	0.13467384338378904	-0.4159925384521484	3.040313720703125	-4.764556884765625	-1.094818115234375	
148	0.592	0.0	0.0	0.0	0.0	4.638	4.665	4.671	4.635	9.810241302490233	-0.6961141326904297	-0.006584054565429687	1.773834228515625	-3.055572509765625	-0.55694580078125	9.753977563476562	0.6979097839355468	0.30705636291503907	0.45013427734375	-5.306243896484375	-3.864288330078125	10.190919366455077	0.28969840087890625	-0.3172317199707031	2.61688232421875	-4.619598388671875	-1.789093017578125	
149	0.596	0.0	0.0	0.0	0.0	4.641	4.674	4.674	4.641	9.861716638183593	-0.6542156036376953	0.017357962036132813	2.422332763671875	-3.185272216796875	-0.5035400390625	9.864709390258788	0.6350619903564453	0.017956512451171875	0.141143798828125	-5.218505859375	-4.02069091796875	10.108319409179687	0.13168109130859373	-0.41898529052734373	3.143310546875	-4.550933837890625	-1.049041748046875	
150	0.6	0.0	0.0	0.0	0.0	4.641	4.674	4.671	4.641	9.817423907470703	-0.8637082489013671	-0.08559270935058594	1.476287841796875	-2.895355224609375	-0.362396240234375	9.739013803100585	0.8206126190185546	0.26216508178710934	0.152587890625	-4.962921142578125	-4.26483154296875	9.6396544342041	0.05985504150390625	0.1304839904785156	2.54058837890625	-4.669189453125	-1.922607421875	
151	0.604	0.0	0.0	0.0	0.0	4.644	4.674	4.671	4.644	9.83837317199707	-0.7589619262695312	-0.09277531433105468	2.208709716796875	-3.19671630859375	-0.293731689453125	9.956287603759765	0.5422866760253906	-0.032920272827148434	0.164031982421875	-5.275726318359375	-4.108428955078125	10.19510921936035	0.18076222534179687	-0.4584896179199218	3.047943115234375	-4.528045654296875	-0.949859619140625	
152	0.608	0.0	0.0	0.0	0.0	4.644	4.674	4.674	4.635	9.865307940673828	-0.6625953094482422	-0.06643909606933593	2.666473388671875	-3.73077392578125	-0.9765625	9.60852981262207	0.7565677246093749	0.4291606475830078	0.217437744140625	-4.993438720703125	-4.276275634765625	9.695319622802733	0.007781155395507812	0.18435352783203124	2.7008056640625	-4.72259521484375	-1.697540283203125	
153	0.612	0.0	0.0	0.0	0.0	4.644	4.674	4.674	4.623	9.747393508911133	-0.7906850982666015	-0.011372457885742187	2.18963623046875	-3.284454345703125	-0.698089599609375	9.862315188598632	0.604535919189453	-0.03232172241210937	0.331878662109375	-5.092620849609375	-4.184722900390625	9.658209497070311	0.3327940307617187	0.08559270935058594	2.193450927734375	-4.596710205078125	-1.67083740234375	
154	0.616	0.0	0.0	0.0	0.0	4.647	4.671	4.674	4.626	9.843760125732421	-0.7703343841552734	-0.055066638183593745	1.605987548828125	-2.971649169921875	-0.186920166015625	9.642048635864258	0.7984662536621093	0.3274070770263672	0.423431396484375	-5.252838134765625	-3.955841064453125	9.713874685668944	0.07541735229492187	0.1292868896484375	2.7313232421875	-4.608154296875	-1.674652099609375	
155	0.62	0.0	0.0	0.0	0.0	4.644	4.668	4.671	4.638	9.787496386718749	-0.7697358337402344	0.023343466186523436	2.559661865234375	-3.265380859375	-0.484466552734375	9.69771382446289	0.43993455505371093	0.23642741394042968	0.1220703125	-5.428314208984375	-3.936767578125	9.783905084228515	0.2442085693359375	0.1149216796875	2.262115478515625	-4.5166015625	-1.800537109375	
156	0.624	0.0	0.0	0.0	0.0	4.641	4.674	4.674	4.644	9.737816702270507	-0.651821401977539	0.16998831787109375	2.056121826171875	-3.021240234375	-0.3814697265625	9.642048635864258	0.7278373046875	0.2507926239013672	0.61798095703125	-5.199432373046875	-4.047393798828125	9.767145672607422	0.011971008300781249	0.040701428222656245	2.376556396484375	-4.364013671875	-1.80816650390625	
157	0.628	0.0	0.0	0.0	0.0	4.641	4.674	4.671	4.644	9.737816702270507	-0.7338228088378905	0.05327098693847656	2.132415771484375	-3.18145751953125	-0.339508056640625	9.573215338134766	0.6781576202392577	0.29568390502929687	0.20599365234375	-5.474090576171875	-4.00543212890625	9.637858782958984	0.37828386230468747	0.10654197387695312	2.353668212890625	-4.7454833984375	-1.9073486328125	
158	0.632	0.0	0.0	0.0	0.0	4.632	4.674	4.671	4.644	9.715071786499022	-0.9900023864746094	0.16220716247558592	0.52642822265625	-2.1820068359375	0.019073486328125	9.707290631103515	0.6183025787353515	0.2693476867675781	-0.37384033203125	-5.157470703125	-3.88336181640625	9.809642752075195	0.03890577697753906	0.04608838195800781	2.498626708984375	-4.61578369140625	-1.80816650390625	
159	0.636	0.0	0.0	0.0	0.0	4.644	4.674	4.674	0.006	9.963470208740233	-0.6859387756347656	-0.14185644836425781	1.735687255859375	-2.75421142578125	-0.087738037109375	9.639055883789062	0.6159083770751953	0.3058592620849609	-0.2593994140625	-5.37109375	-4.222869873046875	9.745597857666015	0.2442085693359375	0.11252747802734374	2.6397705078125	-4.474639892578125	-1.67083740234375	
160	0.64	0.0	0.0	0.0	0.0	0.003	0.003	0.003	0.003	9.753379013061522	-0.4686649749755859	0.10953472595214843	1.895904541015625	-2.84576416015625	0.057220458984375	9.52533130493164	0.6512228515624999	0.364517202758789	-0.14495849609375	-5.2337646484375	-4.032135009765625	9.567229833984374	0.20649989318847656	0.13108254089355467	2.300262451171875	-4.558563232421875	-1.7242431640625	
161	0.644	0.0	0.0	0.0	0.0	0.006	0.006	0.003	0.003	9.976638317871092	-0.42018239135742186	-0.1849520782470703	3.47137451171875	-4.08935546875	-0.67138671875	9.775525378417969	0.7314286071777343	0.19871873779296872	0.31280517578125	-5.39398193359375	-3.448486328125	9.935936889648437	0.28969840087890625	-0.11013327636718749	2.471923828125	-4.7149658203125	-1.636505126953125	
162	0.648	0.0	0.0	0.0	0.0	0.003	0.003	0.003	0.006	9.89583401184082	-0.6865373260498047	0.029328970336914062	3.1585693359375	-3.37982177734375	-0.29754638671875	9.759963067626952	0.5728127471923827	0.296881005859375	-0.274658203125	-5.130767822265625	-3.864288330078125	9.880870251464843	0.07721300354003906	0.06344634399414062	2.468109130859375	-4.268646240234375	-1.667022705078125	
163	0.652	0.0	0.0	0.0	0.0	0.009000000000000001	0.003	0.003	0.003	9.94671079711914	-0.5793968017578125	-0.09756371765136718	3.62396240234375	-4.09698486328125	-0.6866455078125	9.672574707031249	0.6398503936767578	0.28490999755859375	0.25177001953125	-5.207061767578125	-3.818511962890625	9.812036953735351	0.20231004028320312	-0.018555062866210937	2.4566650390625	-4.360198974609375	-1.773834228515625	
164	0.656	0.0	0.0	0.0	0.0	0.009000000000000001	0.003	0.003	0.003	9.976638317871092	-0.2693476867675781	-0.15741875915527342	4.688262939453125	-4.398345947265625	-0.522613525390625	9.87668039855957	0.8349778289794921	-0.07302315063476562	0.553131103515625	-5.1116943359375	-3.72314453125	10.180744009399413	0.4800374328613281	-0.5979518646240234	2.7313232421875	-4.199981689453125	-1.316070556640625	
165	0.66	0.0	0.0	0.0	0.0	0.006	0.003	0.003	0.003	9.996989031982421	-0.5979518646240234	-0.11133037719726561	3.41796875	-4.070281982421875	-0.606536865234375	9.85632968444824	0.5374982727050781	0.17896657409667968	0.030517578125	-5.37872314453125	-3.368377685546875	10.079588989257813	0.044292730712890624	-0.03591302490234375	2.69317626953125	-4.52423095703125	-1.636505126953125	
166	0.664	0.0	0.0	0.0	0.0	0.003	0.006	0.006	0.006	9.943119494628906	-0.479438882446289	-0.1274912384033203	4.119873046875	-4.26483154296875	-0.90789794921875	9.929951385498047	0.6811503723144531	0.033518823242187495	0.4730224609375	-5.161285400390625	-3.643035888671875	10.335768566894531	0.26216508178710934	-0.6392518432617187	3.08990478515625	-4.49371337890625	-1.4495849609375	
167	0.668	0.0	0.0	0.0	0.0	0.006	0.003	0.003	0.006	9.911396322631836	-0.4423287567138672	0.029927520751953124	3.582000732421875	-4.1656494140625	-0.759124755859375	9.630676177978515	0.9283516937255859	0.37708676147460934	0.16021728515625	-5.481719970703125	-3.871917724609375	10.012551342773437	0.3333925811767578	-0.3860650177001953	3.2196044921875	-4.49371337890625	-1.3427734375	
168	0.672	0.0	0.0	0.0	0.0	0.003	0.003	0.003	0.003	9.93354268798828	-0.6087257720947266	-0.10354922180175781	3.749847412109375	-3.96728515625	-0.606536865234375	10.008361489868163	0.699705435180664	-0.11552023010253906	0.667572021484375	-5.462646484375	-3.7994384765625	10.347739575195313	0.32142157287597656	-0.5458779785156249	2.95257568359375	-4.2572021484375	-1.026153564453125	
169	0.676	0.0	0.0	0.0	0.0	0.003	0.003	0.003	0.003	9.718064538574218	-0.5237316131591797	0.3286041778564453	3.726959228515625	-4.245758056640625	-0.751495361328125	9.884461553955077	0.7044938385009765	0.2825157958984375	0.202178955078125	-5.138397216796875	-3.9215087890625	10.419565624999999	0.052073886108398436	-0.43933600463867184	2.8228759765625	-4.535675048828125	-0.988006591796875	
170	0.68	0.0	0.0	0.0	0.0	0.003	0.006	0.003	0.003	9.891644158935547	-0.5889736083984375	-0.1304839904785156	3.4332275390625	-3.875732421875	-0.789642333984375	9.815029705810547	0.842758984375	-0.022146365356445312	0.54931640625	-5.229949951171875	-4.459381103515625	10.107720858764647	0.4740519287109375	-0.5476736297607422	3.0364990234375	-4.825592041015625	-1.415252685546875	
171	0.684	0.0	0.0	0.0	0.0	0.003	0.003	0.003	0.006	9.545682019042967	-0.38786066894531246	0.49679684448242184	3.620147705078125	-3.826141357421875	-0.476837158203125	9.699509475708007	0.8212111694335937	0.411802685546875	0.392913818359375	-5.48553466796875	-3.83758544921875	10.092757098388672	0.2765302917480469	-0.25797522888183594	3.24249267578125	-4.85992431640625	-1.07574462890625	
172	0.6880000000000001	0.0	0.0	0.0	0.0	0.006	0.006	0.003	0.006	9.794678991699218	-0.6859387756347656	0.17776947326660156	0.823974609375	-2.4871826171875	-0.141143798828125	10.020931048583984	0.565031591796875	0.08559270935058594	0.072479248046875	-5.352020263671875	-4.08935546875	10.421959826660157	0.047285482788085934	-0.5398924743652344	3.15093994140625	-4.638671875	-1.377105712890625	
173	0.6920000000000001	0.0	0.0	0.0	0.0	0.006	0.003	0.006	0.003	9.565434182739256	-0.5009866973876953	0.5051765502929687	2.43377685546875	-3.139495849609375	-0.38909912109375	9.70369932861328	0.86191259765625	0.3058592620849609	0.064849853515625	-4.947662353515625	-3.932952880859375	10.111910711669921	0.20829554443359374	-0.3758896606445312	2.899169921875	-4.650115966796875	-1.186370849609375	
174	0.6960000000000001	0.0	0.0	0.0	0.0	0.006	0.003	0.006	0.0	9.724648593139648	-0.3315969299316406	0.21009119567871093	-0.0762939453125	-1.9073486328125	0.156402587890625	9.771934075927733	0.7846995941162109	0.13826514587402344	0.179290771484375	-5.2947998046875	-4.100799560546875	9.996390481567381	0.4064157318115234	-0.527322915649414	3.002166748046875	-4.63104248046875	-1.0833740234375	
175	0.7000000000000001	0.0	0.0	0.0	0.0	0.0	0.003	0.003	0.003	9.590573300170897	-0.5105635040283203	0.4537012145996093	2.471923828125	-3.101348876953125	-0.54931640625	9.803058697509766	0.7583633758544921	0.3184288208007812	0.2899169921875	-4.901885986328125	-3.997802734375	9.899425314331054	0.15203180541992187	0.18375497741699218	2.57110595703125	-4.82940673828125	-1.232147216796875	
176	0.704	0.0	0.0	0.0	0.0	0.006	0.003	0.006	0.003	9.855731134033203	-0.3962403747558593	0.08678981018066406	1.308441162109375	-2.613067626953125	-0.431060791015625	9.956287603759765	0.6961141326904297	0.08678981018066406	0.213623046875	-4.96673583984375	-4.253387451171875	10.180145458984374	0.06943184814453125	-0.4171896392822265	2.964019775390625	-4.451751708984375	-1.888275146484375	
177	0.708	0.0	0.0	0.0	0.0	0.006	0.003	0.003	0.006	9.874884747314452	-0.42796354675292964	-0.03411737365722656	2.254486083984375	-3.07464599609375	-0.255584716796875	9.554061724853515	0.8750807067871094	0.354940396118164	0.034332275390625	-5.107879638671875	-3.932952880859375	9.433753091430663	0.4722562774658203	0.24600422058105467	2.79998779296875	-4.528045654296875	-1.44195556640625	
178	0.712	0.0	0.0	0.0	0.0	0.003	0.003	0.003	0.003	9.830592016601562	-0.699106884765625	0.062249243164062495	-0.7171630859375	-1.678466796875	0.308990478515625	9.718064538574218	0.5327098693847656	0.1640028137207031	-0.1068115234375	-5.519866943359375	-3.772735595703125	9.679158761596678	-0.012569558715820313	0.022744915771484374	2.49481201171875	-5.02777099609375	-1.6632080078125	
179	0.716	0.0	0.0	0.0	0.0	0.006	0.003	0.006	0.006	9.988609326171874	-0.6242880828857421	-0.277727392578125	2.681732177734375	-3.33404541015625	-0.438690185546875	9.873687646484374	0.5961562133789062	0.17417817077636719	0.049591064453125	-5.100250244140625	-4.08935546875	9.919177478027343	0.11192892761230468	0.06643909606933593	2.727508544921875	-4.63104248046875	-1.38092041015625	
180	0.72	0.0	0.0	0.0	0.0	0.006	0.003	0.003	0.003	9.885658654785155	-0.3232172241210937	-0.12150573425292968	6.0272216796875	-5.580902099609375	-1.415252685546875	9.580996493530273	0.6590040069580078	0.06763619689941405	0.087738037109375	-5.199432373046875	-3.95965576171875	9.473855969238281	0.08559270935058594	-0.012569558715820313	2.4261474609375	-4.688262939453125	-1.972198486328125	
181	0.724	0.0	0.0	0.0	0.0	0.003	0.003	0.003	0.006	9.85692823486328	-0.5051765502929687	-0.14784195251464843	3.54766845703125	-4.032135009765625	-0.263214111328125	9.524134204101562	0.6679822631835937	0.3220201232910156	0.19073486328125	-5.07354736328125	-3.2806396484375	9.730035546875	0.3238157745361328	0.14185644836425781	2.51007080078125	-4.5928955078125	-1.59454345703125	
182	0.728	0.0	0.0	0.0	0.0	0.006	0.003	0.003	0.003	9.974842666625976	-0.7751227874755859	-0.3381809844970703	5.0506591796875	-5.31768798828125	-1.1138916015625	9.879673150634765	0.5458779785156249	-0.09038111267089843	0.4425048828125	-5.626678466796875	-4.2724609375	9.928754284667969	-0.26755203552246093	-0.10235212097167969	2.5482177734375	-5.039215087890625	-1.743316650390625	
183	0.732	0.0	0.0	0.0	0.0	0.003	0.006	0.003	0.006	9.909600671386718	-0.5309142181396485	-0.2041056915283203	4.535675048828125	-4.7760009765625	-0.9002685546875	9.612719665527344	0.5285200164794922	0.1975216369628906	-0.1983642578125	-4.772186279296875	-3.742218017578125	9.809642752075195	0.31543606872558594	-0.08259995727539061	2.368927001953125	-4.383087158203125	-2.11334228515625	
184	0.736	0.0	0.0	0.0	0.0	0.006	0.003	0.003	0.003	9.781510882568359	-0.6147112762451171	0.0005985504150390625	4.5166015625	-4.726409912109375	-0.530242919921875	9.559448678588867	0.7493851196289062	0.22206220397949217	0.0152587890625	-5.4779052734375	-3.65447998046875	9.517550149536133	0.08200140686035155	0.06883329772949218	2.384185791015625	-4.886627197265625	-1.491546630859375	
185	0.74	0.0	0.0	0.0	0.0	0.006	0.003	0.003	0.003	9.847949978637695	-0.8104372619628906	0.15203180541992187	4.15802001953125	-4.337310791015625	-0.873565673828125	9.739612353515625	0.3687070556640625	0.2603694305419922	-0.06866455078125	-5.18798828125	-3.780364990234375	9.918578927612304	0.07900865478515624	0.14245499877929688	2.544403076171875	-4.7149658203125	-1.83868408203125	
186	0.744	0.0	0.0	0.0	0.0	0.006	0.003	0.003	0.006	9.943718045043944	-0.7643488800048828	-0.19931728820800781	3.452301025390625	-3.86810302734375	-0.8544921875	9.813832604980469	0.5524620330810547	0.02454056701660156	0.18310546875	-5.283355712890625	-3.940582275390625	10.146028085327147	0.07302315063476562	-0.3489548919677734	2.567291259765625	-4.344940185546875	-1.407623291015625	
187	0.748	0.0	0.0	0.0	0.0	0.006	0.003	0.003	0.003	9.855132583618163	-0.5686228942871093	0.08918401184082031	3.83758544921875	-3.86810302734375	-0.377655029296875	9.704297879028319	0.7601590270996094	0.13826514587402344	-0.17547607421875	-5.07354736328125	-3.6773681640625	9.588777648925781	0.3477577911376953	0.05746083984375	2.50244140625	-4.26483154296875	-1.6326904296875	
188	0.752	0.0	0.0	0.0	0.0	0.003	0.003	0.003	0.003	9.861118087768554	-0.82360537109375	-0.15083470458984374	1.983642578125	-3.314971923828125	-0.209808349609375	9.730035546875	0.4381389038085937	0.15682020874023436	0.1678466796875	-5.706787109375	-3.4942626953125	9.867702142333984	0.1406593475341797	0.03950432739257812	2.655029296875	-4.863739013671875	-0.9918212890625	
189	0.756	0.0	0.0	0.0	0.0	0.009000000000000001	0.003	0.003	0.003	10.056245523071288	-0.7092822418212891	-0.24121581726074218	4.764556884765625	-4.444122314453125	-0.904083251953125	10.03050785522461	0.5961562133789062	-0.15083470458984374	0.278472900390625	-5.2947998046875	-3.875732421875	10.575188732910156	-0.05746083984375	-0.8116343627929687	2.9754638671875	-4.291534423828125	-1.71661376953125	
190	0.76	0.0	0.0	0.0	0.0	0.003	0.003	0.003	0.006	9.782707983398437	-0.3950432739257812	0.2454056701660156	4.302978515625	-4.192352294921875	-0.63323974609375	9.622296472167967	0.5440823272705078	0.05087678527832031	-0.0152587890625	-5.30242919921875	-3.665924072265625	9.771934075927733	0.3058592620849609	-0.09756371765136718	2.880096435546875	-4.6234130859375	-1.438140869140625	
191	0.764	0.0	0.0	0.0	0.0	0.006	0.003	0.003	0.003	9.839570272827148	-0.5662286926269531	-0.028131869506835935	4.810333251953125	-4.848480224609375	-0.484466552734375	9.680954412841796	0.7637503295898437	0.239420166015625	0.286102294921875	-5.06591796875	-3.5400390625	10.119691867065429	0.0939724151611328	-0.41958384094238277	2.864837646484375	-4.405975341796875	-1.316070556640625	
192	0.768	0.0	0.0	0.0	0.0	0.003	0.003	0.003	0.006	9.810241302490233	-0.39264907226562495	0.2651578338623047	4.848480224609375	-4.425048828125	-0.896453857421875	9.996390481567381	0.4961982940673828	0.16460136413574217	-0.05340576171875	-5.321502685546875	-3.566741943359375	10.255562811279296	0.34536358947753903	-0.43514615173339843	3.009796142578125	-4.642486572265625	-1.514434814453125	
193	0.772	0.0	0.0	0.0	0.0	0.003	0.003	0.003	0.006	9.962273107910155	-0.6236895324707031	-0.15682020874023436	2.25067138671875	-3.01361083984375	-1.834869384765625	9.783306533813477	0.7631517791748046	0.06284779357910156	0.45013427734375	-5.809783935546875	-3.704071044921875	10.307038146972655	0.005985504150390624	-0.5686228942871093	2.788543701171875	-4.245758056640625	-1.62506103515625	
194	0.776	0.0	0.0	0.0	0.0	0.006	0.003	0.003	0.003	9.612121115112304	-0.28431144714355466	0.48183308410644526	4.215240478515625	-4.146575927734375	-0.476837158203125	9.635464581298828	0.6536170532226562	0.42377369384765623	-0.102996826171875	-5.4168701171875	-3.734588623046875	9.929352835083007	0.5255272644042969	-0.1592144104003906	2.960205078125	-4.50897216796875	-1.384735107421875	
195	0.78	0.0	0.0	0.0	0.0	0.003	0.003	0.003	0.003	9.879074600219726	-0.4644751220703125	0.10893617553710937	2.033233642578125	-3.200531005859375	-0.26702880859375	10.01733974609375	0.8259995727539062	-0.12569558715820311	0.782012939453125	-5.31768798828125	-4.161834716796875	10.450690246582031	-0.02693476867675781	-0.6314706878662109	2.99835205078125	-4.581451416015625	-1.42669677734375	
196	0.784	0.0	0.0	0.0	0.0	0.006	0.003	4.644	4.626	9.90181951599121	-0.43993455505371093	0.08978256225585937	4.863739013671875	-4.669189453125	-1.071929931640625	9.90900212097168	0.5321113189697265	0.2136824981689453	0.087738037109375	-5.733489990234375	-3.7689208984375	10.364498986816406	0.27353753967285155	-0.47105917663574215	2.95257568359375	-4.5166015625	-1.41143798828125	
197	0.788	0.0	0.0	0.0	0.0	4.647	4.665	4.671	4.638	9.817423907470703	-0.45190556335449217	0.19213468322753904	2.73895263671875	-3.27301025390625	-0.637054443359375	9.792284790039062	0.9044096771240234	0.08140285644531249	0.61798095703125	-5.30242919921875	-3.871917724609375	9.97783541870117	0.22565350646972654	-0.31543606872558594	2.93731689453125	-4.482269287109375	-1.171112060546875	
198	0.792	0.0	0.0	0.0	0.0	4.644	4.674	4.674	4.641	9.752780462646484	-0.6039373687744141	0.14784195251464843	1.6632080078125	-3.192901611328125	-0.514984130859375	9.681552963256836	0.7990648040771484	0.28790274963378903	0.247955322265625	-5.420684814453125	-3.814697265625	10.181941110229491	0.4213794921875	-0.35314474487304687	3.15093994140625	-4.840850830078125	-1.209259033203125	
199	0.796	0.0	0.0	0.0	0.0	4.641	4.674	4.674	4.644	10.008960040283203	-0.7056909393310546	-0.13168109130859373	2.75421142578125	-3.41033935546875	-0.38909912109375	10.137049829101562	0.6117185241699218	-0.24061726684570311	0.6561279296875	-4.8065185546875	-3.86810302734375	10.347141024780273	0.025737667846679687	-0.49380409240722656	2.964019775390625	-4.58526611328125	-1.190185546875	
200	0.8	0.0	0.0	0.0	0.0	4.632	4.674	4.671	4.647	9.842563024902343	-0.7003039855957031	0.005985504150390624	2.0904541015625	-3.047943115234375	-0.667572021484375	9.697115274047851	0.919971987915039	0.1640028137207031	0.644683837890625	-5.298614501953125	-4.0130615234375	9.706093530273437	0.09995791931152344	0.1352723937988281	2.872467041015625	-4.596710205078125	-1.85394287109375	
201	0.804	0.0	0.0	0.0	0.0	4.647	4.674	4.674	4.6290000000000004	9.872490545654296	-0.3746925598144531	0.10354922180175781	3.345489501953125	-3.948211669921875	-0.67138671875	9.625887774658203	0.6691793640136718	0.1897404815673828	0.28228759765625	-5.382537841796875	-4.14276123046875	9.983222372436522	0.3315969299316406	-0.3435679382324219	3.078460693359375	-4.8370361328125	-0.797271728515625	
202	0.808	0.0	0.0	0.0	0.0	4.647	4.674	4.674	4.626	9.94671079711914	-0.8553285430908203	-0.0939724151611328	2.475738525390625	-3.719329833984375	-0.81634521484375	9.952696301269532	0.7918821990966797	-0.02154781494140625	0.5035400390625	-5.401611328125	-3.910064697265625	9.875483297729492	-0.005985504150390624	0.08559270935058594	2.67791748046875	-4.657745361328125	-1.766204833984375	
203	0.812	0.0	0.0	0.0	0.0	4.65	4.671	4.674	4.626	9.861716638183593	-0.8810662109374999	-0.06045359191894531	2.05230712890625	-3.429412841796875	-0.514984130859375	9.843760125732421	0.5734112976074218	-0.06883329772949218	0.19073486328125	-5.046844482421875	-4.306793212890625	9.827000714111328	0.24001871643066405	0.01915361328125	2.307891845703125	-4.50897216796875	-1.80816650390625	
204	0.8160000000000001	0.0	0.0	0.0	0.0	4.647	4.668	4.674	4.641	9.685742816162108	-0.7272387542724609	0.2184709014892578	2.719879150390625	-3.692626953125	-0.568389892578125	9.384073406982422	0.8170213165283202	0.5470750793457031	-0.1678466796875	-5.2490234375	-4.299163818359375	9.498995086669922	0.22026655273437498	0.23822306518554687	2.635955810546875	-4.7149658203125	-1.68609619140625	
205	0.8200000000000001	0.0	0.0	0.0	0.0	4.647	4.674	4.674	4.638	9.809044201660155	-0.7595604766845703	0.028131869506835935	2.307891845703125	-3.574371337890625	-0.49591064453125	9.892841259765625	0.6296750366210937	-0.0005985504150390625	0.4119873046875	-5.62286376953125	-3.932952880859375	9.764751470947266	0.3363853332519531	0.06643909606933593	2.23541259765625	-4.974365234375	-1.70135498046875	
206	0.8240000000000001	0.0	0.0	0.0	0.0	4.644	4.674	0.003	0.003	9.887454306030273	-0.8128314636230468	-0.0005985504150390625	1.697540283203125	-3.73077392578125	-0.835418701171875	9.769539874267577	0.6554127044677734	0.2645592834472656	-0.179290771484375	-5.054473876953125	-4.1961669921875	9.92217023010254	-0.00239420166015625	0.00239420166015625	2.452850341796875	-4.46319580078125	-1.651763916015625	
207	0.8280000000000001	0.0	0.0	0.0	0.0	0.003	0.003	0.003	0.003	9.712079034423828	-0.6769605194091797	0.13407529296874998	2.61688232421875	-3.566741943359375	-0.5950927734375	9.542090716552734	0.5925649108886718	0.36810850524902344	0.125885009765625	-5.146026611328125	-3.841400146484375	9.517550149536133	0.3429693878173828	0.24959552307128904	2.5482177734375	-4.6844482421875	-1.728057861328125	
208	0.8320000000000001	0.0	0.0	0.0	0.0	0.003	0.003	0.003	0.003	9.725845693969726	-0.6572083557128906	0.22685060729980466	1.491546630859375	-2.552032470703125	0.247955322265625	9.631873278808593	0.7625532287597656	0.2771288421630859	0.179290771484375	-5.4473876953125	-3.72314453125	9.627683425903319	0.18854338073730467	0.10414777221679687	2.376556396484375	-4.425048828125	-1.64794921875	
209	0.836	0.0	0.0	0.0	0.0	0.003	0.003	0.003	0.003	9.909600671386718	-0.9558850128173828	-0.11731588134765625	1.857757568359375	-2.9449462890625	-0.4730224609375	9.860519537353515	0.46806642456054687	0.09038111267089843	-0.03814697265625	-5.33294677734375	-3.662109375	9.941922393798828	0.12569558715820311	0.012569558715820313	2.3651123046875	-4.718780517578125	-1.82342529296875	
210	0.84	0.0	0.0	0.0	0.0	0.003	0.006	0.003	0.003	9.842563024902343	-0.5596446380615234	0.05027823486328125	3.11279296875	-3.421783447265625	-0.518798828125	9.542689266967773	0.7996633544921875	0.3812766143798828	-0.041961669921875	-5.069732666015625	-4.184722900390625	9.638457333374022	0.11073182678222655	0.24480711975097655	2.391815185546875	-4.299163818359375	-1.73187255859375	
211	0.844	0.0	0.0	0.0	0.0	0.003	0.003	0.003	0.0	9.727641345214844	-0.46028526916503903	0.04129997863769531	4.337310791015625	-4.756927490234375	-0.701904296875	9.5384994140625	0.5859808563232421	0.31543606872558594	0.171661376953125	-5.405426025390625	-3.570556640625	9.698910925292969	0.3477577911376953	0.017357962036132813	2.414703369140625	-4.486083984375	-1.53350830078125	
212	0.848	0.0	0.0	0.0	0.0	0.003	0.003	0.003	0.003	9.96586441040039	-0.7769184387207031	-0.13287819213867186	3.15093994140625	-3.726959228515625	-0.202178955078125	9.890447058105469	0.6446387969970703	0.1083376251220703	0.133514404296875	-5.367279052734375	-3.978729248046875	9.920973129272461	0.05566518859863281	0.03411737365722656	2.498626708984375	-4.425048828125	-1.575469970703125	
213	0.852	0.0	0.0	0.0	0.0	0.0	0.003	0.006	0.003	10.025120901489258	-0.5542576843261718	-0.15741875915527342	4.428863525390625	-4.180908203125	-0.850677490234375	9.680954412841796	0.37409400939941406	0.21188684692382811	0.05340576171875	-5.126953125	-3.99017333984375	10.065822329711914	0.0047884033203125	-0.1580173095703125	2.597808837890625	-4.314422607421875	-1.857757568359375	
214	0.856	0.0	0.0	0.0	0.0	0.009000000000000001	0.003	0.003	0.003	9.815029705810547	-0.35194764404296874	0.04908113403320312	4.177093505859375	-4.21905517578125	-0.469207763671875	9.622296472167967	0.8732850555419921	0.1466448516845703	0.141143798828125	-5.336761474609375	-3.910064697265625	10.08078609008789	0.5237316131591797	-0.47704468078613277	3.0670166015625	-4.261016845703125	-1.35040283203125	
215	0.86	0.0	0.0	0.0	0.0	0.003	0.003	0.003	0.003	9.949703549194336	-0.5422866760253906	-0.05386953735351562	4.7760009765625	-4.82940673828125	-0.789642333984375	9.836577520751952	0.6194996795654296	0.13287819213867186	0.17547607421875	-5.53131103515625	-3.23486328125	9.935936889648437	0.001197100830078125	-0.0939724151611328	2.361297607421875	-4.7760009765625	-1.491546630859375	
216	0.864	0.0	0.0	0.0	0.0	0.003	0.003	0.003	0.006	9.980828170776366	-0.824802471923828	-0.16340426330566404	3.80706787109375	-3.89862060546875	-0.70953369140625	9.89463691101074	0.6171054779052734	-0.02454056701660156	0.0762939453125	-5.123138427734375	-3.780364990234375	10.453084448242187	0.2603694305419922	-0.5787982513427734	2.9754638671875	-4.207611083984375	-1.705169677734375	
217	0.868	0.0	0.0	0.0	0.0	0.0	0.003	0.003	0.006	9.9215716796875	-0.6428431457519531	-0.04249707946777344	4.596710205078125	-4.680633544921875	-0.881195068359375	9.710881933593749	0.6093243225097655	0.2555810272216797	0.179290771484375	-5.21087646484375	-3.490447998046875	9.743203656005859	0.07003039855957031	-0.03172317199707031	3.22723388671875	-4.650115966796875	-1.77764892578125	
218	0.872	0.0	0.0	0.0	0.0	-0.006	0.003	0.003	0.009000000000000001	9.822212310791015	-0.49739539489746093	0.06045359191894531	3.936767578125	-4.230499267578125	-0.49591064453125	9.85692823486328	0.8505401397705078	0.059256491088867186	0.644683837890625	-5.48553466796875	-3.70025634765625	10.162188946533202	0.5111620544433594	-0.4955997436523437	2.8076171875	-4.40216064453125	-1.19781494140625	
219	0.876	0.0	0.0	0.0	0.0	0.003	0.003	0.006	0.006	10.034099157714843	-0.7146691955566405	-0.1562216583251953	6.43157958984375	-5.1727294921875	-1.407623291015625	9.982025271606444	0.4369418029785156	0.08439560852050781	0.194549560546875	-5.18798828125	-3.65447998046875	10.401010562133788	0.03531447448730469	-0.45190556335449217	2.96783447265625	-4.81414794921875	-0.91552734375	
220	0.88	0.0	0.0	0.0	0.0	0.003	0.006	0.003	0.003	9.775525378417969	-0.8080430603027343	0.1610100616455078	3.4027099609375	-3.658294677734375	-0.621795654296875	9.943119494628906	0.7613561279296874	0.0143652099609375	0.804901123046875	-5.496978759765625	-4.02069091796875	10.24000050048828	0.3321954803466797	-0.5039794494628906	2.887725830078125	-4.123687744140625	-1.483917236328125	
221	0.884	0.0	0.0	0.0	0.0	0.009000000000000001	0.003	0.003	0.003	9.497797985839844	-0.430956298828125	0.5632359405517577	0.98419189453125	-2.3956298828125	0.064849853515625	9.565434182739256	0.8667010009765624	0.42377369384765623	0.110626220703125	-5.252838134765625	-3.94439697265625	10.024522351074218	0.30526071166992186	-0.29448680419921874	3.070831298828125	-4.81414794921875	-0.812530517578125	
222	0.888	0.0	0.0	0.0	0.0	0.003	0.003	0.006	0.003	9.783306533813477	-0.7619546783447265	0.2041056915283203	2.452850341796875	-3.353118896484375	-0.316619873046875	10.056245523071288	0.6296750366210937	0.020350714111328123	0.49591064453125	-5.115509033203125	-3.818511962890625	10.232219345092773	0.09337386474609374	-0.5291185668945312	3.0059814453125	-4.638671875	-1.2359619140625	
223	0.892	0.0	0.0	0.0	0.0	0.006	0.006	0.003	0.003	9.728838446044922	-0.5542576843261718	0.2472013214111328	1.209259033203125	-2.140045166015625	-0.38909912109375	9.834183319091796	0.6751648681640625	0.35793314819335936	0.1983642578125	-5.107879638671875	-4.03594970703125	10.387842453002929	0.1083376251220703	-0.48243163452148435	2.925872802734375	-4.79888916015625	-1.15966796875	
224	0.896	0.0	0.0	0.0	0.0	0.006	0.003	0.003	0.006	9.67197615661621	-0.4800374328613281	0.39145197143554683	0.492095947265625	-2.47955322265625	-0.156402587890625	9.672574707031249	0.7463923675537109	0.23523031311035156	0.09918212890625	-5.092620849609375	-4.283905029296875	9.918578927612304	0.2214636535644531	-0.421978042602539	3.04412841796875	-4.70733642578125	-1.644134521484375	
225	0.9	0.0	0.0	0.0	0.0	0.003	0.006	0.003	0.003	9.667786303710937	-0.5333084197998047	0.21727380065917967	0.518798828125	-2.15911865234375	0.0457763671875	9.727641345214844	0.6039373687744141	0.3752911102294922	0.019073486328125	-5.16510009765625	-3.513336181640625	9.622296472167967	0.35134909362792965	0.11791443176269531	2.796173095703125	-4.673004150390625	-1.186370849609375	
226	0.904	0.0	0.0	0.0	0.0	0.009000000000000001	0.003	0.003	0.003	10.007164389038085	-0.7230489013671875	-0.32142157287597656	1.262664794921875	-2.838134765625	0.118255615234375	9.97903251953125	0.6428431457519531	0.008379705810546874	0.019073486328125	-4.909515380859375	-4.131317138671875	10.302848294067383	-0.09576806640624999	-0.526125814819336	3.231048583984375	-4.63104248046875	-1.617431640625	
227	0.908	0.0	0.0	0.0	0.0	0.003	0.006	0.003	0.003	9.735422500610351	-0.3321954803466797	0.10773907470703124	1.979827880859375	-3.21197509765625	-0.331878662109375	9.632471829223633	0.5524620330810547	0.3016694091796875	0.255584716796875	-5.13458251953125	-4.238128662109375	9.6917283203125	0.31483751831054685	0.08259995727539061	2.70843505859375	-4.497528076171875	-1.628875732421875	
228	0.912	0.0	0.0	0.0	0.0	0.003	0.006	0.003	0.006	9.797073193359374	-0.3525461944580078	-0.10175357055664062	2.941131591796875	-3.94439697265625	-0.49591064453125	9.765948571777344	0.8954314208984374	0.09516951599121093	0.537872314453125	-5.3558349609375	-4.116058349609375	9.979631069946288	0.15023615417480468	-0.34536358947753903	2.498626708984375	-4.756927490234375	-1.796722412109375	
229	0.916	0.0	0.0	0.0	0.0	0.006	0.003	0.003	0.003	9.834183319091796	-0.7326257080078125	-0.04608838195800781	3.505706787109375	-4.154205322265625	-0.8087158203125	9.803657247924804	0.46028526916503903	0.2472013214111328	0.080108642578125	-5.1422119140625	-4.00543212890625	9.93354268798828	0.2166752502441406	0.05027823486328125	2.6702880859375	-4.657745361328125	-1.583099365234375	
230	0.92	0.0	0.0	0.0	0.0	0.003	0.003	0.003	0.006	9.778518130493163	-0.5207388610839844	0.02454056701660156	3.0364990234375	-3.643035888671875	-0.759124755859375	9.830592016601562	0.8128314636230468	0.040102877807617184	0.240325927734375	-5.3558349609375	-4.276275634765625	9.80066449584961	-0.11372457885742186	-0.04548983154296875	2.55584716796875	-4.756927490234375	-2.048492431640625	
231	0.924	0.0	0.0	0.0	0.0	0.006	0.003	0.003	0.003	9.672574707031249	-0.6530185028076172	0.17896657409667968	2.315521240234375	-3.2958984375	-0.2288818359375	9.4864255279541	0.7302315063476562	0.5057751007080078	0.087738037109375	-5.2032470703125	-4.11224365234375	9.546280569458007	0.4848258361816406	0.1514332550048828	2.643585205078125	-4.825592041015625	-1.54876708984375	
232	0.928	0.0	0.0	0.0	0.0	0.003	0.003	0.003	0.006	9.780912332153319	-0.6218938812255859	0.1197100830078125	1.60980224609375	-2.902984619140625	-0.400543212890625	9.700108026123047	0.5482721801757812	0.16819266662597654	0.0457763671875	-5.13458251953125	-3.7689208984375	9.734823950195311	-0.012569558715820313	0.040102877807617184	2.34222412109375	-4.703521728515625	-1.560211181640625	
233	0.932	0.0	0.0	0.0	0.0	0.003	0.003	0.003	0.006	9.861716638183593	-0.7577648254394531	-0.08020575561523437	1.94549560546875	-3.1280517578125	-0.270843505859375	9.764152920532226	0.5787982513427734	0.3130418670654297	0.034332275390625	-5.039215087890625	-4.001617431640625	9.920374578857421	-0.032920272827148434	0.016160861206054686	2.223968505859375	-4.32586669921875	-2.12860107421875	
234	0.936	0.0	0.0	0.0	0.0	0.003	0.003	0.003	0.003	9.948506448364258	-0.7056909393310546	-0.3082534637451172	3.021240234375	-3.875732421875	-0.244140625	9.564237081909178	0.642244595336914	0.1131260284423828	0.186920166015625	-5.245208740234375	-3.887176513671875	9.504980590820312	0.2519897247314453	0.08200140686035155	2.197265625	-4.5318603515625	-1.53350830078125	
235	0.9400000000000001	0.0	0.0	0.0	0.0	0.006	0.003	0.003	0.003	9.76774422302246	-0.55545478515625	0.062249243164062495	3.147125244140625	-3.597259521484375	-0.091552734375	9.554061724853515	0.6637924102783203	0.3082534637451172	0.06103515625	-5.451202392578125	-3.955841064453125	9.619902270507811	0.16879121704101563	0.10773907470703124	2.391815185546875	-4.33349609375	-1.71661376953125	
236	0.9440000000000001	0.0	0.0	0.0	0.0	0.003	0.006	0.003	0.006	9.976638317871092	-0.8547299926757812	-0.2154781494140625	3.10516357421875	-4.016876220703125	-0.377655029296875	9.813832604980469	0.41359833679199215	0.06284779357910156	0.30517578125	-5.359649658203125	-3.955841064453125	10.133458526611328	0.16759411621093748	-0.1406593475341797	2.468109130859375	-4.7454833984375	-1.194000244140625	
237	0.9480000000000001	0.0	0.0	0.0	0.0	0.003	0.003	0.003	4.617	9.713874685668944	-0.565031591796875	0.1771709228515625	4.741668701171875	-4.2266845703125	-0.9765625	9.578003741455078	0.7062894897460937	0.3298012786865234	0.141143798828125	-4.901885986328125	-4.1351318359375	9.725247143554688	0.10474632263183593	-0.003591302490234375	2.41851806640625	-4.405975341796875	-1.983642578125	
238	0.9520000000000001	0.0	0.0	0.0	0.0	4.641	4.668	4.671	4.626	9.76235726928711	-0.5195417602539062	0.03411737365722656	2.899169921875	-3.83758544921875	-0.18310546875	9.62109937133789	0.6410474945068358	0.296881005859375	0.11444091796875	-5.764007568359375	-3.635406494140625	9.757568865966796	0.5087678527832031	-0.029328970336914062	2.666473388671875	-4.604339599609375	-0.9613037109375	
239	0.9560000000000001	0.0	0.0	0.0	0.0	4.644	4.665	4.674	4.635	10.026916552734374	-0.6374561920166015	-0.24061726684570311	4.192352294921875	-4.344940185546875	-0.438690185546875	9.67137760620117	0.6027402679443359	0.39803602600097654	-0.011444091796875	-5.077362060546875	-4.119873046875	9.913191973876952	-0.08200140686035155	0.03950432739257812	2.933502197265625	-4.35638427734375	-1.2664794921875	
240	0.96	0.0	0.0	0.0	0.0	4.644	4.674	4.674	4.641	9.926958633422851	-0.7026981872558593	-0.10354922180175781	2.864837646484375	-3.337860107421875	-0.6256103515625	9.865307940673828	0.5129577056884765	0.1640028137207031	-0.244140625	-5.489349365234375	-3.749847412109375	10.044873065185547	0.3238157745361328	-0.16639701538085935	2.681732177734375	-4.6539306640625	-1.529693603515625	
241	0.964	0.0	0.0	0.0	0.0	4.641	4.671	4.671	4.644	9.88386300354004	-0.3842693664550781	-0.023343466186523436	4.093170166015625	-4.337310791015625	-0.759124755859375	9.74799205932617	0.8996212738037109	0.14125789794921875	0.25177001953125	-5.268096923828125	-3.589630126953125	10.096348400878906	0.15083470458984374	-0.5584475372314452	2.84576416015625	-4.06646728515625	-1.384735107421875	
242	0.968	0.0	0.0	0.0	0.0	4.635	4.674	4.668	4.647	9.792284790039062	-0.14903905334472656	0.2998737579345703	4.795074462890625	-4.978179931640625	-0.904083251953125	9.80665	0.5051765502929687	0.2232593048095703	-0.06103515625	-5.496978759765625	-3.72314453125	9.97184991455078	0.3842693664550781	-0.013766659545898436	2.61688232421875	-4.43267822265625	-1.28173828125	
243	0.972	0.0	0.0	0.0	0.0	4.647	4.674	4.674	4.632	10.007762939453125	-0.49679684448242184	-0.14724340209960937	4.09698486328125	-4.0435791015625	-0.675201416015625	10.000580334472655	0.6883329772949218	-0.06344634399414062	0.4119873046875	-4.9285888671875	-3.940582275390625	10.480617767333984	-0.06105214233398437	-0.70868369140625	3.0364990234375	-4.375457763671875	-1.373291015625	
244	0.976	0.0	0.0	0.0	0.0	4.647	4.674	4.6770000000000005	4.626	9.820416659545899	-0.1693897674560547	0.18136077575683593	5.1727294921875	-4.604339599609375	-1.003265380859375	9.719261639404296	0.7870937957763672	0.24839842224121092	0.11444091796875	-5.329132080078125	-3.631591796875	10.134655627441406	0.4171896392822265	-0.4159925384521484	3.055572509765625	-4.573822021484375	-1.499176025390625	
245	0.98	0.0	0.0	0.0	0.0	4.644	4.671	4.671	4.6290000000000004	9.920374578857421	-0.34177228698730466	-0.0383072265625	3.879547119140625	-4.184722900390625	-0.46539306640625	9.816226806640625	0.7841010437011718	0.052073886108398436	0.244140625	-5.2947998046875	-3.45611572265625	10.207678778076172	0.17657237243652343	-0.5865794067382812	2.864837646484375	-4.61578369140625	-1.163482666015625	
246	0.984	0.0	0.0	0.0	0.0	4.647	0.003	0.003	0.006	9.898228213500976	-0.11851298217773437	0.06763619689941405	6.099700927734375	-5.47027587890625	-0.965118408203125	9.923367330932617	0.729034405517578	0.10354922180175781	0.3509521484375	-5.523681640625	-3.5552978515625	10.391433755493164	0.2645592834472656	-0.5404910247802734	3.162384033203125	-4.467010498046875	-1.201629638671875	
247	0.988	0.0	0.0	0.0	0.0	0.003	0.003	0.003	0.003	9.943119494628906	-0.5159504577636719	-0.14006079711914063	4.055023193359375	-3.940582275390625	-1.18255615234375	9.993996279907225	0.6572083557128906	-0.15562310791015624	0.762939453125	-5.527496337890625	-4.039764404296875	10.19510921936035	0.21068974609375	-0.41838674011230464	3.185272216796875	-4.32586669921875	-1.2054443359375	
248	0.992	0.0	0.0	0.0	0.0	0.006	0.003	0.003	0.006	9.762955819702148	-0.08678981018066406	0.2472013214111328	5.340576171875	-5.115509033203125	-1.178741455078125	9.668384854125977	0.8589198455810546	0.3184288208007812	-0.030517578125	-5.218505859375	-3.509521484375	10.070012182617187	0.3956418243408203	-0.4495113616943359	3.131866455078125	-4.6234130859375	-1.308441162109375	
249	0.996	0.0	0.0	0.0	0.0	0.003	0.003	0.003	0.003	9.864709390258788	-0.5572504364013672	0.06643909606933593	3.04412841796875	-4.032135009765625	-0.637054443359375	10.01075569152832	0.670975015258789	-0.10414777221679687	0.61798095703125	-5.37109375	-4.150390625	10.30404539489746	0.27293898925781246	-0.6314706878662109	3.162384033203125	-4.688262939453125	-1.079559326171875	
250	1.0	0.0	0.0	0.0	0.0	0.003	0.003	0.003	0.003	9.820416659545899	-0.3345896820068359	0.20709844360351562	1.30462646484375	-2.460479736328125	-0.583648681640625	9.83897172241211	0.7487865692138671	0.24779987182617186	0.408172607421875	-5.2032470703125	-3.9825439453125	10.369287390136718	0.14544775085449219	-0.6488286499023437	2.471923828125	-4.596710205078125	-1.68609619140625	
251	1.004	0.0	0.0	0.0	0.0	0.006	0.006	0.003	0.006	9.712677584838866	-0.5129577056884765	0.2663549346923828	2.269744873046875	-3.177642822265625	-0.34332275390625	9.82460651245117	0.8098387115478515	0.0430956298828125	0.476837158203125	-5.24139404296875	-4.02069091796875	10.102333905029296	0.39264907226562495	-0.613514175415039	3.208160400390625	-4.795074462890625	-1.068115234375	
252	1.008	0.0	0.0	0.0	0.0	0.003	0.003	0.003	0.003	9.7928833404541	-0.6967126831054687	0.09217676391601562	1.15203857421875	-2.6092529296875	-0.35858154296875	9.676166009521484	0.8690952026367187	0.2567781280517578	0.335693359375	-5.245208740234375	-3.856658935546875	9.69771382446289	0.1867477294921875	0.14245499877929688	2.8228759765625	-4.673004150390625	-1.65557861328125	
253	1.012	0.0	0.0	0.0	0.0	0.003	0.003	0.003	0.003	9.86291373901367	-0.5201403106689453	0.04369418029785156	2.223968505859375	-3.204345703125	-0.8392333984375	10.062829577636718	0.6236895324707031	-0.14784195251464843	-0.244140625	-5.340576171875	-3.96728515625	10.35492218017578	0.19931728820800781	-0.6865373260498047	3.276824951171875	-4.589080810546875	-1.354217529296875	
254	1.016	0.0	0.0	0.0	0.0	0.009000000000000001	0.003	0.003	0.006	9.821613760375977	-0.7793126403808593	0.0430956298828125	1.087188720703125	-2.429962158203125	-0.186920166015625	9.670180505371093	0.8780734588623046	0.1897404815673828	0.408172607421875	-5.157470703125	-4.0283203125	9.728239895629882	0.17956512451171874	0.0526724365234375	2.86865234375	-4.718780517578125	-1.65557861328125	
255	1.02	0.0	0.0	0.0	0.0	0.003	0.003	0.006	0.003	9.84435867614746	-0.5404910247802734	-0.16879121704101563	2.26593017578125	-3.41796875	-0.400543212890625	9.562441430664062	0.575206948852539	0.29867665710449215	-0.02288818359375	-5.558013916015625	-3.772735595703125	9.514557397460937	0.24061726684570311	0.076614453125	2.422332763671875	-4.57000732421875	-1.74713134765625	
256	1.024	0.0	0.0	0.0	0.0	0.003	0.003	0.003	0.003	9.872490545654296	-0.7637503295898437	-0.027533319091796873	0.9918212890625	-2.681732177734375	-0.38909912109375	9.805452899169921	0.7619546783447265	0.19033903198242186	0.339508056640625	-5.31005859375	-4.062652587890625	9.919177478027343	0.0909796630859375	-0.076614453125	2.89154052734375	-4.8370361328125	-1.293182373046875	
257	1.028	0.0	0.0	0.0	0.0	0.003	0.003	0.003	0.006	9.97125136413574	-0.6015431671142578	-0.34177228698730466	2.948760986328125	-3.864288330078125	-0.51116943359375	9.702502227783203	0.5500678314208984	0.19093758239746092	-0.09918212890625	-5.199432373046875	-3.887176513671875	9.77492682800293	0.03531447448730469	-0.12210428466796874	2.094268798828125	-4.451751708984375	-1.934051513671875	
258	1.032	0.0	0.0	0.0	0.0	0.003	0.003	0.003	0.003	9.811438403320311	-0.5764040496826172	0.08738836059570312	1.331329345703125	-2.777099609375	-0.263214111328125	9.496600885009766	0.6661866119384765	0.28490999755859375	-0.1068115234375	-5.107879638671875	-3.726959228515625	9.597755905151367	0.32920272827148434	0.12210428466796874	2.3193359375	-4.15802001953125	-1.71661376953125	
259	1.036	0.0	0.0	0.0	0.0	0.006	0.006	0.006	0.003	9.9078050201416	-0.46806642456054687	-0.31483751831054685	3.108978271484375	-3.932952880859375	-0.392913818359375	9.734823950195311	0.5614402893066406	0.14305354919433594	-0.118255615234375	-5.279541015625	-3.917694091796875	9.727641345214844	0.04548983154296875	-0.10953472595214843	2.262115478515625	-4.6844482421875	-1.68609619140625	
260	1.04	0.0	0.0	0.0	0.0	0.006	0.003	0.003	0.006	10.064625228881836	-0.6913257293701172	-0.3399766357421875	5.603790283203125	-5.37872314453125	-1.018524169921875	9.720458740234374	0.5183446594238281	0.1657984649658203	0.17547607421875	-5.3863525390625	-3.871917724609375	9.898826763916015	0.19093758239746092	-0.05327098693847656	2.460479736328125	-4.596710205078125	-1.873016357421875	
261	1.044	0.0	0.0	0.0	0.0	0.003	0.003	0.006	0.006	9.912593423461914	-0.36750995483398435	-0.3286041778564453	4.33349609375	-4.550933837890625	-0.812530517578125	9.687538467407226	0.5279214660644531	0.00239420166015625	0.408172607421875	-5.458831787109375	-3.6163330078125	9.567229833984374	0.07242460021972656	0.014963760375976562	2.8228759765625	-4.337310791015625	-1.659393310546875	
262	1.048	0.0	0.0	0.0	0.0	0.003	0.003	0.003	0.003	9.936535440063476	-0.5979518646240234	-0.0939724151611328	5.748748779296875	-5.405426025390625	-0.732421875	9.582193594360351	0.5973533142089843	0.27892449340820313	0.133514404296875	-5.268096923828125	-3.68499755859375	9.695319622802733	0.33518823242187495	0.09217676391601562	2.529144287109375	-4.543304443359375	-1.590728759765625	
263	1.052	0.0	0.0	0.0	0.0	0.003	0.003	0.003	0.006	9.973645565795898	-0.6212953308105469	-0.3950432739257812	5.31005859375	-4.741668701171875	-0.873565673828125	9.840168823242188	0.42437224426269526	-0.040701428222656245	0.301361083984375	-5.30242919921875	-3.57818603515625	10.070610733032225	-0.04189852905273437	-0.14903905334472656	2.773284912109375	-4.6234130859375	-1.2664794921875	
264	1.056	0.0	0.0	0.0	0.0	0.006	0.003	0.003	0.003	9.917381826782226	-0.689530078125	-0.07062894897460938	5.245208740234375	-4.840850830078125	-0.972747802734375	9.872490545654296	0.6853402252197265	-0.00718260498046875	0.286102294921875	-5.22613525390625	-3.77655029296875	9.734823950195311	0.28311434631347654	0.05626373901367187	2.44140625	-4.6234130859375	-2.05230712890625	
265	1.06	0.0	0.0	0.0	0.0	0.003	0.003	0.003	0.003	9.80665	-0.6691793640136718	0.2645592834472656	4.2266845703125	-4.436492919921875	-0.743865966796875	9.600748657226562	0.5895721588134766	0.14604630126953125	0.247955322265625	-5.4168701171875	-3.662109375	9.809044201660155	0.15322890625	-0.09816226806640624	2.658843994140625	-4.642486572265625	-1.46484375	
266	1.064	0.0	0.0	0.0	0.0	0.006	0.003	0.003	0.006	9.90840357055664	-0.699106884765625	0.006584054565429687	4.886627197265625	-4.5623779296875	-0.5950927734375	9.903615167236328	0.6793547210693359	0.02693476867675781	0.125885009765625	-5.37872314453125	-3.551483154296875	10.332177264404296	0.1975216369628906	-0.584185205078125	2.83050537109375	-4.1656494140625	-1.255035400390625	
267	1.068	0.0	0.0	0.0	0.0	0.0	0.003	0.003	0.006	9.919776028442381	-0.805050308227539	0.105344873046875	3.7078857421875	-4.032135009765625	-0.66375732421875	9.90181951599121	0.5213374114990235	0.17118541870117188	0.26702880859375	-5.550384521484375	-3.841400146484375	9.974842666625976	0.01915361328125	-0.08439560852050781	2.72369384765625	-4.970550537109375	-1.880645751953125	
268	1.072	0.0	0.0	0.0	0.0	0.003	0.003	0.003	0.006	9.884461553955077	-0.6099228729248046	-0.04967968444824218	2.544403076171875	-3.2501220703125	-0.438690185546875	9.712079034423828	0.7350199096679687	0.16879121704101563	-0.095367431640625	-4.94384765625	-3.3721923828125	10.142436782836914	0.24181436767578124	-0.5351040710449219	2.76947021484375	-4.302978515625	-1.56402587890625	
269	1.076	0.0	0.0	0.0	0.0	0.003	0.003	0.003	0.006	9.892841259765625	-0.6530185028076172	0.0987608184814453	3.765106201171875	-4.1351318359375	-0.34332275390625	9.81862100830078	0.5153519073486328	0.2771288421630859	0.247955322265625	-5.584716796875	-3.559112548828125	10.17715270690918	0.4004302276611328	-0.34177228698730466	3.0975341796875	-4.791259765625	-1.15203857421875	
270	1.08	0.0	0.0	0.0	0.0	0.0	0.003	0.003	0.006	9.97903251953125	-0.6637924102783203	-0.14544775085449219	3.41033935546875	-3.85284423828125	-0.518798828125	9.90241806640625	0.6488286499023437	-0.08978256225585937	0.80108642578125	-5.153656005859375	-3.86810302734375	10.408791717529295	0.016759411621093748	-0.5626373901367188	2.86865234375	-4.116058349609375	-1.468658447265625	
271	1.084	0.0	0.0	0.0	0.0	0.006	0.003	0.006	0.003	9.824007962036132	-0.47764323120117186	0.17477672119140625	5.382537841796875	-4.909515380859375	-0.8697509765625	9.773131176757811	0.6488286499023437	0.33099837951660155	0.1068115234375	-5.33294677734375	-3.95965576171875	10.151415039062499	0.4572925170898437	-0.32920272827148434	3.154754638671875	-4.566192626953125	-0.9002685546875	
272	1.088	0.0	0.0	0.0	0.0	0.003	0.003	0.003	0.006	9.771335525512695	-0.364517202758789	0.20530279235839843	3.948211669921875	-4.14276123046875	-0.6256103515625	9.878476049804688	0.8295908752441405	0.028131869506835935	0.640869140625	-5.24139404296875	-3.757476806640625	10.202890374755858	0.12150573425292968	-0.4495113616943359	3.139495849609375	-4.49371337890625	-1.110076904296875	
273	1.092	0.0	0.0	0.0	0.0	0.003	0.006	0.003	4.611	9.749189160156249	-0.5057751007080078	0.19333178405761717	2.32696533203125	-3.414154052734375	-0.4425048828125	9.890447058105469	0.6649895111083984	0.2555810272216797	-0.003814697265625	-5.51605224609375	-4.0130615234375	10.367491738891601	0.3381809844970703	-0.39324762268066404	2.880096435546875	-4.5623779296875	-1.16729736328125	
274	1.096	0.0	0.0	0.0	0.0	4.635	4.662	4.671	4.638	9.84435867614746	-0.517746109008789	0.1640028137207031	3.482818603515625	-3.68499755859375	-0.820159912109375	9.974244116210937	0.7032967376708984	-0.011372457885742187	0.22125244140625	-5.035400390625	-3.88336181640625	10.219649786376953	0.001197100830078125	-0.4537012145996093	2.933502197265625	-4.543304443359375	-1.308441162109375	
275	1.1	0.0	0.0	0.0	0.0	4.647	4.674	4.674	4.641	9.694122521972655	-0.44053310546874996	0.14305354919433594	1.789093017578125	-3.23486328125	-0.614166259765625	9.644442837524414	0.958279214477539	0.27353753967285155	0.4730224609375	-5.702972412109375	-3.902435302734375	10.08078609008789	0.5243301635742187	-0.31064766540527344	2.941131591796875	-4.535675048828125	-1.25885009765625	
276	1.104	0.0	0.0	0.0	0.0	4.641	4.671	4.671	4.644	9.950302099609374	-0.47884033203125	-0.008379705810546874	2.353668212890625	-3.528594970703125	-0.38909912109375	10.04247886352539	0.6578069061279297	-0.06703764648437499	0.2593994140625	-5.25665283203125	-3.8604736328125	10.237007748413085	0.059256491088867186	-0.4572925170898437	3.39508056640625	-4.6844482421875	-0.911712646484375	
277	1.108	0.0	0.0	0.0	0.0	4.635	4.674	4.668	4.647	9.820416659545899	-0.5620388397216797	-0.022744915771484374	3.009796142578125	-3.65447998046875	-0.759124755859375	9.813234054565429	0.8068459594726562	0.11911153259277343	0.63323974609375	-5.329132080078125	-3.88336181640625	9.81862100830078	0.09636661682128905	0.11671733093261719	2.651214599609375	-4.63104248046875	-1.9073486328125	
278	1.112	0.0	0.0	0.0	0.0	4.647	4.674	4.674	4.632	9.820416659545899	-0.7523778717041015	-0.013168109130859374	2.5177001953125	-3.452301025390625	-0.354766845703125	9.725247143554688	0.6057330200195312	0.05805939025878906	0.457763671875	-5.191802978515625	-4.199981689453125	10.025719451904296	0.21308394775390624	-0.354940396118164	3.108978271484375	-4.871368408203125	-1.2359619140625	
279	1.116	0.0	0.0	0.0	0.0	4.647	4.674	4.674	4.623	9.778518130493163	-0.6260837341308594	0.05386953735351562	2.838134765625	-3.77655029296875	-0.701904296875	9.764152920532226	0.8661024505615234	0.11851298217773437	0.70953369140625	-5.42449951171875	-3.82232666015625	9.689334118652344	0.17118541870117188	0.15682020874023436	2.89154052734375	-4.76837158203125	-1.689910888671875	
280	1.12	0.0	0.0	0.0	0.0	4.644	4.671	4.674	4.6290000000000004	9.8311905670166	-0.7128735443115234	-0.059256491088867186	2.44903564453125	-3.45611572265625	-0.81634521484375	9.85692823486328	0.5422866760253906	0.031124621582031248	0.41961669921875	-5.0506591796875	-4.222869873046875	9.861716638183593	0.23403321228027343	0.004189852905273437	2.3040771484375	-4.634857177734375	-1.5869140625	
281	1.124	0.0	0.0	0.0	0.0	4.647	4.665	4.674	0.006	9.642647186279296	-0.8373720306396484	0.23523031311035156	1.506805419921875	-2.613067626953125	-0.2899169921875	9.573215338134766	0.8080430603027343	0.3477577911376953	0.08392333984375	-5.260467529296875	-4.180908203125	9.658209497070311	0.18076222534179687	0.26336218261718747	2.681732177734375	-4.34112548828125	-1.873016357421875	
282	1.1280000000000001	0.0	0.0	0.0	0.0	0.003	0.003	0.003	0.003	9.688137017822266	-0.6248866333007812	0.19333178405761717	3.0059814453125	-3.650665283203125	-0.576019287109375	9.701305126953125	0.6817489227294922	0.17477672119140625	0.225067138671875	-5.40924072265625	-4.11224365234375	9.591171850585937	0.3489548919677734	0.16160861206054686	2.41851806640625	-4.89044189453125	-1.8768310546875	
283	1.1320000000000001	0.0	0.0	0.0	0.0	0.003	0.006	0.003	0.003	9.749787710571288	-0.8672995513916015	0.1292868896484375	0.759124755859375	-2.29644775390625	-0.09918212890625	9.717465988159178	0.7044938385009765	0.27952304382324217	-0.22125244140625	-5.367279052734375	-4.17327880859375	9.87069489440918	0.044292730712890624	0.11851298217773437	2.452850341796875	-4.390716552734375	-1.62506103515625	
284	1.1360000000000001	0.0	0.0	0.0	0.0	0.003	0.003	0.003	0.003	9.827000714111328	-0.5829881042480468	0.04608838195800781	2.269744873046875	-3.39508056640625	-0.545501708984375	9.734225399780273	0.5153519073486328	0.12090718383789062	-0.095367431640625	-5.19561767578125	-3.7994384765625	9.721057290649414	0.22864625854492185	0.05985504150390625	2.15911865234375	-4.467010498046875	-1.9989013671875	
285	1.1400000000000001	0.0	0.0	0.0	0.0	0.003	0.003	0.003	0.006	9.724050042724608	-0.5722141967773438	0.15382745666503905	1.88446044921875	-2.83050537109375	-0.240325927734375	9.580397943115234	0.8038532073974609	0.28909985046386716	0.278472900390625	-5.39398193359375	-4.14276123046875	9.617508068847656	0.24061726684570311	0.11611878051757812	2.60162353515625	-4.3487548828125	-1.800537109375	
286	1.1440000000000001	0.0	0.0	0.0	0.0	0.003	0.003	0.003	0.006	9.928754284667969	-0.6284779357910156	-0.22086510314941404	3.223419189453125	-4.05120849609375	-0.110626220703125	9.67856021118164	0.5207388610839844	0.18136077575683593	0.240325927734375	-5.390167236328125	-3.543853759765625	9.758765966796874	0.17417817077636719	0.013168109130859374	2.681732177734375	-4.810333251953125	-1.796722412109375	
287	1.1480000000000001	0.0	0.0	0.0	0.0	0.006	0.003	0.003	0.003	9.880870251464843	-0.7068880401611328	0.034715924072265626	2.101898193359375	-3.021240234375	-0.244140625	9.843760125732421	0.6296750366210937	0.014963760375976562	0.03814697265625	-5.10406494140625	-3.74603271484375	9.837176071166992	0.10654197387695312	0.012569558715820313	2.513885498046875	-4.41741943359375	-1.674652099609375	
288	1.1520000000000001	0.0	0.0	0.0	0.0	0.0	0.003	0.003	0.006	9.991003527832031	-0.6081272216796875	-0.2819172454833984	3.620147705078125	-3.986358642578125	-0.70953369140625	9.6151138671875	0.5027823486328125	0.16998831787109375	0.133514404296875	-5.229949951171875	-3.742218017578125	9.847351428222655	0.2184709014892578	-0.07302315063476562	2.23541259765625	-4.627227783203125	-1.583099365234375	
289	1.156	0.0	0.0	0.0	0.0	0.0	0.003	0.003	0.006	9.82520506286621	-0.5416881256103515	0.011971008300781249	4.8065185546875	-4.70733642578125	-0.545501708984375	9.727641345214844	0.738012661743164	0.11073182678222655	0.28228759765625	-5.33294677734375	-3.765106201171875	9.695319622802733	0.17178396911621094	0.13946224670410157	2.55584716796875	-4.5013427734375	-1.82342529296875	
290	1.16	0.0	0.0	0.0	0.0	0.003	0.003	0.003	0.006	9.956886154174803	-0.6643909606933593	-0.1849520782470703	3.89862060546875	-4.2724609375	-0.614166259765625	9.722254391479492	0.49739539489746093	0.17238251953125	-0.011444091796875	-5.5389404296875	-3.54766845703125	10.01674119567871	0.11552023010253906	-0.14185644836425781	2.62451171875	-4.486083984375	-1.5716552734375	
291	1.164	0.0	0.0	0.0	0.0	0.003	0.003	0.003	0.003	9.9981861328125	-0.6578069061279297	-0.18854338073730467	4.150390625	-4.31060791015625	-0.87738037109375	9.752780462646484	0.7134720947265625	0.028131869506835935	0.316619873046875	-5.466461181640625	-3.688812255859375	10.237606298828124	0.2442085693359375	-0.5063736511230469	2.765655517578125	-4.360198974609375	-1.384735107421875	
292	1.168	0.0	0.0	0.0	0.0	0.003	0.003	0.003	0.003	9.898826763916015	-0.4991910461425781	-0.13587094421386717	5.13458251953125	-4.913330078125	-0.946044921875	9.737218151855469	0.6398503936767578	0.23702596435546874	-0.125885009765625	-5.184173583984375	-3.72314453125	9.770736975097655	0.18854338073730467	-0.032920272827148434	2.422332763671875	-4.39453125	-1.57928466796875	
293	1.172	0.0	0.0	0.0	0.0	0.003	0.003	0.003	0.003	9.979631069946288	-0.8738836059570312	-0.24600422058105467	4.261016845703125	-4.680633544921875	-0.705718994140625	9.83837317199707	0.5811924530029297	-0.025139117431640625	0.530242919921875	-5.10406494140625	-3.8299560546875	10.295067138671874	0.2501940734863281	-0.527322915649414	2.9754638671875	-4.344940185546875	-1.316070556640625	
294	1.176	0.0	0.0	0.0	0.0	0.003	0.003	0.003	0.006	9.617508068847656	-0.45489831542968745	0.5123591552734374	3.83758544921875	-3.993988037109375	-0.9002685546875	9.821015209960937	0.5626373901367188	0.21068974609375	0.080108642578125	-5.33294677734375	-3.692626953125	9.887454306030273	0.09038111267089843	-0.023942016601562498	3.025054931640625	-4.82940673828125	-1.495361328125	
295	1.18	0.0	0.0	0.0	0.0	0.0	0.003	0.003	0.006	9.82460651245117	-0.6865373260498047	0.015562310791015624	4.322052001953125	-4.38690185546875	-0.86212158203125	9.877877499389648	0.8188169677734375	0.08020575561523437	0.66375732421875	-5.126953125	-3.9215087890625	10.224438189697265	0.4255693450927734	-0.575206948852539	2.849578857421875	-4.49371337890625	-1.45721435546875	
296	1.184	0.0	0.0	0.0	0.0	0.006	0.003	0.003	0.006	9.604938510131836	-0.3806780639648437	0.526125814819336	3.2501220703125	-3.79180908203125	-0.789642333984375	9.83238766784668	0.5231330627441406	0.239420166015625	0.003814697265625	-5.229949951171875	-3.3416748046875	10.269928021240235	0.16998831787109375	-0.4626794708251953	3.01361083984375	-4.650115966796875	-1.2054443359375	
297	1.188	0.0	0.0	0.0	0.0	0.006	0.003	0.003	0.006	9.817423907470703	-0.6266822845458984	0.14963760375976562	4.314422607421875	-4.123687744140625	-0.6561279296875	10.002974536132811	0.7870937957763672	0.025737667846679687	0.48065185546875	-5.05828857421875	-3.849029541015625	10.387842453002929	0.19871873779296872	-0.6081272216796875	2.826690673828125	-4.5623779296875	-1.453399658203125	
298	1.192	0.0	0.0	0.0	0.0	0.006	0.006	0.003	0.003	9.68514426574707	-0.43514615173339843	0.32501287536621093	2.31170654296875	-3.25775146484375	-0.57220458984375	9.72943699645996	0.6793547210693359	0.33039982910156246	0.1373291015625	-5.512237548828125	-3.91387939453125	10.186130963134765	0.21727380065917967	-0.4435258575439453	3.215789794921875	-4.650115966796875	-1.312255859375	
299	1.196	0.0	0.0	0.0	0.0	0.003	0.003	0.003	0.006	9.83837317199707	-0.4961982940673828	-0.02154781494140625	1.2664794921875	-2.67791748046875	-0.152587890625	9.891644158935547	0.8259995727539062	0.04967968444824218	0.26702880859375	-5.245208740234375	-3.662109375	10.095749850463866	0.28730419921875	-0.5428852264404297	3.082275390625	-4.848480224609375	-1.216888427734375	
300	1.2	0.0	0.0	0.0	0.0	0.003	0.003	0.003	0.006	9.821015209960937	-0.44532150878906246	0.16519991455078123	3.2806396484375	-3.875732421875	-0.621795654296875	9.83777462158203	0.6171054779052734	0.2501940734863281	0.2593994140625	-5.443572998046875	-3.726959228515625	10.304643945312499	0.12629413757324218	-0.45010991210937495	3.131866455078125	-4.573822021484375	-1.0833740234375	
301	1.204	0.0	0.0	0.0	0.0	0.003	0.003	0.003	0.003	9.861118087768554	-0.4722562774658203	0.008978256225585938	2.25830078125	-3.383636474609375	-0.2899169921875	9.865307940673828	0.7398083129882812	-0.002992752075195312	0.347137451171875	-5.14984130859375	-4.1656494140625	10.223241088867187	0.15263035583496093	-0.6123170745849609	3.269195556640625	-4.43267822265625	-1.28173828125	
302	1.208	0.0	0.0	0.0	0.0	0.006	0.003	0.003	0.006	9.701305126953125	-0.20829554443359374	0.32561142578124996	1.987457275390625	-3.387451171875	-0.72479248046875	9.69831237487793	0.7314286071777343	0.34656069030761716	0.35858154296875	-5.31768798828125	-3.7994384765625	9.702502227783203	0.2813186950683594	0.05626373901367187	2.696990966796875	-4.8065185546875	-1.605987548828125	
303	1.212	0.0	0.0	0.0	0.0	0.006	0.003	0.003	0.003	9.776123928833007	-0.4112041351318359	0.19093758239746092	2.414703369140625	-3.475189208984375	-0.3662109375	9.929951385498047	0.7164648468017578	-0.03890577697753906	0.40435791015625	-4.871368408203125	-3.955841064453125	10.275913525390624	0.04189852905273437	-0.5572504364013672	3.0517578125	-4.63104248046875	-1.201629638671875	
304	1.216	0.0	0.0	0.0	0.0	0.006	0.003	0.003	0.006	9.874286196899414	-0.8038532073974609	-0.05566518859863281	1.384735107421875	-2.84576416015625	-0.667572021484375	9.69112976989746	0.6296750366210937	0.3274070770263672	0.19073486328125	-5.11932373046875	-4.0740966796875	9.83238766784668	0.16340426330566404	0.007781155395507812	2.742767333984375	-4.69970703125	-1.819610595703125	
305	1.22	0.0	0.0	0.0	0.0	0.003	0.003	0.003	0.003	9.779116680908203	-0.3136404174804687	0.19093758239746092	2.32696533203125	-3.116607666015625	-0.67138671875	9.822212310791015	0.8152256652832031	0.07841010437011718	0.019073486328125	-5.1422119140625	-4.2877197265625	10.23401499633789	0.13347674255371092	0.06105214233398437	2.51007080078125	-4.901885986328125	-1.800537109375	
306	1.224	0.0	0.0	0.0	0.0	0.003	0.003	0.006	0.003	9.87727894897461	-0.7811082916259765	0.012569558715820313	1.708984375	-3.040313720703125	-0.274658203125	9.595960253906249	0.6446387969970703	0.4944026428222656	-0.12969970703125	-5.245208740234375	-3.978729248046875	9.707290631103515	0.2555810272216797	0.13108254089355467	2.81524658203125	-4.673004150390625	-1.56402587890625	
307	1.228	0.0	0.0	0.0	0.0	1.3800000000000001	4.665	4.671	4.623	9.89463691101074	-0.7775169891357422	-0.20530279235839843	2.716064453125	-3.86810302734375	-0.637054443359375	9.758167416381836	0.5099649536132812	-0.0047884033203125	0.19073486328125	-5.344390869140625	-3.780364990234375	9.777321029663085	0.09038111267089843	0.011372457885742187	2.44140625	-4.6539306640625	-1.461029052734375	
308	1.232	0.0	0.0	0.0	0.0	4.644	4.668	4.671	4.6290000000000004	9.829394915771484	-0.6554127044677734	0.07781155395507812	1.861572265625	-3.31878662109375	-0.232696533203125	9.604938510131836	0.6512228515624999	0.411802685546875	0.2288818359375	-4.985809326171875	-4.00543212890625	9.629479077148437	0.28969840087890625	0.21428104858398436	2.76947021484375	-4.497528076171875	-1.51824951171875	
