	time	dac1	dac2	dac3	dac4	adc1.3	adc2.3	adc3.3	adc4.3	imu1accx	imu1accy	imu1accz	imu1gyrox	imu1gyroy	imu1gyroz	imu2accx	imu2accy	imu2accz	imu2gyrox	imu2gyroy	imu2gyroz	imu3accx	imu3accy	imu3accz	imu3gyrox	imu3gyroy	imu3gyroz	log
0	0.0	0.0	0.0	0.0	0.0	0.009000000000000001	0.003	0.003	0.003	9.871293444824218	0.04369418029785156	0.03531447448730469	2.834320068359375	-3.60870361328125	-1.026153564453125	9.859920986938477	-0.3872621185302734	0.05566518859863281	0.49591064453125	-5.13458251953125	-3.368377685546875	10.134057077026366	-0.24959552307128904	-0.42317514343261714	2.956390380859375	-4.7607421875	-1.24359130859375	estabilizou em 4s, descida em 15s, parou em 23s. 753 RPM
1	0.004	0.0	0.0	0.0	0.0	0.006	0.003	0.003	0.003	9.809044201660155	0.2819172454833984	0.08319850769042968	3.814697265625	-3.917694091796875	-1.4495849609375	9.735422500610351	-0.23223756103515625	0.20530279235839843	0.186920166015625	-5.01251220703125	-3.59344482421875	9.758167416381836	-0.3232172241210937	0.0718260498046875	2.750396728515625	-4.50897216796875	-1.682281494140625	Started
2	0.008	0.0	0.0	0.0	0.0	-0.003	0.003	0.003	0.003	9.861716638183593	0.1388636962890625	0.010773907470703125	2.99072265625	-3.83758544921875	-1.384735107421875	9.835380419921874	-0.3890577697753906	0.04967968444824218	0.4425048828125	-5.24139404296875	-3.612518310546875	10.043675964355469	-0.23343466186523437	-0.42018239135742186	3.353118896484375	-4.947662353515625	-1.308441162109375	IMU1|LSM6DS3|0x6A|I2C-1|±2g (±19,6m/s²)|±125º/s|400Hz
3	0.012	0.0	0.0	0.0	0.0	0.003	0.003	0.003	0.0	9.809642752075195	0.06584054565429687	0.040701428222656245	2.460479736328125	-3.215789794921875	-0.87738037109375	9.740809454345703	-0.19153613281249998	0.17597382202148437	0.08392333984375	-4.81414794921875	-3.437042236328125	9.760561618041992	-0.2980781066894531	0.020350714111328123	2.758026123046875	-4.66156005859375	-1.495361328125	IMU2|LSM6DS3|0x6B|I2C-1|±2g (±19,6m/s²)|±125º/s|400Hz
4	0.016	0.0	0.0	0.0	0.0	0.0	0.003	0.006	0.006	9.881468801879882	0.13587094421386717	-0.003591302490234375	2.8228759765625	-3.772735595703125	-1.39617919921875	9.712079034423828	-0.43574470214843747	0.1562216583251953	-0.20599365234375	-5.161285400390625	-3.391265869140625	9.796474642944336	-0.30346506042480464	0.03591302490234375	2.35748291015625	-4.82940673828125	-1.796722412109375	IMU3|LSM6DS3|0x6B|I2C-2|±2g (±19,6m/s²)|±125º/s|400Hz
5	0.02	0.0	0.0	0.0	0.0	0.003	0.003	0.003	0.003	9.79348189086914	-0.040102877807617184	0.08499415893554688	2.11334228515625	-3.231048583984375	-0.9613037109375	9.692925421142577	-0.19572598571777342	0.22685060729980466	0.213623046875	-4.871368408203125	-3.48663330078125	9.683348614501952	-0.2759317413330078	0.06284779357910156	2.838134765625	-4.581451416015625	-1.68609619140625	ADC|ADS1015|0|0|1|0|±6,144 V|2400 SPS
6	0.024	0.0	0.0	0.0	0.0	0.003	0.003	0.003	0.003	9.850344180297851	0.24001871643066405	-0.008978256225585938	3.139495849609375	-3.688812255859375	-1.209259033203125	9.63366893005371	-0.3711012573242187	0.22744915771484372	-0.072479248046875	-5.229949951171875	-3.326416015625	9.70369932861328	-0.23044190979003906	0.05327098693847656	2.254486083984375	-4.840850830078125	-1.811981201171875	Gen1|Disabled
7	0.028	0.0	0.0	0.0	0.0	0.003	0.003	0.003	0.003	9.813832604980469	-0.05686228942871093	0.07242460021972656	2.048492431640625	-3.265380859375	-0.885009765625	9.739612353515625	-0.3136404174804687	0.17956512451171874	0.049591064453125	-4.848480224609375	-3.3721923828125	9.926958633422851	-0.23523031311035156	-0.16460136413574217	2.44903564453125	-4.21142578125	-1.65557861328125	Gen2|Enabled|Noise|0.0|10.0|1668
8	0.032	0.0	0.0	0.0	0.0	0.006	0.003	0.003	0.003	9.982623822021484	0.1562216583251953	-0.17357962036132812	2.689361572265625	-3.692626953125	-0.682830810546875	9.654618194580078	-0.4381389038085937	0.2262520568847656	0.1068115234375	-5.107879638671875	-3.39508056640625	9.76235726928711	-0.33399113159179683	0.058657940673828124	2.490997314453125	-4.66156005859375	-1.8157958984375	Gen3|Enabled|Noise|0.0|10.0|128
9	0.036000000000000004	0.0	0.0	0.0	0.0	0.003	0.003	0.006	0.006	9.76175871887207	0.0526724365234375	0.1274912384033203	2.14385986328125	-3.509521484375	-0.86212158203125	9.674968908691406	-0.2376245147705078	0.18136077575683593	0.148773193359375	-5.05828857421875	-3.21197509765625	9.811438403320311	-0.15263035583496093	-0.08259995727539061	2.452850341796875	-4.520416259765625	-1.59454345703125	Gen4|Enabled|Noise|0.0|10.0|128
10	0.04	0.0	0.0	0.0	0.0	0.009000000000000001	0.006	0.006	0.003	9.920374578857421	0.03232172241210937	-0.08080430603027343	2.529144287109375	-3.772735595703125	-0.804901123046875	9.666589202880859	-0.36272155151367186	0.29568390502929687	0.152587890625	-5.084991455078125	-2.933502197265625	9.970652813720703	-0.297479556274414	-0.15442600708007811	2.7313232421875	-4.497528076171875	-1.2664794921875	Ctrl|Disabled
11	0.044	0.0	0.0	0.0	0.0	0.006	0.003	0.003	0.006	9.83837317199707	0.06404489440917968	0.07841010437011718	3.7841796875	-3.261566162109375	-0.888824462890625	9.795876092529296	-0.3842693664550781	0.15741875915527342	-0.415802001953125	-4.924774169921875	-3.368377685546875	9.986215124511718	-0.2765302917480469	-0.12150573425292968	2.64739990234375	-4.1046142578125	-1.628875732421875	
12	0.048	0.0	0.0	0.0	0.0	0.0	0.003	0.006	0.003	9.932345587158203	0.03651157531738281	-0.09337386474609374	2.750396728515625	-3.6468505859375	-1.09100341796875	9.722254391479492	-0.3687070556640625	0.2501940734863281	0.133514404296875	-5.107879638671875	-2.956390380859375	9.919177478027343	-0.35015199279785153	-0.12629413757324218	2.613067626953125	-4.66156005859375	-1.338958740234375	
13	0.052000000000000005	0.0	0.0	0.0	0.0	0.003	0.003	0.003	0.006	10.081983190917969	0.39803602600097654	-0.31004911499023435	3.82232666015625	-4.306793212890625	-1.0223388671875	9.661800799560547	-0.3298012786865234	0.28012159423828126	0.461578369140625	-5.084991455078125	-3.1280517578125	9.8449572265625	-0.13168109130859373	-0.03172317199707031	2.796173095703125	-3.997802734375	-1.552581787109375	
14	0.056	0.0	0.0	0.0	0.0	0.006	0.003	0.003	0.003	9.913191973876952	0.07841010437011718	-0.04189852905273437	2.574920654296875	-3.757476806640625	-0.83160400390625	9.854534033203125	-0.43933600463867184	0.15861585998535155	0.38909912109375	-5.176544189453125	-3.055572509765625	10.116699114990233	-0.4836287353515625	-0.14544775085449219	2.895355224609375	-4.974365234375	-1.30462646484375	
15	0.06	0.0	0.0	0.0	0.0	0.003	0.003	0.003	0.003	10.040683212280273	0.17597382202148437	-0.27174188842773433	3.719329833984375	-3.818511962890625	-1.5411376953125	9.931148486328125	-0.3435679382324219	-0.003591302490234375	0.6256103515625	-5.24139404296875	-3.326416015625	10.241197601318358	-0.2813186950683594	-0.4955997436523437	2.925872802734375	-4.604339599609375	-1.45721435546875	
16	0.064	0.0	0.0	0.0	0.0	0.009000000000000001	0.003	0.003	0.003	9.764152920532226	0.3597287994384765	0.23702596435546874	4.146575927734375	-4.268646240234375	-1.28936767578125	9.704896429443359	-0.33039982910156246	0.18076222534179687	0.247955322265625	-5.115509033203125	-2.92205810546875	9.888052856445311	-0.3298012786865234	-0.13587094421386717	2.864837646484375	-4.558563232421875	-1.251220703125	
17	0.068	0.0	0.0	0.0	0.0	0.003	0.003	0.003	0.003	10.040683212280273	0.3274070770263672	-0.2280477081298828	3.9520263671875	-4.20379638671875	-1.25885009765625	10.046668716430663	-0.37229835815429685	-0.11552023010253906	0.293731689453125	-5.157470703125	-3.082275390625	10.36809028930664	-0.26815058593749996	-0.5321113189697265	2.9449462890625	-4.596710205078125	-1.361846923828125	
18	0.07200000000000001	0.0	0.0	0.0	0.0	0.006	0.006	0.003	0.003	9.797671743774414	0.16699556579589842	0.24121581726074218	4.03594970703125	-4.398345947265625	-1.5411376953125	9.827599264526366	-0.2765302917480469	0.2920926025390625	0.423431396484375	-5.24139404296875	-3.536224365234375	10.137648379516602	-0.3758896606445312	-0.04189852905273437	2.99835205078125	-4.85992431640625	-1.2969970703125	
19	0.076	0.0	0.0	0.0	0.0	0.003	0.003	0.003	0.006	9.99220062866211	0.21487959899902342	-0.21308394775390624	3.71551513671875	-3.688812255859375	-1.04522705078125	9.877877499389648	-0.20829554443359374	-0.059256491088867186	0.57220458984375	-5.0811767578125	-3.1280517578125	10.196904870605469	-0.10115502014160156	-0.6009446166992187	2.925872802734375	-4.34112548828125	-1.331329345703125	
20	0.08	0.0	0.0	0.0	0.0	0.006	0.003	0.003	0.003	9.746196408081055	0.5590460876464843	0.2615665313720703	4.20379638671875	-4.253387451171875	-1.476287841796875	9.771934075927733	-0.20769699401855468	0.3387795349121094	0.286102294921875	-5.34820556640625	-3.070831298828125	10.065822329711914	-0.24480711975097655	-0.022744915771484374	3.002166748046875	-4.817962646484375	-1.10626220703125	
21	0.084	0.0	0.0	0.0	0.0	0.003	0.003	0.006	0.003	9.835978970336914	0.03591302490234375	0.10893617553710937	3.11279296875	-3.833770751953125	-1.46484375	9.900023864746093	-0.4513070129394531	0.14903905334472656	0.2899169921875	-4.9591064453125	-3.490447998046875	10.147823736572265	-0.5255272644042969	-0.37229835815429685	2.9144287109375	-4.848480224609375	-1.743316650390625	
22	0.088	0.0	0.0	0.0	0.0	0.003	0.006	0.003	0.003	9.694721072387695	0.13407529296874998	0.3345896820068359	3.719329833984375	-3.749847412109375	-1.3275146484375	9.708487731933593	-0.14125789794921875	0.3016694091796875	0.61798095703125	-4.985809326171875	-3.35693359375	10.022128149414062	-0.13587094421386717	-0.17896657409667968	2.8839111328125	-4.6539306640625	-1.094818115234375	
23	0.092	0.0	0.0	0.0	0.0	0.003	0.003	0.003	0.006	9.782707983398437	0.5141548065185546	0.143652099609375	2.7008056640625	-3.41796875	-0.9918212890625	9.822212310791015	-0.25797522888183594	0.1640028137207031	-0.011444091796875	-5.0201416015625	-3.41033935546875	9.945513696289062	-0.36152445068359373	-0.3459621398925781	2.685546875	-4.75311279296875	-1.60980224609375	
24	0.096	0.0	0.0	0.0	0.0	0.006	0.003	0.003	0.006	9.725845693969726	0.6308721374511719	0.2825157958984375	4.24957275390625	-3.94439697265625	-1.861572265625	9.849745629882811	-0.35314474487304687	0.143652099609375	0.02288818359375	-4.955291748046875	-3.612518310546875	10.207678778076172	-0.31004911499023435	-0.143652099609375	2.73895263671875	-4.81414794921875	-1.6326904296875	
25	0.1	0.0	0.0	0.0	0.0	0.003	0.003	0.003	0.006	9.846154327392577	0.028131869506835935	0.05327098693847656	2.54058837890625	-3.15093994140625	-1.617431640625	9.846752877807617	-0.2962824554443359	0.10474632263183593	0.003814697265625	-5.023956298828125	-3.604888916015625	9.986215124511718	-0.43634325256347656	-0.4285620971679687	2.681732177734375	-4.688262939453125	-1.77764892578125	
26	0.10400000000000001	0.0	0.0	0.0	0.0	0.003	0.003	0.003	0.006	9.892841259765625	-0.06763619689941405	-0.07422025146484375	1.338958740234375	-3.009796142578125	-0.308990478515625	9.635464581298828	-0.16759411621093748	0.30705636291503907	-0.19073486328125	-4.9285888671875	-3.37982177734375	9.5630399810791	0.05985504150390625	0.2472013214111328	2.445220947265625	-4.611968994140625	-1.434326171875	
27	0.108	0.0	0.0	0.0	0.0	0.006	0.003	0.003	0.003	9.87668039855957	0.32920272827148434	-0.009576806640625	1.895904541015625	-3.391265869140625	-0.896453857421875	9.70968483276367	-0.4991910461425781	0.09516951599121093	0.02288818359375	-5.146026611328125	-3.238677978515625	10.102932455444336	-0.5889736083984375	-0.3651157531738281	2.8228759765625	-4.955291748046875	-1.552581787109375	
28	0.112	0.0	0.0	0.0	0.0	0.003	0.003	0.006	0.003	9.979631069946288	0.1388636962890625	-0.23223756103515625	2.6702880859375	-3.635406494140625	-1.674652099609375	9.832986218261718	-0.25258827514648435	0.08379705810546874	-0.1373291015625	-4.75311279296875	-3.459930419921875	9.766547122192382	-0.037708676147460936	0.1514332550048828	2.498626708984375	-4.673004150390625	-1.476287841796875	
29	0.116	0.0	0.0	0.0	0.0	0.006	0.003	0.003	0.006	9.95389340209961	0.19632453613281248	-0.36631285400390623	3.116607666015625	-4.085540771484375	-0.751495361328125	9.627084875488281	-0.36571430358886714	0.0143652099609375	-0.12969970703125	-5.096435546875	-3.238677978515625	9.582193594360351	-0.5087678527832031	0.017956512451171875	2.50244140625	-4.60052490234375	-1.7852783203125	
30	0.12	0.0	0.0	0.0	0.0	0.0	0.003	0.003	0.006	9.896432562255859	-0.4608838195800781	-0.09337386474609374	1.220703125	-3.452301025390625	-0.225067138671875	9.79946739501953	-0.354940396118164	0.22445640563964842	0.14495849609375	-5.329132080078125	-3.170013427734375	9.713874685668944	-0.023343466186523436	0.24959552307128904	2.410888671875	-4.512786865234375	-1.323699951171875	
31	0.124	0.0	0.0	0.0	0.0	0.006	0.006	0.003	0.003	9.983222372436522	0.43634325256347656	-0.42437224426269526	3.74603271484375	-4.146575927734375	-1.02996826171875	9.779715231323241	-0.613514175415039	-0.13347674255371092	-0.286102294921875	-4.886627197265625	-3.4942626953125	9.809642752075195	-0.7104793426513671	-0.016160861206054686	2.23541259765625	-4.69207763671875	-1.682281494140625	
32	0.128	0.0	0.0	0.0	0.0	0.006	0.003	0.003	0.006	9.938331091308592	0.5045779998779296	-0.30466216125488277	2.849578857421875	-3.543853759765625	-1.209259033203125	9.721655841064452	-0.16879121704101563	-0.007781155395507812	0.55694580078125	-4.96673583984375	-3.368377685546875	9.967061511230469	0.06643909606933593	-0.2962824554443359	2.6397705078125	-4.367828369140625	-1.903533935546875	
33	0.132	0.0	0.0	0.0	0.0	0.003	0.006	0.003	0.006	9.83837317199707	-0.022744915771484374	-0.13168109130859373	4.528045654296875	-4.619598388671875	-1.434326171875	9.717465988159178	-0.5458779785156249	-0.09277531433105468	0.476837158203125	-5.2642822265625	-2.964019775390625	9.615712417602538	-0.5386953735351562	0.13108254089355467	2.429962158203125	-4.909515380859375	-1.71661376953125	
34	0.136	0.0	0.0	0.0	0.0	0.006	0.003	0.003	0.006	9.97843396911621	-0.39145197143554683	-0.09756371765136718	3.082275390625	-4.154205322265625	-0.54931640625	9.778518130493163	-0.26755203552246093	0.15861585998535155	0.415802001953125	-4.913330078125	-3.326416015625	10.067617980957031	-0.13108254089355467	-0.13646949462890623	2.567291259765625	-4.199981689453125	-1.83868408203125	
35	0.14	0.0	0.0	0.0	0.0	0.003	0.003	0.003	0.003	9.979631069946288	-0.1801636749267578	-0.2454056701660156	2.83050537109375	-3.8299560546875	-0.4425048828125	9.764751470947266	-0.5117606048583984	0.14425065002441406	0.141143798828125	-4.756927490234375	-3.35693359375	9.77432827758789	-0.5524620330810547	-0.06464344482421874	2.834320068359375	-4.360198974609375	-1.2969970703125	
36	0.14400000000000002	0.0	0.0	0.0	0.0	0.006	0.003	0.006	0.006	9.841964474487304	0.7493851196289062	-0.00239420166015625	4.634857177734375	-4.1961669921875	-1.57928466796875	9.598354455566406	-0.16280571289062498	0.20530279235839843	0.4425048828125	-4.970550537109375	-3.101348876953125	9.815628256225585	0.029328970336914062	-0.10414777221679687	2.6092529296875	-4.31060791015625	-1.781463623046875	
37	0.148	0.0	0.0	0.0	0.0	0.006	0.003	0.006	0.006	9.923367330932617	0.5590460876464843	-0.09277531433105468	3.9215087890625	-4.52423095703125	-1.766204833984375	9.773131176757811	-0.5512649322509765	0.22505495605468748	0.5035400390625	-5.60760498046875	-3.173828125	10.10652375793457	-0.3393780853271484	-0.17298106994628906	2.838134765625	-4.6539306640625	-1.102447509765625	
38	0.152	0.0	0.0	0.0	0.0	0.006	0.003	0.003	0.003	9.964667309570311	-0.11372457885742186	-0.0017956512451171875	3.841400146484375	-3.82232666015625	-1.888275146484375	9.983820922851562	-0.14784195251464843	0.018555062866210937	0.1983642578125	-4.89044189453125	-3.41033935546875	10.095749850463866	-0.13347674255371092	-0.3130418670654297	2.651214599609375	-4.21142578125	-1.97601318359375	
39	0.156	0.0	0.0	0.0	0.0	0.003	0.003	0.003	0.003	9.745597857666015	-0.08559270935058594	0.3280056274414062	2.216339111328125	-3.15093994140625	-0.66375732421875	9.625289224243163	-0.29388825378417965	0.3082534637451172	-0.171661376953125	-5.39398193359375	-3.5247802734375	9.910797772216796	-0.20470424194335937	-0.14604630126953125	2.4871826171875	-4.44793701171875	-1.07574462890625	
40	0.16	0.0	0.0	0.0	0.0	0.003	0.003	0.003	0.003	9.868300692749022	-0.07062894897460938	0.1274912384033203	2.864837646484375	-3.620147705078125	-0.782012939453125	9.7928833404541	-0.2567781280517578	0.18914193115234373	-0.057220458984375	-5.11932373046875	-3.131866455078125	10.165780249023436	-0.33578678283691404	-0.6302735870361328	2.887725830078125	-4.543304443359375	-1.50299072265625	
41	0.164	0.0	0.0	0.0	0.0	0.003	0.003	0.003	0.006	9.882067352294921	0.13766659545898435	0.04129997863769531	2.61688232421875	-3.60870361328125	-0.919342041015625	9.88266590270996	-0.3908534210205078	0.24001871643066405	0.080108642578125	-4.985809326171875	-3.22723388671875	10.156203442382813	-0.3315969299316406	-0.24600422058105467	2.70843505859375	-4.6539306640625	-0.89263916015625	
42	0.168	0.0	0.0	0.0	0.0	0.003	0.003	0.003	0.003	9.95389340209961	0.00239420166015625	-0.12808978881835936	3.429412841796875	-3.9520263671875	-1.5869140625	9.802460147094726	-0.24361001892089842	0.055066638183593745	0.171661376953125	-4.69207763671875	-3.337860107421875	10.252570059204102	-0.34237083740234375	-0.7140706451416016	2.735137939453125	-4.41741943359375	-1.8310546875	
43	0.17200000000000001	0.0	0.0	0.0	0.0	0.003	0.003	0.003	0.003	9.694122521972655	0.44532150878906246	0.2807201446533203	3.6468505859375	-3.96728515625	-1.003265380859375	9.692925421142577	-0.21906945190429686	0.3393780853271484	0.45013427734375	-5.352020263671875	-3.185272216796875	9.97783541870117	0.105344873046875	-0.11552023010253906	2.613067626953125	-4.547119140625	-1.15966796875	
44	0.176	0.0	0.0	0.0	0.0	0.006	0.003	0.003	0.003	9.950302099609374	0.3435679382324219	-0.15203180541992187	2.78472900390625	-3.742218017578125	-1.5869140625	10.016142645263672	-0.21966800231933592	-0.17597382202148437	0.6866455078125	-5.0811767578125	-3.208160400390625	10.435127935791016	-0.40880993347167965	-0.7547720733642578	2.838134765625	-4.421234130859375	-1.491546630859375	
45	0.18	0.0	0.0	0.0	0.0	0.003	0.003	0.003	0.003	9.732429748535155	0.5452794281005859	0.3872621185302734	3.74603271484375	-3.879547119140625	-1.64031982421875	9.836577520751952	-0.2962824554443359	0.3130418670654297	0.362396240234375	-5.27191162109375	-3.22723388671875	10.241197601318358	-0.05327098693847656	-0.3076549133300781	2.933502197265625	-4.47845458984375	-1.399993896484375	
46	0.184	0.0	0.0	0.0	0.0	0.006	0.003	0.003	0.003	9.791686239624022	0.17836802368164062	0.12629413757324218	2.105712890625	-3.4637451171875	-1.739501953125	9.8449572265625	-0.09516951599121093	0.00718260498046875	0.530242919921875	-5.0201416015625	-3.536224365234375	10.190320816040039	-0.3112462158203125	-0.6075286712646484	2.765655517578125	-4.772186279296875	-1.392364501953125	
47	0.188	0.0	0.0	0.0	0.0	0.003	0.003	0.003	0.003	9.954491952514648	0.040102877807617184	-0.09756371765136718	2.44903564453125	-3.4942626953125	-1.033782958984375	9.67197615661621	-0.31663316955566406	0.40940848388671874	-0.385284423828125	-5.115509033203125	-3.360748291015625	10.124480270385742	-0.016759411621093748	-0.19632453613281248	3.055572509765625	-4.9285888671875	-1.16729736328125	
48	0.192	0.0	0.0	0.0	0.0	0.003	0.003	0.003	0.006	9.937732540893554	-0.20171148986816406	-0.08020575561523437	1.53350830078125	-3.017425537109375	-1.19781494140625	10.034099157714843	-0.23582886352539062	-0.20350714111328125	0.774383544921875	-4.8370361328125	-3.42559814453125	10.053252770996092	-0.5572504364013672	-0.3555389465332031	2.895355224609375	-4.695892333984375	-1.25885009765625	
49	0.196	0.0	0.0	0.0	0.0	0.006	0.003	0.003	0.006	9.984419473266602	-0.017357962036132813	-0.19632453613281248	2.3193359375	-3.353118896484375	-0.87738037109375	9.619902270507811	-0.33399113159179683	0.3687070556640625	-0.026702880859375	-4.90570068359375	-3.5400390625	9.935936889648437	0.00718260498046875	-0.12449848632812499	2.872467041015625	-4.5623779296875	-1.392364501953125	
50	0.2	0.0	0.0	0.0	0.0	0.003	0.003	0.003	0.006	9.83897172241211	-0.1466448516845703	0.04908113403320312	1.373291015625	-3.07464599609375	-0.621795654296875	9.667187753295899	-0.24061726684570311	0.1640028137207031	0.2899169921875	-5.21087646484375	-3.582000732421875	9.873089096069336	-0.38307226562499996	-0.2442085693359375	2.964019775390625	-4.95147705078125	-1.1749267578125	
51	0.20400000000000001	0.0	0.0	0.0	0.0	0.003	0.003	0.003	0.006	10.022726699829102	-0.047285482788085934	-0.2501940734863281	2.567291259765625	-4.032135009765625	-0.942230224609375	9.80665	-0.4429273071289062	0.21308394775390624	0.095367431640625	-5.115509033203125	-3.643035888671875	9.879074600219726	-0.24061726684570311	0.04129997863769531	2.620697021484375	-4.726409912109375	-1.8310546875	
52	0.20800000000000002	0.0	0.0	0.0	0.0	0.009000000000000001	0.003	0.003	0.003	9.916783276367187	0.21727380065917967	-0.12808978881835936	4.093170166015625	-4.047393798828125	-1.28173828125	9.771934075927733	-0.30406361083984373	0.06643909606933593	0.152587890625	-5.176544189453125	-3.50189208984375	9.986813674926758	-0.4375403533935547	-0.3321954803466797	2.8533935546875	-4.5166015625	-1.27410888671875	
53	0.212	0.0	0.0	0.0	0.0	0.003	0.003	0.003	0.006	9.823409411621093	0.08918401184082031	0.01915361328125	2.471923828125	-3.711700439453125	-1.071929931640625	9.624690673828125	-0.23882161560058593	0.3603273498535156	-0.29754638671875	-4.69207763671875	-3.116607666015625	9.610924014282226	-0.12090718383789062	0.06105214233398437	2.8839111328125	-4.611968994140625	-1.781463623046875	
54	0.216	0.0	0.0	0.0	0.0	0.003	0.006	0.003	0.003	9.952097750854492	0.29269115295410153	-0.20290859069824219	4.0740966796875	-4.138946533203125	-1.1749267578125	9.816825357055663	-0.33758243408203126	0.04668693237304687	0.2593994140625	-5.115509033203125	-3.47137451171875	9.753977563476562	-0.2759317413330078	0.13766659545898435	2.437591552734375	-4.741668701171875	-1.3275146484375	
55	0.22	0.0	0.0	0.0	0.0	0.003	0.003	0.003	0.003	9.9461122467041	-0.014963760375976562	-0.1274912384033203	3.5552978515625	-3.726959228515625	-1.04522705078125	9.700108026123047	-0.4381389038085937	0.25318682556152344	0.18310546875	-4.852294921875	-3.276824951171875	9.83178911743164	-0.35613749694824215	-0.06464344482421874	2.742767333984375	-4.37164306640625	-2.105712890625	
56	0.224	0.0	0.0	0.0	0.0	0.003	0.003	0.003	0.003	9.899425314331054	0.01915361328125	-0.1562216583251953	3.23486328125	-4.169464111328125	-1.33514404296875	9.674968908691406	-0.2561795776367187	0.09576806640624999	-0.095367431640625	-4.787445068359375	-3.528594970703125	9.630077627563477	-0.1592144104003906	0.10295067138671875	2.414703369140625	-4.8828125	-1.434326171875	
57	0.228	0.0	0.0	0.0	0.0	0.006	0.003	0.003	0.003	9.851541281127929	0.22385785522460935	0.086191259765625	3.635406494140625	-4.116058349609375	-0.7781982421875	9.584587796020507	-0.3333925811767578	0.3441664886474609	-0.17547607421875	-4.85992431640625	-3.124237060546875	9.71028338317871	-0.2705447875976562	-0.004189852905273437	2.54058837890625	-4.489898681640625	-1.739501953125	
58	0.232	0.0	0.0	0.0	0.0	0.003	0.003	4.632	4.632	9.99220062866211	-0.054468087768554684	-0.22505495605468748	3.16619873046875	-3.818511962890625	-1.033782958984375	9.888651406860351	-0.5141548065185546	-0.04249707946777344	0.331878662109375	-5.4168701171875	-3.34930419921875	9.906009368896484	-0.27353753967285155	0.0143652099609375	2.758026123046875	-4.634857177734375	-1.68609619140625	
59	0.23600000000000002	0.0	0.0	0.0	0.0	4.638	4.671	4.671	4.635	9.900622415161132	0.20290859069824219	-0.004189852905273437	4.001617431640625	-4.02069091796875	-1.3427734375	9.537302313232422	-0.3232172241210937	0.3938461730957031	-0.030517578125	-4.76837158203125	-3.3721923828125	9.942520944213866	-0.4944026428222656	-0.18136077575683593	2.712249755859375	-4.2724609375	-1.720428466796875	
60	0.24	0.0	0.0	0.0	0.0	4.644	4.671	4.671	4.638	9.835380419921874	0.1945288848876953	0.17118541870117188	2.79998779296875	-3.612518310546875	-1.064300537109375	9.679158761596678	-0.35134909362792965	0.11731588134765625	0.14495849609375	-5.619049072265625	-3.22723388671875	9.657012396240233	-0.06404489440917968	0.08379705810546874	2.285003662109375	-4.779815673828125	-1.2664794921875	
61	0.244	0.0	0.0	0.0	0.0	4.641	4.671	4.671	4.644	9.977236868286132	0.032920272827148434	-0.10354922180175781	3.3416748046875	-3.978729248046875	-0.92315673828125	9.932345587158203	-0.3010708587646484	-0.03172317199707031	0.0762939453125	-4.69207763671875	-3.25775146484375	10.04846436767578	-0.5548562347412109	-0.2567781280517578	2.685546875	-4.245758056640625	-1.67083740234375	
62	0.248	0.0	0.0	0.0	0.0	4.644	4.671	4.674	4.632	9.990404977416992	0.16879121704101563	0.007781155395507812	3.330230712890625	-3.940582275390625	-1.0986328125	9.788693487548828	-0.46148236999511716	0.08439560852050781	0.316619873046875	-5.146026611328125	-3.520965576171875	10.228628042602539	-0.10295067138671875	-0.3333925811767578	2.902984619140625	-4.840850830078125	-1.560211181640625	
63	0.252	0.0	0.0	0.0	0.0	4.641	4.671	4.674	4.623	9.87727894897461	0.15502455749511718	-0.003591302490234375	3.0975341796875	-3.90625	-1.064300537109375	9.73661960144043	-0.17178396911621094	0.13108254089355467	0.438690185546875	-5.126953125	-3.08990478515625	9.816825357055663	-0.4584896179199218	-0.1514332550048828	2.61688232421875	-4.337310791015625	-1.804351806640625	
64	0.256	0.0	0.0	0.0	0.0	4.647	4.671	4.671	4.62	9.93294413757324	0.04249707946777344	0.06883329772949218	2.887725830078125	-3.85284423828125	-1.15966796875	9.80066449584961	-0.35793314819335936	0.19931728820800781	-0.06866455078125	-5.36346435546875	-2.819061279296875	10.06163247680664	-0.03890577697753906	-0.27353753967285155	2.66265869140625	-4.43267822265625	-1.41143798828125	
65	0.26	0.0	0.0	0.0	0.0	4.641	4.668	4.671	4.638	10.041880313110351	0.2765302917480469	-0.2825157958984375	3.803253173828125	-3.997802734375	-1.373291015625	9.871891995239258	-0.36631285400390623	0.028730419921875	-0.05340576171875	-5.16510009765625	-3.30352783203125	10.39981346130371	-0.5829881042480468	-0.690128628540039	2.7923583984375	-4.375457763671875	-1.262664794921875	
66	0.264	0.0	0.0	0.0	0.0	4.644	4.674	4.674	4.638	9.942520944213866	0.0	0.016759411621093748	2.918243408203125	-3.68499755859375	-0.850677490234375	9.776123928833007	-0.3022679595947265	0.20949264526367187	0.003814697265625	-5.275726318359375	-2.89154052734375	10.038289010620117	-0.03531447448730469	-0.2998737579345703	2.75421142578125	-4.673004150390625	-1.293182373046875	
67	0.268	0.0	0.0	0.0	0.0	4.644	4.674	4.671	4.638	10.008361489868163	0.4129997863769531	-0.2711433380126953	4.123687744140625	-4.08935546875	-1.300811767578125	9.917980377197265	-0.2723404388427734	-0.15083470458984374	0.591278076171875	-5.023956298828125	-3.376007080078125	10.178349807739258	-0.3842693664550781	-0.536899722290039	3.21197509765625	-4.619598388671875	-1.262664794921875	
68	0.272	0.0	0.0	0.0	0.0	4.635	4.671	4.671	4.644	9.993397729492187	0.0	-0.06703764648437499	4.08935546875	-4.322052001953125	-1.399993896484375	9.91558617553711	-0.4213794921875	0.10714052429199218	0.60272216796875	-5.245208740234375	-3.032684326171875	10.175955606079102	-0.17657237243652343	-0.3764882110595703	2.971649169921875	-4.657745361328125	-1.598358154296875	
69	0.276	0.0	0.0	0.0	0.0	4.644	4.671	4.674	4.638	10.066420880126952	0.2555810272216797	-0.36750995483398435	3.765106201171875	-3.997802734375	-1.41143798828125	10.001777435302733	-0.3076549133300781	-0.16998831787109375	0.7171630859375	-4.833221435546875	-3.566741943359375	10.272920773315429	-0.3950432739257812	-0.5542576843261718	2.803802490234375	-4.543304443359375	-1.529693603515625	
70	0.28	0.0	0.0	0.0	0.0	4.641	4.674	4.674	4.623	9.760561618041992	0.3890577697753906	0.0939724151611328	4.108428955078125	-4.314422607421875	-1.590728759765625	9.670180505371093	-0.08439560852050781	0.2609679809570312	0.3509521484375	-5.2947998046875	-3.41033935546875	9.919177478027343	-0.09277531433105468	-0.07481880187988281	2.99835205078125	-4.608154296875	-1.773834228515625	
71	0.28400000000000003	0.0	0.0	0.0	0.0	4.6530000000000005	4.671	4.671	0.006	10.035894808959961	0.33698388366699217	-0.3687070556640625	3.482818603515625	-3.772735595703125	-1.483917236328125	9.974244116210937	-0.2914940521240234	-0.11791443176269531	0.6866455078125	-5.100250244140625	-3.39508056640625	10.256161361694335	-0.42317514343261714	-0.5129577056884765	2.742767333984375	-4.50897216796875	-1.331329345703125	
72	0.28800000000000003	0.0	0.0	0.0	0.0	0.006	0.003	0.003	0.003	9.808445651245117	0.3441664886474609	0.054468087768554684	4.047393798828125	-4.161834716796875	-1.495361328125	9.759963067626952	-0.18076222534179687	0.20470424194335937	0.335693359375	-5.01251220703125	-3.2806396484375	10.06881508178711	-0.21248539733886718	-0.19213468322753904	3.017425537109375	-4.7607421875	-1.636505126953125	
73	0.292	0.0	0.0	0.0	0.0	0.003	0.006	0.003	0.009000000000000001	9.848548529052733	0.16340426330566404	0.006584054565429687	2.384185791015625	-3.696441650390625	-1.056671142578125	9.910797772216796	-0.2328361114501953	0.00239420166015625	0.32806396484375	-5.34820556640625	-3.6468505859375	9.910199221801758	-0.18076222534179687	-0.25139117431640623	2.98309326171875	-4.642486572265625	-1.216888427734375	
74	0.296	0.0	0.0	0.0	0.0	0.006	0.003	0.003	0.006	9.743203656005859	0.3854664672851562	0.21248539733886718	3.841400146484375	-4.14276123046875	-1.46484375	9.731232647705077	-0.0796072052001953	0.3142389678955078	-0.194549560546875	-5.031585693359375	-3.35693359375	10.090362896728514	-0.1640028137207031	-0.27174188842773433	3.173828125	-4.49371337890625	-1.44195556640625	
75	0.3	0.0	0.0	0.0	0.0	0.006	0.003	0.003	0.003	9.888651406860351	0.19393033447265623	-0.001197100830078125	2.227783203125	-3.53240966796875	-1.22833251953125	9.788094937133788	-0.5021837982177734	0.12569558715820311	0.030517578125	-5.084991455078125	-3.536224365234375	10.049661468505859	-0.3399766357421875	-0.39264907226562495	2.8076171875	-4.703521728515625	-1.377105712890625	
76	0.304	0.0	0.0	0.0	0.0	0.003	0.003	0.006	0.003	9.775525378417969	0.3699041564941406	0.12988544006347655	3.887176513671875	-4.119873046875	-1.373291015625	9.696516723632811	-0.037708676147460936	0.22685060729980466	-0.7476806640625	-5.08880615234375	-3.261566162109375	9.634267480468749	-0.20231004028320312	0.18255787658691405	2.338409423828125	-4.428863525390625	-1.789093017578125	
77	0.308	0.0	0.0	0.0	0.0	0.006	0.003	0.003	0.006	9.883264453125	0.11552023010253906	0.008379705810546874	2.552032470703125	-3.7078857421875	-1.003265380859375	9.73602105102539	-0.4417302062988281	0.2723404388427734	0.0457763671875	-5.146026611328125	-3.269195556640625	10.01733974609375	-0.28909985046386716	-0.3848679168701172	3.0975341796875	-4.848480224609375	-1.4801025390625	
78	0.312	0.0	0.0	0.0	0.0	0.003	0.003	0.003	0.006	9.84435867614746	-0.13168109130859373	0.04608838195800781	1.77001953125	-3.19671630859375	-0.736236572265625	9.713276135253906	-0.26396073303222656	0.30047230834960936	0.095367431640625	-5.092620849609375	-3.570556640625	9.771934075927733	-0.30526071166992186	0.18255787658691405	2.696990966796875	-4.547119140625	-1.4495849609375	
79	0.316	0.0	0.0	0.0	0.0	0.003	0.003	0.006	0.003	9.843760125732421	0.11432312927246092	-0.008379705810546874	2.895355224609375	-3.787994384765625	-1.125335693359375	9.745597857666015	-0.4064157318115234	0.15322890625	-0.06103515625	-4.98199462890625	-3.635406494140625	9.916783276367187	-0.22744915771484372	-0.16519991455078123	2.498626708984375	-4.76837158203125	-1.94549560546875	
80	0.32	0.0	0.0	0.0	0.0	0.0	0.003	0.003	0.006	9.78629928588867	-0.03890577697753906	0.12629413757324218	1.922607421875	-3.322601318359375	-0.682830810546875	9.705494979858399	-0.20470424194335937	0.21248539733886718	0.51116943359375	-5.146026611328125	-3.62396240234375	9.679158761596678	-0.1879448303222656	0.21607669982910155	2.51007080078125	-4.4708251953125	-1.5716552734375	
81	0.324	0.0	0.0	0.0	0.0	0.003	0.003	0.003	0.006	9.925162982177733	0.1406593475341797	-0.08259995727539061	2.6397705078125	-3.673553466796875	-1.071929931640625	9.78629928588867	-0.4896142395019531	0.07003039855957031	-0.19073486328125	-5.1727294921875	-3.086090087890625	9.828197814941406	-0.40761283264160153	0.0652419952392578	2.643585205078125	-4.72259521484375	-1.80816650390625	
82	0.328	0.0	0.0	0.0	0.0	0.009000000000000001	0.003	0.003	0.003	9.847949978637695	0.08798691101074219	0.02154781494140625	2.208709716796875	-3.101348876953125	-0.766754150390625	9.628880526733397	-0.19153613281249998	0.31663316955566406	0.110626220703125	-4.76837158203125	-3.5552978515625	9.637858782958984	-0.2041056915283203	0.2292448089599609	2.61688232421875	-4.425048828125	-1.651763916015625	
83	0.332	0.0	0.0	0.0	0.0	0.003	0.003	0.003	0.003	9.943718045043944	0.2819172454833984	-0.1352723937988281	3.192901611328125	-3.826141357421875	-0.698089599609375	9.624092123413085	-0.40462008056640625	0.16160861206054686	0.133514404296875	-5.176544189453125	-3.070831298828125	9.667187753295899	-0.2747346405029297	0.10953472595214843	2.73895263671875	-4.543304443359375	-1.766204833984375	
84	0.336	0.0	0.0	0.0	0.0	0.006	0.003	0.003	0.006	9.897629663085937	-0.03232172241210937	-0.001197100830078125	2.4261474609375	-3.48663330078125	-0.80108642578125	9.85752678527832	-0.3130418670654297	0.023343466186523436	0.438690185546875	-5.046844482421875	-3.27301025390625	10.025719451904296	-0.24361001892089842	-0.12509703674316405	2.75421142578125	-4.364013671875	-1.48773193359375	
85	0.34	0.0	0.0	0.0	0.0	0.003	0.003	0.003	0.003	9.996390481567381	0.011971008300781249	-0.15682020874023436	3.284454345703125	-3.95965576171875	-1.003265380859375	9.687538467407226	-0.5692214447021484	0.07841010437011718	-0.02288818359375	-4.9896240234375	-3.23486328125	9.737816702270507	-0.4471171600341797	0.005985504150390624	2.513885498046875	-4.75311279296875	-1.880645751953125	
86	0.34400000000000003	0.0	0.0	0.0	0.0	0.003	0.003	0.003	0.0	10.018536846923828	0.22385785522460935	-0.21787235107421873	3.80706787109375	-3.993988037109375	-1.1749267578125	9.80724855041504	-0.12090718383789062	-0.055066638183593745	0.45013427734375	-5.153656005859375	-3.276824951171875	9.880271701049804	-0.05626373901367187	-0.19213468322753904	2.796173095703125	-4.39453125	-1.461029052734375	
87	0.34800000000000003	0.0	0.0	0.0	0.0	0.003	0.003	0.003	0.006	9.97184991455078	0.16759411621093748	-0.09935936889648436	3.35693359375	-4.192352294921875	-0.87738037109375	9.836577520751952	-0.43933600463867184	0.2280477081298828	-0.08392333984375	-5.237579345703125	-3.02886962890625	10.129268673706054	-0.33399113159179683	-0.21487959899902342	3.108978271484375	-4.665374755859375	-1.049041748046875	
88	0.352	0.0	0.0	0.0	0.0	0.003	0.003	0.003	0.006	10.053252770996092	0.17238251953125	-0.14305354919433594	3.60870361328125	-4.2572021484375	-1.346588134765625	9.91438907470703	-0.36930560607910157	-0.05386953735351562	0.457763671875	-4.852294921875	-3.139495849609375	10.097545501708984	-0.2424129180908203	-0.19871873779296872	2.796173095703125	-4.276275634765625	-1.708984375	
89	0.356	0.0	0.0	0.0	0.0	0.003	0.003	0.003	0.003	9.980229620361328	0.24301146850585936	-0.21966800231933592	3.7994384765625	-4.413604736328125	-1.201629638671875	9.740809454345703	-0.2663549346923828	0.2825157958984375	0.3204345703125	-5.31005859375	-3.4332275390625	9.993397729492187	-0.2442085693359375	-0.3010708587646484	2.803802490234375	-4.8065185546875	-1.483917236328125	
90	0.36	0.0	0.0	0.0	0.0	0.003	0.003	0.003	0.006	9.970652813720703	0.18734627990722655	-0.04249707946777344	4.062652587890625	-4.21905517578125	-1.255035400390625	9.86411083984375	-0.17597382202148437	0.16998831787109375	0.40435791015625	-5.031585693359375	-2.910614013671875	10.102333905029296	-0.002992752075195312	-0.6793547210693359	3.055572509765625	-4.634857177734375	-1.422882080078125	
91	0.364	0.0	0.0	0.0	0.0	0.003	0.003	0.003	0.003	9.749189160156249	0.21188684692382811	0.4435258575439453	3.856658935546875	-3.780364990234375	-1.399993896484375	9.93294413757324	-0.4112041351318359	0.2609679809570312	0.41961669921875	-5.336761474609375	-3.231048583984375	10.296264239501953	-0.48063598327636714	-0.3142389678955078	2.704620361328125	-4.5013427734375	-1.392364501953125	
92	0.368	0.0	0.0	0.0	0.0	0.003	0.003	0.003	0.003	9.923367330932617	0.4147954376220703	-0.06464344482421874	4.138946533203125	-4.08172607421875	-1.42669677734375	9.919177478027343	-0.18255787658691405	-0.006584054565429687	0.247955322265625	-4.833221435546875	-3.566741943359375	10.205284576416014	-0.2424129180908203	-0.6141127258300781	2.7618408203125	-4.39453125	-1.789093017578125	
93	0.372	0.0	0.0	0.0	0.0	0.003	0.003	0.006	0.003	9.62169792175293	0.5440823272705078	0.4495113616943359	4.2724609375	-4.047393798828125	-1.89971923828125	9.776123928833007	-0.37229835815429685	0.33039982910156246	-0.087738037109375	-5.19561767578125	-3.41033935546875	10.04906291809082	-0.1927332336425781	-0.32561142578124996	2.76947021484375	-4.53948974609375	-1.0833740234375	
94	0.376	0.0	0.0	0.0	0.0	0.003	0.003	0.003	0.006	9.917980377197265	0.06643909606933593	0.10295067138671875	2.513885498046875	-3.223419189453125	-1.110076904296875	10.075997686767577	-0.2771288421630859	0.08798691101074219	0.179290771484375	-4.993438720703125	-3.345489501953125	10.449493145751953	-0.479438882446289	-0.6590040069580078	2.899169921875	-4.58526611328125	-1.506805419921875	
95	0.38	0.0	0.0	0.0	0.0	0.003	0.003	0.003	0.003	9.74859060974121	0.27892449340820313	0.29269115295410153	3.3416748046875	-3.44085693359375	-1.613616943359375	9.728239895629882	-0.39264907226562495	0.36272155151367186	0.00762939453125	-5.01251220703125	-3.429412841796875	10.020931048583984	-0.20949264526367187	-0.10893617553710937	2.727508544921875	-4.543304443359375	-1.461029052734375	
96	0.384	0.0	0.0	0.0	0.0	0.003	0.003	0.003	0.003	9.854534033203125	0.20051438903808594	-0.1197100830078125	1.796722412109375	-3.330230712890625	-0.946044921875	9.827599264526366	0.011372457885742187	0.0053869537353515625	0.23651123046875	-5.146026611328125	-3.1280517578125	10.08078609008789	-0.15023615417480468	-0.661398208618164	2.78472900390625	-4.512786865234375	-1.35040283203125	
97	0.388	0.0	0.0	0.0	0.0	0.003	0.003	0.003	0.003	9.798270294189452	0.38666356811523434	0.14604630126953125	3.589630126953125	-4.055023193359375	-1.316070556640625	9.822810861206055	-0.49739539489746093	0.2867056488037109	0.09918212890625	-5.27191162109375	-3.170013427734375	10.092158547973632	-0.18076222534179687	-0.05686228942871093	3.032684326171875	-5.016326904296875	-1.0223388671875	
98	0.392	0.0	0.0	0.0	0.0	0.0	0.003	0.003	0.006	9.95987890625	0.11372457885742186	-0.2561795776367187	2.06756591796875	-3.505706787109375	-1.476287841796875	9.95987890625	-0.3333925811767578	-0.1388636962890625	0.095367431640625	-5.062103271484375	-3.62396240234375	10.070012182617187	-0.6590040069580078	-0.3333925811767578	2.902984619140625	-4.7760009765625	-1.598358154296875	
99	0.396	0.0	0.0	0.0	0.0	0.006	0.003	0.003	0.003	9.91438907470703	0.11851298217773437	-0.10953472595214843	2.765655517578125	-3.66973876953125	-1.15966796875	9.597157354736327	-0.16998831787109375	0.3094505645751953	0.377655029296875	-4.787445068359375	-3.39508056640625	9.798270294189452	0.1370680450439453	-0.10953472595214843	2.76947021484375	-4.619598388671875	-1.377105712890625	
100	0.4	0.0	0.0	0.0	0.0	0.003	0.003	0.006	0.006	9.740809454345703	0.13287819213867186	0.0987608184814453	2.178192138671875	-3.76129150390625	-0.934600830078125	9.884461553955077	-0.201112939453125	-0.047285482788085934	0.316619873046875	-4.8675537109375	-3.467559814453125	9.861118087768554	-0.3806780639648437	-0.15203180541992187	2.887725830078125	-4.810333251953125	-1.148223876953125	
101	0.404	0.0	0.0	0.0	0.0	0.006	0.003	0.003	0.003	9.91558617553711	0.022744915771484374	-0.08259995727539061	2.7313232421875	-3.72314453125	-1.64794921875	9.823409411621093	-0.6003460662841796	0.19153613281249998	0.1983642578125	-4.978179931640625	-3.42559814453125	9.959280355834961	-0.37828386230468747	0.12090718383789062	2.582550048828125	-4.669189453125	-1.827239990234375	
102	0.40800000000000003	0.0	0.0	0.0	0.0	0.003	0.003	0.003	0.003	9.795277542114258	0.3495534423828125	0.02154781494140625	2.37274169921875	-3.33404541015625	-1.384735107421875	9.80605144958496	-0.052073886108398436	-0.1352723937988281	0.52642822265625	-4.840850830078125	-3.421783447265625	9.832986218261718	-0.296881005859375	-0.4082113830566406	2.777099609375	-4.642486572265625	-1.819610595703125	
103	0.41200000000000003	0.0	0.0	0.0	0.0	0.003	0.003	0.003	0.003	9.7683427734375	-0.09636661682128905	0.0430956298828125	1.766204833984375	-3.387451171875	-0.90789794921875	9.543886367797851	-0.3076549133300781	0.47584757995605464	0.232696533203125	-5.0201416015625	-3.22723388671875	9.536105212402344	0.010175357055664061	0.19393033447265623	2.54058837890625	-4.611968994140625	-1.323699951171875	
104	0.41600000000000004	0.0	0.0	0.0	0.0	0.003	0.003	0.003	0.003	9.958681805419921	-0.19692308654785154	-0.27174188842773433	2.971649169921875	-4.2724609375	-0.9307861328125	9.765948571777344	-0.5776011505126952	0.09217676391601562	0.164031982421875	-5.344390869140625	-3.3111572265625	10.096946951293944	-0.6859387756347656	-0.27832594299316404	2.38800048828125	-4.978179931640625	-1.567840576171875	
105	0.42	0.0	0.0	0.0	0.0	0.003	0.003	0.003	0.003	9.90900212097168	-0.10773907470703124	-0.12569558715820311	1.65557861328125	-3.246307373046875	-1.041412353515625	9.701305126953125	-0.34237083740234375	0.11671733093261719	-0.041961669921875	-4.9285888671875	-3.520965576171875	9.770138424682617	-0.13108254089355467	-0.15263035583496093	2.513885498046875	-4.608154296875	-2.05230712890625	
106	0.424	0.0	0.0	0.0	0.0	0.003	0.003	0.003	0.003	9.822212310791015	0.0796072052001953	-0.17477672119140625	2.704620361328125	-3.688812255859375	-0.69427490234375	9.573215338134766	-0.2166752502441406	0.07062894897460938	0.019073486328125	-5.02777099609375	-3.086090087890625	9.526528405761718	-0.15861585998535155	0.13766659545898435	2.50244140625	-4.489898681640625	-1.068115234375	
107	0.428	0.0	0.0	0.0	0.0	0.003	0.003	0.003	0.006	9.812036953735351	-0.010773907470703125	0.05626373901367187	4.306793212890625	-4.24957275390625	-1.125335693359375	9.727641345214844	-0.49739539489746093	0.22505495605468748	0.011444091796875	-4.993438720703125	-3.246307373046875	9.836577520751952	-0.3716998077392578	0.09277531433105468	2.47955322265625	-4.741668701171875	-1.834869384765625	
108	0.432	0.0	0.0	0.0	0.0	0.0	0.003	0.003	0.006	9.97244846496582	-0.03531447448730469	-0.2920926025390625	2.910614013671875	-3.787994384765625	-1.10626220703125	9.849147079467773	-0.4100070343017578	-0.19213468322753904	0.225067138671875	-5.130767822265625	-3.314971923828125	10.024522351074218	-0.31004911499023435	-0.2741360900878906	2.445220947265625	-4.32586669921875	-1.613616943359375	
109	0.436	0.0	0.0	0.0	0.0	0.006	0.003	0.003	0.003	9.936535440063476	0.296881005859375	-0.18555062866210936	3.681182861328125	-3.681182861328125	-0.881195068359375	9.555857376098633	-0.20051438903808594	0.22266075439453123	-0.20599365234375	-4.779815673828125	-3.47137451171875	9.83897172241211	-0.30466216125488277	-0.28730419921875	2.7618408203125	-4.2572021484375	-1.5411376953125	
110	0.44	0.0	0.0	0.0	0.0	0.003	4.65	4.665	4.644	9.79408044128418	0.047884033203124995	-0.062249243164062495	2.86865234375	-4.016876220703125	-1.064300537109375	9.724648593139648	-0.36930560607910157	0.28909985046386716	0.08392333984375	-5.718231201171875	-3.082275390625	9.750386260986328	-0.21906945190429686	0.1274912384033203	2.361297607421875	-4.451751708984375	-1.445770263671875	
111	0.444	0.0	0.0	0.0	0.0	4.644	4.671	4.674	4.635	10.133458526611328	0.07122749938964844	-0.4255693450927734	3.814697265625	-4.241943359375	-1.2664794921875	9.858125335693359	-0.4070142822265625	0.008978256225585938	-0.2899169921875	-4.741668701171875	-3.48663330078125	10.261548315429687	-0.5817910034179687	-0.5021837982177734	2.773284912109375	-4.5623779296875	-1.6937255859375	
112	0.448	0.0	0.0	0.0	0.0	4.641	4.671	4.674	4.62	9.93294413757324	0.3064578125	0.03531447448730469	3.692626953125	-4.009246826171875	-1.0833740234375	9.80006594543457	-0.25438392639160157	0.12868833923339842	0.247955322265625	-5.260467529296875	-2.86102294921875	10.119691867065429	0.0526724365234375	-0.3848679168701172	3.009796142578125	-4.47845458984375	-1.293182373046875	
113	0.452	0.0	0.0	0.0	0.0	4.644	4.671	4.671	4.623	9.820416659545899	0.21607669982910155	-0.002992752075195312	3.44085693359375	-3.6468505859375	-0.942230224609375	9.540295065307618	-0.28969840087890625	0.40462008056640625	0.457763671875	-5.02777099609375	-3.2196044921875	9.813234054565429	-0.4333505004882812	-0.11671733093261719	2.52532958984375	-4.405975341796875	-1.697540283203125	
114	0.456	0.0	0.0	0.0	0.0	4.644	4.665	4.671	4.635	9.920973129272461	0.1640028137207031	0.105344873046875	3.314971923828125	-3.875732421875	-1.068115234375	9.997587582397461	-0.47644613037109373	0.03531447448730469	-0.019073486328125	-5.313873291015625	-2.93731689453125	10.303446844482421	-0.08379705810546874	-0.4010287780761719	2.96783447265625	-4.67681884765625	-1.399993896484375	
115	0.46	0.0	0.0	0.0	0.0	4.641	4.674	4.674	4.638	9.95987890625	0.0143652099609375	-0.1975216369628906	3.41796875	-3.41796875	-0.865936279296875	10.035894808959961	-0.24361001892089842	-0.21487959899902342	0.58746337890625	-4.856109619140625	-3.59344482421875	10.113706362915039	-0.5404910247802734	-0.5069722015380859	2.838134765625	-3.5247802734375	-1.53350830078125	
116	0.464	0.0	0.0	0.0	0.0	4.641	4.674	4.674	4.638	9.721655841064452	0.33099837951660155	0.28969840087890625	3.192901611328125	-3.635406494140625	-0.988006591796875	9.654618194580078	-0.354341845703125	0.3142389678955078	0.3204345703125	-5.37872314453125	-3.0059814453125	9.935936889648437	0.1083376251220703	-0.24899697265624998	2.8076171875	-4.67681884765625	-1.346588134765625	
117	0.468	0.0	0.0	0.0	0.0	4.638	4.671	4.671	4.644	9.97843396911621	0.4333505004882812	-0.12868833923339842	3.627777099609375	-3.879547119140625	-1.33514404296875	9.988609326171874	-0.2059013427734375	-0.06823474731445311	0.682830810546875	-5.10406494140625	-3.292083740234375	10.222642538452147	-0.44532150878906246	-0.4656722229003906	3.108978271484375	-4.76837158203125	-1.07574462890625	
118	0.47200000000000003	0.0	0.0	0.0	0.0	4.644	4.671	4.674	4.6290000000000004	9.918578927612304	0.07781155395507812	-0.033518823242187495	3.5552978515625	-3.772735595703125	-1.323699951171875	9.961076007080077	-0.36092590026855464	0.010773907470703125	0.286102294921875	-5.08880615234375	-3.0517578125	10.341754071044921	-0.13766659545898435	-0.5817910034179687	2.841949462890625	-4.66156005859375	-1.377105712890625	
119	0.47600000000000003	0.0	0.0	0.0	0.0	4.641	4.674	4.674	4.623	9.957484704589843	0.26396073303222656	-0.19512743530273435	2.9449462890625	-3.448486328125	-1.300811767578125	9.823409411621093	-0.1406593475341797	0.02454056701660156	0.29754638671875	-5.07354736328125	-3.36456298828125	10.122684619140625	-0.34835634155273437	-0.5219359619140624	2.67791748046875	-4.138946533203125	-1.2969970703125	
120	0.48	0.0	0.0	0.0	0.0	4.644	4.671	0.003	0.003	9.75517466430664	0.18734627990722655	0.258573779296875	3.978729248046875	-4.1046142578125	-1.369476318359375	9.725247143554688	-0.19153613281249998	0.3130418670654297	0.194549560546875	-5.1116943359375	-2.96783447265625	9.785102185058593	-0.052073886108398436	0.09756371765136718	2.98309326171875	-5.062103271484375	-1.522064208984375	
121	0.484	0.0	0.0	0.0	0.0	0.003	0.006	0.003	0.003	10.059238275146484	0.1227028350830078	-0.2537853759765625	2.81524658203125	-3.6468505859375	-1.300811767578125	10.091559997558592	-0.3064578125	-0.16160861206054686	0.713348388671875	-5.126953125	-3.582000732421875	10.443507641601562	-0.5057751007080078	-0.6171054779052734	2.95257568359375	-4.627227783203125	-1.38092041015625	
122	0.488	0.0	0.0	0.0	0.0	0.006	0.003	0.003	0.006	9.841365924072266	0.25917232971191406	0.0430956298828125	3.536224365234375	-3.780364990234375	-1.483917236328125	9.76175871887207	-0.1771709228515625	0.21188684692382811	0.362396240234375	-5.138397216796875	-3.15093994140625	9.9981861328125	-0.1975216369628906	-0.08858546142578125	2.719879150390625	-4.833221435546875	-1.766204833984375	
123	0.492	0.0	0.0	0.0	0.0	0.003	0.003	0.003	0.003	9.815628256225585	0.1514332550048828	0.1304839904785156	2.902984619140625	-3.459930419921875	-1.36566162109375	9.767145672607422	-0.239420166015625	0.13646949462890623	0.583648681640625	-5.27191162109375	-3.4637451171875	9.765948571777344	-0.10714052429199218	-0.11851298217773437	2.72369384765625	-4.871368408203125	-1.39617919921875	
124	0.496	0.0	0.0	0.0	0.0	0.006	0.003	0.003	0.003	9.938929641723632	0.2041056915283203	-0.03172317199707031	2.9754638671875	-3.910064697265625	-1.068115234375	9.810839852905273	-0.21248539733886718	0.18375497741699218	0.225067138671875	-5.054473876953125	-3.437042236328125	10.111910711669921	-0.28431144714355466	-0.15382745666503905	2.99835205078125	-4.852294921875	-1.560211181640625	
125	0.5	0.0	0.0	0.0	0.0	0.003	0.006	0.003	0.003	10.00955859069824	0.058657940673828124	-0.18315642700195311	3.44085693359375	-4.1046142578125	-1.62506103515625	10.022726699829102	-0.4836287353515625	-0.1406593475341797	0.274658203125	-5.0811767578125	-3.662109375	10.09993970336914	-0.3298012786865234	-0.3573345977783203	2.803802490234375	-4.8980712890625	-1.476287841796875	
126	0.504	0.0	0.0	0.0	0.0	0.003	0.003	0.003	0.006	9.72285294189453	0.06344634399414062	0.2184709014892578	2.410888671875	-3.482818603515625	-1.506805419921875	9.61451531677246	-0.06584054565429687	0.2615665313720703	0.324249267578125	-5.474090576171875	-3.25775146484375	9.744999307250977	-0.12868833923339842	0.054468087768554684	2.376556396484375	-4.474639892578125	-1.735687255859375	
127	0.508	0.0	0.0	0.0	0.0	0.003	0.003	0.003	0.003	9.884461553955077	0.16879121704101563	-0.11791443176269531	3.093719482421875	-4.146575927734375	-0.797271728515625	9.654019644165038	-0.45190556335449217	0.24121581726074218	0.244140625	-5.30242919921875	-3.383636474609375	9.943718045043944	-0.1975216369628906	-0.30047230834960936	2.43377685546875	-4.8370361328125	-1.64031982421875	
128	0.512	0.0	0.0	0.0	0.0	0.003	0.003	0.003	0.006	9.937133990478515	-0.011372457885742187	-0.032920272827148434	2.471923828125	-3.53240966796875	-1.194000244140625	9.849147079467773	-0.2813186950683594	0.1897404815673828	0.37384033203125	-4.8065185546875	-3.5858154296875	9.92217023010254	-0.4830301849365234	0.04967968444824218	2.758026123046875	-4.611968994140625	-1.583099365234375	
129	0.516	0.0	0.0	0.0	0.0	0.003	0.003	0.003	0.003	9.848548529052733	0.1640028137207031	-0.1274912384033203	2.880096435546875	-3.398895263671875	-1.28173828125	9.557653027343749	-0.46686932373046874	0.3094505645751953	0.1373291015625	-4.955291748046875	-3.66973876953125	9.756371765136718	-0.2214636535644531	-0.15322890625	2.780914306640625	-4.642486572265625	-1.834869384765625	
130	0.52	0.0	0.0	0.0	0.0	0.006	0.003	0.003	0.006	9.801861596679688	0.04848258361816406	0.06464344482421874	2.99835205078125	-3.711700439453125	-0.69427490234375	9.559448678588867	-0.18315642700195311	0.26755203552246093	-0.06866455078125	-5.077362060546875	-3.047943115234375	9.56363853149414	-0.17417817077636719	0.19991583862304688	2.57110595703125	-4.72259521484375	-1.41143798828125	
131	0.524	0.0	0.0	0.0	0.0	0.003	0.003	0.003	0.003	10.012551342773437	-0.086191259765625	-0.3298012786865234	2.34222412109375	-3.543853759765625	-0.835418701171875	9.815029705810547	-0.5470750793457031	0.07481880187988281	-0.209808349609375	-5.077362060546875	-3.261566162109375	9.903615167236328	-0.48063598327636714	-0.05386953735351562	2.666473388671875	-4.52423095703125	-1.617431640625	
132	0.528	0.0	0.0	0.0	0.0	0.003	0.003	0.003	0.003	9.950302099609374	0.07781155395507812	-0.16699556579589842	3.513336181640625	-3.7078857421875	-1.132965087890625	9.71686743774414	-0.4483142608642578	0.07003039855957031	-0.03814697265625	-4.840850830078125	-3.421783447265625	9.765350021362304	-0.3190273712158203	0.09636661682128905	2.6702880859375	-4.49371337890625	-1.483917236328125	
133	0.532	0.0	0.0	0.0	0.0	0.006	0.003	0.003	0.003	9.83837317199707	0.13587094421386717	-0.14484920043945312	3.696441650390625	-4.367828369140625	-1.247406005859375	9.543287817382812	-0.16460136413574217	0.2549824768066406	0.41961669921875	-5.54656982421875	-2.964019775390625	9.546879119873047	-0.25438392639160157	0.02693476867675781	2.50244140625	-4.75311279296875	-1.758575439453125	
134	0.536	0.0	0.0	0.0	0.0	0.003	0.003	0.003	0.003	9.956287603759765	-0.09696516723632811	-0.16460136413574217	3.021240234375	-3.787994384765625	-0.72479248046875	9.769539874267577	-0.4542997650146484	0.05566518859863281	-0.00762939453125	-4.99725341796875	-3.017425537109375	10.077194787597655	-0.17357962036132812	-0.29568390502929687	3.055572509765625	-4.756927490234375	-1.39617919921875	
135	0.54	0.0	0.0	0.0	0.0	0.006	0.003	0.003	0.006	10.041281762695311	-0.06464344482421874	-0.27952304382324217	3.955841064453125	-4.20379638671875	-1.110076904296875	9.90241806640625	-0.6003460662841796	-0.04967968444824218	0.41961669921875	-5.126953125	-3.208160400390625	9.894038360595703	-0.5973533142089843	-0.08559270935058594	2.262115478515625	-4.581451416015625	-1.842498779296875	
136	0.544	0.0	0.0	0.0	0.0	0.003	0.003	0.003	0.009000000000000001	9.903016616821288	0.12988544006347655	-0.1693897674560547	3.368377685546875	-3.879547119140625	-0.6866455078125	9.551667523193359	-0.1562216583251953	0.1771709228515625	0.759124755859375	-5.283355712890625	-3.30352783203125	9.954491952514648	-0.022146365356445312	-0.3022679595947265	2.780914306640625	-4.253387451171875	-1.5869140625	
137	0.548	0.0	0.0	0.0	0.0	0.003	0.003	0.003	0.003	9.873089096069336	0.16460136413574217	-0.027533319091796873	3.97491455078125	-4.322052001953125	-1.026153564453125	9.721655841064452	-0.4908113403320312	0.12330138549804687	0.217437744140625	-5.245208740234375	-3.04412841796875	9.719261639404296	-0.46148236999511716	0.04548983154296875	2.948760986328125	-4.84466552734375	-1.1749267578125	
138	0.552	0.0	0.0	0.0	0.0	0.003	0.003	0.003	0.003	9.967660061645507	0.13347674255371092	0.04848258361816406	4.032135009765625	-3.9520263671875	-1.384735107421875	10.045471615600585	-0.2603694305419922	-0.03411737365722656	0.514984130859375	-5.0201416015625	-3.31878662109375	10.281899029541014	-0.2472013214111328	-0.36272155151367186	3.040313720703125	-4.3487548828125	-1.407623291015625	
139	0.556	0.0	0.0	0.0	0.0	0.003	0.003	0.003	0.006	9.832986218261718	-0.008379705810546874	0.18375497741699218	3.6468505859375	-4.077911376953125	-1.2054443359375	9.657012396240233	-0.4644751220703125	0.17238251953125	0.28228759765625	-5.33294677734375	-3.25775146484375	10.156203442382813	-0.3890577697753906	-0.4100070343017578	3.025054931640625	-4.734039306640625	-1.422882080078125	
140	0.56	0.0	0.0	0.0	0.0	0.0	0.003	0.003	0.003	9.807847100830077	0.4632780212402344	0.11611878051757812	3.6163330078125	-3.810882568359375	-1.3580322265625	9.777919580078125	-0.023343466186523436	0.1083376251220703	0.667572021484375	-5.199432373046875	-3.108978271484375	9.96586441040039	0.006584054565429687	-0.3435679382324219	2.964019775390625	-4.199981689453125	-1.232147216796875	
141	0.5640000000000001	0.0	0.0	0.0	0.0	0.006	0.003	0.003	0.003	9.952696301269532	0.0	0.1693897674560547	3.467559814453125	-3.9520263671875	-1.155853271484375	9.917980377197265	-0.5135562561035156	0.24480711975097655	-0.55694580078125	-4.947662353515625	-3.2196044921875	10.314220751953124	-0.4321533996582031	-0.43634325256347656	2.92205810546875	-4.825592041015625	-1.129150390625	
142	0.5680000000000001	0.0	0.0	0.0	0.0	-0.003	0.003	0.003	0.003	9.966462960815429	0.2651578338623047	-0.12090718383789062	3.92913818359375	-3.917694091796875	-1.743316650390625	9.897629663085937	-0.2651578338623047	-0.04908113403320312	0.22125244140625	-4.856109619140625	-3.078460693359375	10.286687432861328	-0.4997895965576172	-0.5488707305908203	3.04412841796875	-4.55474853515625	-2.017974853515625	
143	0.5720000000000001	0.0	0.0	0.0	0.0	0.003	0.003	0.003	0.006	9.71686743774414	0.4423287567138672	0.12030863342285156	3.490447998046875	-3.90625	-1.148223876953125	9.636661682128906	-0.23403321228027343	0.3806780639648437	0.057220458984375	-5.123138427734375	-3.147125244140625	9.911396322631836	-0.018555062866210937	-0.33518823242187495	2.83050537109375	-4.7454833984375	-1.018524169921875	
144	0.5760000000000001	0.0	0.0	0.0	0.0	0.006	0.003	0.006	0.006	10.020931048583984	0.21128829650878905	-0.18914193115234373	3.6163330078125	-3.94439697265625	-0.911712646484375	9.94671079711914	-0.17896657409667968	-0.06045359191894531	0.438690185546875	-5.37872314453125	-3.082275390625	10.27172367248535	-0.45489831542968745	-0.6248866333007812	2.960205078125	-4.69970703125	-1.3275146484375	
145	0.58	0.0	0.0	0.0	0.0	0.009000000000000001	0.003	0.003	0.003	9.90122096557617	0.3758896606445312	0.0047884033203125	4.207611083984375	-4.058837890625	-1.399993896484375	9.90122096557617	-0.45010991210937495	0.25797522888183594	0.408172607421875	-5.153656005859375	-3.360748291015625	10.17655415649414	-0.14963760375976562	-0.13347674255371092	2.716064453125	-4.6234130859375	-1.38092041015625	
146	0.584	0.0	0.0	0.0	0.0	0.003	0.006	0.003	0.003	9.882067352294921	0.43155484924316406	-0.1131260284423828	2.5787353515625	-3.387451171875	-1.415252685546875	9.803058697509766	-0.047884033203124995	-0.001197100830078125	0.598907470703125	-4.6539306640625	-3.16619873046875	10.077194787597655	-0.3315969299316406	-0.4908113403320312	2.86102294921875	-4.291534423828125	-1.45721435546875	
147	0.588	0.0	0.0	0.0	0.0	0.006	0.003	0.003	0.006	9.73063409729004	0.5764040496826172	0.18136077575683593	4.383087158203125	-4.2572021484375	-1.667022705078125	9.620500820922851	-0.20649989318847656	0.41838674011230464	-0.09918212890625	-5.36346435546875	-3.414154052734375	9.832986218261718	0.1322796417236328	-0.015562310791015624	2.887725830078125	-4.75311279296875	-1.377105712890625	
148	0.592	0.0	0.0	0.0	0.0	0.006	0.003	0.003	0.003	9.943119494628906	0.22445640563964842	-0.037110125732421874	2.76947021484375	-3.742218017578125	-1.285552978515625	10.089764346313476	-0.28730419921875	-0.19153613281249998	0.537872314453125	-4.947662353515625	-3.589630126953125	10.407594616699217	-0.6392518432617187	-0.5452794281005859	2.6397705078125	-4.69970703125	-1.628875732421875	
149	0.596	0.0	0.0	0.0	0.0	0.006	0.003	0.003	0.006	9.789890588378906	0.4339490509033203	0.061650692749023434	3.894805908203125	-3.85284423828125	-1.811981201171875	9.704896429443359	-0.29269115295410153	0.2914940521240234	-0.209808349609375	-4.978179931640625	-3.536224365234375	9.913191973876952	0.03591302490234375	-0.11013327636718749	2.880096435546875	-4.41741943359375	-1.6937255859375	
150	0.6	0.0	0.0	0.0	0.0	0.003	0.003	0.003	0.003	9.858125335693359	0.36631285400390623	-0.029328970336914062	2.716064453125	-3.77655029296875	-1.178741455078125	9.67137760620117	-0.16519991455078123	0.05686228942871093	-0.148773193359375	-5.30242919921875	-3.520965576171875	9.73661960144043	-0.2657563842773437	-0.19393033447265623	2.811431884765625	-5.0506591796875	-1.354217529296875	
151	0.604	0.0	0.0	0.0	0.0	0.003	0.006	0.003	4.614	9.775525378417969	-0.020949264526367185	0.11432312927246092	2.292633056640625	-3.696441650390625	-0.827789306640625	9.813234054565429	-0.4082113830566406	0.28790274963378903	-0.28228759765625	-5.24139404296875	-3.292083740234375	10.062829577636718	-0.1005564697265625	-0.07003039855957031	2.8533935546875	-4.9285888671875	-1.47247314453125	
152	0.608	0.0	0.0	0.0	0.0	4.623	4.665	4.665	4.641	10.007762939453125	0.14006079711914063	-0.21787235107421873	3.025054931640625	-3.635406494140625	-1.3427734375	9.875483297729492	-0.3280056274414062	-0.07122749938964844	0.095367431640625	-4.947662353515625	-3.6163330078125	10.020931048583984	-0.45070846252441404	-0.29388825378417965	2.49481201171875	-4.550933837890625	-1.64031982421875	
153	0.612	0.0	0.0	0.0	0.0	4.641	4.671	4.674	4.632	9.704896429443359	0.10714052429199218	0.143652099609375	2.399444580078125	-3.76129150390625	-1.056671142578125	9.60852981262207	-0.296881005859375	0.4327519500732422	-0.011444091796875	-4.810333251953125	-3.326416015625	9.55645592651367	-0.16759411621093748	0.12030863342285156	2.613067626953125	-4.444122314453125	-2.08282470703125	
154	0.616	0.0	0.0	0.0	0.0	4.644	4.674	4.674	4.62	9.8449572265625	0.017956512451171875	0.040102877807617184	2.471923828125	-3.66973876953125	-0.865936279296875	9.775525378417969	-0.2855085479736328	0.08978256225585937	0.087738037109375	-5.22613525390625	-3.322601318359375	9.925162982177733	-0.3537432952880859	-0.1849520782470703	2.704620361328125	-4.718780517578125	-1.300811767578125	
155	0.62	0.0	0.0	0.0	0.0	4.647	4.674	4.671	4.626	9.822212310791015	-0.02633621826171875	0.04848258361816406	2.3345947265625	-3.452301025390625	-1.13677978515625	9.69771382446289	-0.4572925170898437	0.32620997619628905	0.03814697265625	-4.78363037109375	-3.490447998046875	9.9215716796875	-0.4740519287109375	-0.05327098693847656	2.3345947265625	-4.482269287109375	-2.155303955078125	
156	0.624	0.0	0.0	0.0	0.0	4.644	4.668	4.671	4.635	9.934739788818359	0.1292868896484375	-0.10354922180175781	3.01361083984375	-3.45611572265625	-0.9918212890625	9.681552963256836	-0.2902969512939453	0.08678981018066406	0.05340576171875	-5.340576171875	-3.448486328125	9.785700735473633	-0.016160861206054686	0.018555062866210937	2.346038818359375	-4.46319580078125	-1.316070556640625	
157	0.628	0.0	0.0	0.0	0.0	4.641	4.674	4.674	4.641	9.702502227783203	0.10175357055664062	0.20231004028320312	2.384185791015625	-3.429412841796875	-0.865936279296875	9.548076220703125	-0.17657237243652343	0.37888241271972656	0.11444091796875	-5.565643310546875	-3.30352783203125	9.628880526733397	-0.3124433166503906	0.1466448516845703	2.628326416015625	-4.5013427734375	-1.74713134765625	
158	0.632	0.0	0.0	0.0	0.0	4.647	4.674	4.671	4.641	9.988609326171874	-0.10295067138671875	-0.11791443176269531	2.834320068359375	-3.997802734375	-0.93841552734375	9.826402163696288	-0.526125814819336	0.09935936889648436	0.034332275390625	-5.04302978515625	-3.177642822265625	10.024522351074218	-0.19871873779296872	-0.22206220397949217	2.620697021484375	-4.38690185546875	-1.438140869140625	
159	0.636	0.0	0.0	0.0	0.0	4.638	4.671	4.671	4.647	9.791087689208984	0.0047884033203125	0.054468087768554684	3.570556640625	-2.964019775390625	-1.19781494140625	9.5630399810791	-0.15981296081542967	0.3758896606445312	-0.186920166015625	-4.802703857421875	-3.35693359375	9.630676177978515	-0.3435679382324219	0.18555062866210936	2.75421142578125	-4.177093505859375	-1.46484375	
160	0.64	0.0	0.0	0.0	0.0	4.647	4.674	4.674	0.003	9.893439810180663	0.15083470458984374	-0.06703764648437499	2.73895263671875	-3.80706787109375	-0.96893310546875	9.579799392700195	-0.3896563201904297	0.25438392639160157	-0.293731689453125	-5.0811767578125	-2.994537353515625	9.578602291870117	-0.0143652099609375	0.17357962036132812	2.26593017578125	-4.283905029296875	-1.2969970703125	
161	0.644	0.0	0.0	0.0	0.0	0.003	0.003	0.003	0.003	9.97184991455078	0.17417817077636719	-0.17956512451171874	4.32586669921875	-4.558563232421875	-1.16729736328125	9.834183319091796	-0.3064578125	0.05087678527832031	-0.0152587890625	-4.962921142578125	-3.2196044921875	10.132859976196288	-0.47584757995605464	-0.4255693450927734	2.529144287109375	-4.177093505859375	-1.28936767578125	
162	0.648	0.0	0.0	0.0	0.0	0.006	0.003	0.003	0.003	10.076596237182617	0.033518823242187495	-0.2555810272216797	2.887725830078125	-3.917694091796875	-0.965118408203125	9.805452899169921	-0.45549686584472654	0.07541735229492187	-0.080108642578125	-4.9896240234375	-3.345489501953125	9.87727894897461	-0.18076222534179687	0.013168109130859374	2.368927001953125	-4.52423095703125	-1.4190673828125	
163	0.652	0.0	0.0	0.0	0.0	0.006	0.003	0.003	0.006	9.919177478027343	0.3495534423828125	-0.10714052429199218	4.116058349609375	-4.177093505859375	-1.049041748046875	9.731232647705077	-0.17836802368164062	0.12629413757324218	0.011444091796875	-4.932403564453125	-3.31878662109375	9.962273107910155	-0.33039982910156246	-0.3016694091796875	2.780914306640625	-4.306793212890625	-1.537322998046875	
164	0.656	0.0	0.0	0.0	0.0	0.003	0.003	0.003	0.003	9.77492682800293	0.5063736511230469	0.17477672119140625	4.058837890625	-4.1656494140625	-1.430511474609375	9.801263046264648	-0.28969840087890625	0.17238251953125	0.2593994140625	-5.14984130859375	-2.86102294921875	10.113706362915039	-0.0526724365234375	-0.3705027069091797	2.81524658203125	-4.779815673828125	-1.44195556640625	
165	0.66	0.0	0.0	0.0	0.0	0.006	0.003	0.003	0.006	10.081983190917969	0.2519897247314453	-0.3022679595947265	3.719329833984375	-4.062652587890625	-1.277923583984375	9.944915145874022	-0.36631285400390623	-0.06643909606933593	0.110626220703125	-5.115509033203125	-3.24249267578125	10.223839639282225	-0.4740519287109375	-0.3537432952880859	2.57110595703125	-4.283905029296875	-1.544952392578125	
166	0.664	0.0	0.0	0.0	0.0	0.003	0.003	0.006	0.006	9.830592016601562	0.3321954803466797	0.12389993591308593	4.215240478515625	-3.910064697265625	-1.5106201171875	9.762955819702148	-0.2537853759765625	0.2747346405029297	0.1678466796875	-5.077362060546875	-3.231048583984375	10.13166287536621	-0.1466448516845703	-0.36930560607910157	3.0059814453125	-4.63104248046875	-1.4801025390625	
167	0.668	0.0	0.0	0.0	0.0	0.006	0.003	0.003	0.003	9.97903251953125	0.3082534637451172	-0.1801636749267578	4.444122314453125	-4.283905029296875	-1.27410888671875	9.830592016601562	-0.25258827514648435	0.09457096557617187	0.35858154296875	-5.275726318359375	-3.2196044921875	10.105925207519531	-0.19632453613281248	-0.5339069702148437	3.238677978515625	-4.650115966796875	-1.323699951171875	
168	0.672	0.0	0.0	0.0	0.0	0.006	0.003	0.006	0.003	9.817423907470703	0.27892449340820313	0.15322890625	3.940582275390625	-4.180908203125	-1.35040283203125	9.89523546142578	-0.3591302490234375	0.15682020874023436	-0.0152587890625	-5.16510009765625	-3.116607666015625	10.28549033203125	-0.3064578125	-0.37888241271972656	2.9449462890625	-4.39453125	-1.499176025390625	
169	0.676	0.0	0.0	0.0	0.0	0.003	0.003	0.003	0.003	9.893439810180663	0.26336218261718747	0.017956512451171875	2.887725830078125	-3.6468505859375	-1.544952392578125	9.99220062866211	-0.3333925811767578	-0.05626373901367187	0.766754150390625	-5.130767822265625	-3.459930419921875	10.295067138671874	-0.30346506042480464	-0.5955576629638671	2.78472900390625	-4.444122314453125	-1.354217529296875	
170	0.68	0.0	0.0	0.0	0.0	0.003	0.003	0.003	0.006	9.727042794799804	0.4950011932373047	0.24301146850585936	4.39453125	-3.993988037109375	-1.62506103515625	9.660603698730467	-0.08738836059570312	0.277727392578125	0.492095947265625	-5.1116943359375	-3.41033935546875	10.025120901489258	-0.24480711975097655	-0.32142157287597656	2.838134765625	-4.627227783203125	-1.682281494140625	
171	0.684	0.0	0.0	0.0	0.0	0.006	0.003	0.003	0.003	9.776722479248047	0.25318682556152344	0.27174188842773433	3.2806396484375	-3.597259521484375	-1.201629638671875	9.975441217041014	-0.27174188842773433	0.007781155395507812	0.728607177734375	-5.27191162109375	-3.414154052734375	10.31062944946289	-0.17298106994628906	-0.6512228515624999	3.009796142578125	-4.474639892578125	-1.18255615234375	
172	0.6880000000000001	0.0	0.0	0.0	0.0	0.006	0.006	0.003	0.006	9.789890588378906	0.3274070770263672	0.24779987182617186	4.772186279296875	-4.199981689453125	-1.6632080078125	9.85692823486328	-0.2507926239013672	0.19812018737792966	0.255584716796875	-4.913330078125	-3.41796875	10.053252770996092	-0.4339490509033203	-0.051475335693359374	2.773284912109375	-4.856109619140625	-1.47247314453125	
173	0.6920000000000001	0.0	0.0	0.0	0.0	0.006	0.003	0.003	0.003	9.730035546875	0.2561795776367187	0.26755203552246093	2.7313232421875	-3.314971923828125	-1.300811767578125	9.65282254333496	-0.3441664886474609	0.2753331909179687	-0.270843505859375	-5.107879638671875	-3.77655029296875	10.114903463745117	-0.14484920043945312	-0.47644613037109373	3.002166748046875	-4.33349609375	-1.430511474609375	
174	0.6960000000000001	0.0	0.0	0.0	0.0	0.003	0.006	0.003	0.003	9.86351228942871	0.06404489440917968	0.0796072052001953	2.288818359375	-3.383636474609375	-0.926971435546875	9.694721072387695	-0.21727380065917967	0.32082302246093747	0.1983642578125	-5.084991455078125	-3.2501220703125	9.835380419921874	-0.18136077575683593	-0.02633621826171875	2.696990966796875	-4.825592041015625	-1.1138916015625	
175	0.7000000000000001	0.0	0.0	0.0	0.0	0.003	0.006	0.003	0.006	9.889249957275391	0.21009119567871093	0.0017956512451171875	3.009796142578125	-3.330230712890625	-1.42669677734375	9.83178911743164	-0.3908534210205078	0.023343466186523436	0.041961669921875	-5.184173583984375	-3.62396240234375	9.90241806640625	-0.48183308410644526	-0.3178302703857422	2.605438232421875	-4.573822021484375	-1.8157958984375	
176	0.704	0.0	0.0	0.0	0.0	0.003	0.003	0.006	0.003	9.95329485168457	0.004189852905273437	-0.11911153259277343	1.873016357421875	-3.204345703125	-1.079559326171875	9.718663088989258	-0.3429693878173828	0.2184709014892578	0.171661376953125	-5.199432373046875	-3.467559814453125	9.819818109130859	-0.25139117431640623	0.022146365356445312	3.082275390625	-4.787445068359375	-1.461029052734375	
177	0.708	0.0	0.0	0.0	0.0	0.003	0.003	0.003	0.003	9.894038360595703	0.2813186950683594	-0.2280477081298828	3.047943115234375	-3.9825439453125	-0.736236572265625	9.695319622802733	-0.19812018737792966	0.05386953735351562	0.057220458984375	-4.8828125	-3.490447998046875	9.679158761596678	-0.2813186950683594	-0.21188684692382811	2.532958984375	-4.99725341796875	-1.659393310546875	
178	0.712	0.0	0.0	0.0	0.0	0.006	0.003	0.003	0.003	10.008361489868163	-0.10594342346191406	-0.239420166015625	2.4871826171875	-3.79180908203125	-0.8087158203125	9.714473236083984	-0.4608838195800781	0.18435352783203124	0.118255615234375	-5.1116943359375	-3.11279296875	9.809044201660155	-0.19812018737792966	0.06823474731445311	2.41851806640625	-4.70733642578125	-1.285552978515625	
179	0.716	0.0	0.0	0.0	0.0	0.006	0.003	0.003	0.003	9.951499200439452	0.06703764648437499	-0.22685060729980466	3.047943115234375	-3.978729248046875	-1.0223388671875	9.852139831542969	-0.3136404174804687	-0.0939724151611328	0.091552734375	-4.947662353515625	-3.841400146484375	9.861716638183593	-0.49260699157714843	-0.17238251953125	2.941131591796875	-4.8370361328125	-1.850128173828125	
180	0.72	0.0	0.0	0.0	0.0	0.003	0.003	0.003	0.006	9.82460651245117	0.08439560852050781	-0.028131869506835935	2.6702880859375	-3.704071044921875	-0.8087158203125	9.540893615722656	-0.3651157531738281	0.4070142822265625	-0.026702880859375	-4.730224609375	-3.1280517578125	9.666589202880859	-0.09756371765136718	0.1466448516845703	2.57110595703125	-4.779815673828125	-1.7852783203125	
181	0.724	0.0	0.0	0.0	0.0	0.006	0.003	0.003	0.006	9.86291373901367	0.14903905334472656	-0.09038111267089843	3.53240966796875	-4.016876220703125	-1.026153564453125	9.664195001220703	-0.34656069030761716	0.1352723937988281	0.30517578125	-5.374908447265625	-3.330230712890625	9.87727894897461	-0.41060558471679687	-0.23582886352539062	2.460479736328125	-4.45556640625	-1.377105712890625	
182	0.728	0.0	0.0	0.0	0.0	0.006	0.003	0.003	0.003	9.996989031982421	0.047285482788085934	-0.04608838195800781	3.0059814453125	-3.80706787109375	-1.125335693359375	9.764751470947266	-0.5189432098388671	0.22026655273437498	0.11444091796875	-4.901885986328125	-3.28826904296875	9.87009634399414	-0.2980781066894531	0.08379705810546874	2.349853515625	-4.535675048828125	-1.773834228515625	
183	0.732	0.0	0.0	0.0	0.0	0.003	0.003	0.003	0.006	9.871891995239258	0.14305354919433594	-0.17118541870117188	3.33404541015625	-3.948211669921875	-1.3580322265625	9.67137760620117	-0.3399766357421875	0.0430956298828125	0.217437744140625	-5.084991455078125	-3.345489501953125	9.794678991699218	-0.40282442932128903	0.011372457885742187	2.521514892578125	-4.619598388671875	-1.5411376953125	
184	0.736	0.0	0.0	0.0	0.0	0.0	0.003	0.003	0.003	9.957484704589843	0.09696516723632811	-0.07721300354003906	3.833770751953125	-4.184722900390625	-0.751495361328125	9.689334118652344	-0.3184288208007812	0.1867477294921875	0.118255615234375	-5.1116943359375	-3.116607666015625	9.695918173217773	-0.17896657409667968	0.07481880187988281	2.76947021484375	-4.78363037109375	-1.39617919921875	
185	0.74	0.0	0.0	0.0	0.0	0.003	0.006	0.003	0.003	10.007762939453125	-0.1580173095703125	-0.34835634155273437	3.826141357421875	-4.123687744140625	-1.0986328125	9.821015209960937	-0.4578910675048828	-0.07362170104980469	0.20599365234375	-5.18035888671875	-3.223419189453125	9.931148486328125	-0.43155484924316406	-0.029927520751953124	2.582550048828125	-4.55474853515625	-1.399993896484375	
186	0.744	0.0	0.0	0.0	0.0	0.003	0.003	0.006	0.003	10.01674119567871	0.11911153259277343	-0.17956512451171874	4.12750244140625	-4.116058349609375	-1.068115234375	9.77432827758789	-0.37708676147460934	0.0909796630859375	-0.1983642578125	-4.5623779296875	-3.223419189453125	10.205284576416014	-0.3393780853271484	-0.4830301849365234	2.841949462890625	-4.390716552734375	-1.819610595703125	
187	0.748	0.0	0.0	0.0	0.0	0.003	0.003	0.003	0.003	9.815628256225585	0.32082302246093747	0.2753331909179687	3.2806396484375	-3.92913818359375	-1.018524169921875	9.77492682800293	-0.2537853759765625	0.20051438903808594	0.34332275390625	-5.37109375	-3.0517578125	9.701305126953125	-0.09816226806640624	0.07003039855957031	2.475738525390625	-4.566192626953125	-1.407623291015625	
188	0.752	0.0	0.0	0.0	0.0	0.003	2.838	4.659	4.623	9.938331091308592	0.13646949462890623	-0.10714052429199218	4.047393798828125	-4.08172607421875	-1.01470947265625	9.755773214721678	-0.34835634155273437	0.1388636962890625	0.1373291015625	-4.5166015625	-3.276824951171875	10.143035333251953	-0.41898529052734373	-0.37409400939941406	2.70843505859375	-4.421234130859375	-1.476287841796875	
189	0.756	0.0	0.0	0.0	0.0	4.641	4.671	4.671	4.623	9.955090502929687	0.181959326171875	0.08798691101074219	4.016876220703125	-4.116058349609375	-1.323699951171875	9.9078050201416	-0.3752911102294922	0.1801636749267578	0.43487548828125	-5.4473876953125	-2.979278564453125	10.352527978515624	-0.10714052429199218	-0.5027823486328125	3.124237060546875	-4.596710205078125	-1.407623291015625	
190	0.76	0.0	0.0	0.0	0.0	4.647	4.671	4.671	4.6290000000000004	9.936535440063476	0.2741360900878906	-0.023343466186523436	3.498077392578125	-3.696441650390625	-1.708984375	9.906009368896484	-0.19632453613281248	-0.003591302490234375	0.507354736328125	-4.795074462890625	-3.57818603515625	10.022726699829102	-0.32082302246093747	-0.3794809631347656	2.7618408203125	-4.413604736328125	-1.537322998046875	
191	0.764	0.0	0.0	0.0	0.0	4.644	4.665	4.671	4.6290000000000004	9.830592016601562	0.30346506042480464	0.19931728820800781	3.6163330078125	-4.001617431640625	-1.1444091796875	9.816825357055663	-0.3022679595947265	0.24001871643066405	0.087738037109375	-5.2947998046875	-2.735137939453125	10.181342559814453	0.017357962036132813	-0.4626794708251953	2.8533935546875	-4.444122314453125	-1.2359619140625	
192	0.768	0.0	0.0	0.0	0.0	4.641	4.674	4.674	4.638	10.019733947753906	0.24301146850585936	-0.12449848632812499	3.2806396484375	-3.948211669921875	-1.384735107421875	10.081983190917969	-0.2759317413330078	-0.15382745666503905	0.55694580078125	-5.02777099609375	-3.4027099609375	10.293870037841796	-0.469862075805664	-0.508169302368164	3.192901611328125	-4.61578369140625	-1.277923583984375	
193	0.772	0.0	0.0	0.0	0.0	4.641	4.671	4.671	4.641	9.85094273071289	0.27174188842773433	0.13587094421386717	3.574371337890625	-3.6773681640625	-1.0986328125	9.824007962036132	-0.1879448303222656	0.05805939025878906	0.171661376953125	-5.268096923828125	-3.360748291015625	10.189123715209961	0.015562310791015624	-0.4722562774658203	2.971649169921875	-4.543304443359375	-1.399993896484375	
194	0.776	0.0	0.0	0.0	0.0	4.632	4.671	4.668	4.644	9.956287603759765	0.42497079467773435	-0.15203180541992187	3.261566162109375	-3.60107421875	-0.9918212890625	9.90840357055664	-0.12449848632812499	-0.03411737365722656	0.32806396484375	-4.970550537109375	-3.02886962890625	10.087968695068358	-0.2855085479736328	-0.4914098907470703	3.27301025390625	-4.70733642578125	-1.224517822265625	
195	0.78	0.0	0.0	0.0	0.0	4.644	4.674	4.674	4.6290000000000004	9.821015209960937	0.21009119567871093	0.009576806640625	3.604888916015625	-4.180908203125	-1.255035400390625	9.861118087768554	-0.28371289672851563	0.07900865478515624	0.209808349609375	-5.306243896484375	-3.1585693359375	10.277110626220702	-0.06404489440917968	-0.44891281127929683	2.826690673828125	-4.3487548828125	-1.300811767578125	
196	0.784	0.0	0.0	0.0	0.0	4.647	0.003	0.006	0.003	9.9981861328125	0.258573779296875	-0.22385785522460935	3.1585693359375	-3.5858154296875	-1.40380859375	9.951499200439452	-0.20231004028320312	-0.04189852905273437	0.41961669921875	-5.268096923828125	-3.692626953125	10.287884533691406	-0.3962403747558593	-0.6183025787353515	2.89154052734375	-4.638671875	-1.24359130859375	
197	0.788	0.0	0.0	0.0	0.0	0.006	0.003	0.003	0.003	9.7928833404541	0.3172317199707031	0.008978256225585938	3.643035888671875	-4.0283203125	-1.529693603515625	9.731831198120117	-0.07122749938964844	0.16998831787109375	0.308990478515625	-5.115509033203125	-3.253936767578125	9.784503634643555	-0.12090718383789062	0.010773907470703125	2.99072265625	-4.82177734375	-1.5106201171875	
198	0.792	0.0	0.0	0.0	0.0	0.006	0.003	0.003	0.003	9.948506448364258	0.19033903198242186	-0.11731588134765625	3.22723388671875	-3.787994384765625	-1.16729736328125	9.878476049804688	-0.3429693878173828	0.016160861206054686	0.2899169921875	-5.260467529296875	-3.3111572265625	10.249577307128906	-0.3226186737060547	-0.5596446380615234	2.925872802734375	-4.66156005859375	-1.0833740234375	
199	0.796	0.0	0.0	0.0	0.0	0.003	0.003	0.003	0.003	9.852738381958007	0.29867665710449215	-0.0047884033203125	3.42559814453125	-3.97491455078125	-1.434326171875	9.852139831542969	-0.15861585998535155	0.10893617553710937	0.16021728515625	-5.138397216796875	-3.35693359375	10.003573086547851	-0.3190273712158203	-0.08140285644531249	2.7313232421875	-4.49371337890625	-1.567840576171875	
200	0.8	0.0	0.0	0.0	0.0	0.003	0.003	0.003	0.006	9.888052856445311	0.1801636749267578	-0.04548983154296875	3.30352783203125	-3.83758544921875	-1.163482666015625	9.818022457885741	-0.3226186737060547	0.06344634399414062	0.316619873046875	-5.04302978515625	-3.5552978515625	9.810241302490233	-0.15502455749511718	-0.20949264526367187	2.685546875	-4.680633544921875	-1.560211181640625	
201	0.804	0.0	0.0	0.0	0.0	0.009000000000000001	0.006	0.003	0.003	9.794678991699218	0.2555810272216797	0.17357962036132812	3.337860107421875	-3.818511962890625	-1.33514404296875	9.688137017822266	-0.17118541870117188	0.20350714111328125	0.1983642578125	-5.023956298828125	-3.41796875	9.78031378173828	-0.25438392639160157	0.14305354919433594	2.590179443359375	-4.428863525390625	-1.705169677734375	
202	0.808	0.0	0.0	0.0	0.0	0.003	0.003	0.003	0.006	9.969455712890625	-0.1131260284423828	-0.2454056701660156	2.61688232421875	-3.74603271484375	-1.071929931640625	9.909600671386718	-0.4159925384521484	0.05805939025878906	0.278472900390625	-5.031585693359375	-3.612518310546875	9.906009368896484	-0.2663549346923828	-0.16759411621093748	2.696990966796875	-4.75311279296875	-1.70135498046875	
203	0.812	0.0	0.0	0.0	0.0	0.003	0.006	0.003	0.006	9.87608184814453	0.06404489440917968	0.05626373901367187	2.93731689453125	-3.448486328125	-0.79345703125	9.701903677368163	-0.239420166015625	0.24001871643066405	0.02288818359375	-4.909515380859375	-3.7078857421875	9.780912332153319	-0.36930560607910157	0.08379705810546874	2.532958984375	-4.6234130859375	-1.5106201171875	
204	0.8160000000000001	0.0	0.0	0.0	0.0	0.0	0.003	0.003	0.003	9.79946739501953	0.16879121704101563	-0.017956512451171875	2.6702880859375	-3.51715087890625	-1.041412353515625	9.578602291870117	-0.41419688720703124	0.2442085693359375	-0.06866455078125	-5.168914794921875	-3.22723388671875	9.715670336914062	-0.1640028137207031	-0.059256491088867186	2.498626708984375	-4.5013427734375	-1.743316650390625	
205	0.8200000000000001	0.0	0.0	0.0	0.0	0.006	0.003	0.003	0.003	9.87727894897461	0.1083376251220703	-0.014963760375976562	3.093719482421875	-3.77655029296875	-0.946044921875	9.782109432983399	-0.2920926025390625	0.1879448303222656	0.164031982421875	-4.99725341796875	-3.482818603515625	9.783905084228515	-0.3489548919677734	0.09995791931152344	2.74658203125	-4.772186279296875	-1.827239990234375	
206	0.8240000000000001	0.0	0.0	0.0	0.0	0.006	0.003	0.003	0.003	9.896432562255859	0.08978256225585937	-0.09756371765136718	3.0670166015625	-3.54766845703125	-1.178741455078125	9.705494979858399	-0.479438882446289	0.09337386474609374	-0.22125244140625	-4.92095947265625	-3.276824951171875	9.886855755615233	-0.3327940307617187	-0.21428104858398436	2.605438232421875	-4.60052490234375	-1.728057861328125	
207	0.8280000000000001	0.0	0.0	0.0	0.0	0.003	0.003	0.003	0.003	9.891644158935547	-0.052073886108398436	-0.19093758239746092	2.384185791015625	-3.582000732421875	-0.728607177734375	9.686939916992188	-0.30526071166992186	0.105344873046875	0.0	-5.1116943359375	-3.21197509765625	9.68454571533203	-0.21727380065917967	0.09337386474609374	2.445220947265625	-4.44793701171875	-1.758575439453125	
208	0.8320000000000001	0.0	0.0	0.0	0.0	0.006	0.003	0.003	0.003	9.885658654785155	0.16819266662597654	-0.0718260498046875	3.200531005859375	-4.261016845703125	-0.78582763671875	9.688137017822266	-0.4435258575439453	0.00718260498046875	-0.034332275390625	-5.18035888671875	-3.39508056640625	9.828796365356444	-0.29867665710449215	-0.09337386474609374	2.834320068359375	-4.60052490234375	-1.36566162109375	
209	0.836	0.0	0.0	0.0	0.0	0.003	0.003	0.003	0.006	9.943119494628906	-0.010175357055664061	-0.2059013427734375	3.1280517578125	-3.772735595703125	-0.81634521484375	9.780912332153319	-0.3507505432128906	0.03172317199707031	0.156402587890625	-5.252838134765625	-3.08990478515625	9.86411083984375	-0.354940396118164	-0.003591302490234375	2.559661865234375	-4.467010498046875	-1.64794921875	
210	0.84	0.0	0.0	0.0	0.0	0.003	0.006	0.003	0.003	9.943119494628906	0.05985504150390625	-0.07601590270996093	3.246307373046875	-4.20379638671875	-1.010894775390625	9.791087689208984	-0.49260699157714843	0.14125789794921875	0.362396240234375	-5.31005859375	-3.238677978515625	9.849745629882811	-0.3746925598144531	-0.1406593475341797	2.307891845703125	-4.34112548828125	-1.53350830078125	
211	0.844	0.0	0.0	0.0	0.0	0.003	0.003	0.003	0.006	9.833584768676758	0.03950432739257812	-0.022744915771484374	3.18145751953125	-3.833770751953125	-0.728607177734375	9.649231240844726	-0.33758243408203126	0.1945288848876953	0.16021728515625	-5.107879638671875	-3.063201904296875	10.065822329711914	-0.14305354919433594	-0.2914940521240234	2.658843994140625	-4.428863525390625	-1.44195556640625	
212	0.848	0.0	0.0	0.0	0.0	0.003	0.003	0.003	0.006	9.920973129272461	-0.07003039855957031	-0.002992752075195312	2.899169921875	-3.56292724609375	-0.7781982421875	9.849745629882811	-0.4704606262207031	0.15562310791015624	0.179290771484375	-5.2032470703125	-3.170013427734375	9.937133990478515	-0.44412440795898434	-0.061650692749023434	2.60162353515625	-4.924774169921875	-1.31988525390625	
213	0.852	0.0	0.0	0.0	0.0	0.003	0.006	0.003	0.003	9.929352835083007	0.2166752502441406	-0.027533319091796873	3.997802734375	-4.009246826171875	-1.739501953125	9.968258612060547	-0.2454056701660156	-0.02633621826171875	0.247955322265625	-4.81414794921875	-3.0670166015625	10.211868630981444	-0.25917232971191406	-0.3687070556640625	2.910614013671875	-4.383087158203125	-1.491546630859375	
214	0.856	0.0	0.0	0.0	0.0	0.006	0.003	0.003	0.003	9.828796365356444	-0.031124621582031248	0.10893617553710937	2.750396728515625	-3.589630126953125	-1.068115234375	9.756970315551758	-0.3399766357421875	0.1927332336425781	0.1678466796875	-5.229949951171875	-3.13568115234375	10.144232434082031	-0.25797522888183594	-0.4207809417724609	2.838134765625	-4.680633544921875	-1.369476318359375	
215	0.86	0.0	0.0	0.0	0.0	0.006	0.006	0.003	0.006	9.949703549194336	0.2615665313720703	-0.086191259765625	4.016876220703125	-3.997802734375	-1.491546630859375	9.913790524291992	-0.27832594299316404	-0.011372457885742187	0.072479248046875	-4.58526611328125	-3.19671630859375	10.188525164794921	-0.2855085479736328	-0.48183308410644526	2.8839111328125	-4.283905029296875	-1.4190673828125	
216	0.864	0.0	0.0	0.0	0.0	0.006	0.003	0.006	0.003	9.937133990478515	-0.21727380065917967	-0.017357962036132813	3.795623779296875	-3.917694091796875	-1.346588134765625	9.903615167236328	-0.4321533996582031	-0.022146365356445312	0.026702880859375	-4.87518310546875	-3.2958984375	10.29865844116211	-0.3387795349121094	-0.39863457641601563	2.704620361328125	-4.604339599609375	-1.21307373046875	
217	0.868	0.0	0.0	0.0	0.0	0.003	0.003	0.003	0.006	9.96047745666504	0.31004911499023435	-0.16460136413574217	4.261016845703125	-4.207611083984375	-1.54876708984375	9.86291373901367	-0.23044190979003906	0.014963760375976562	0.431060791015625	-5.161285400390625	-3.35693359375	10.105326657104492	-0.19692308654785154	-0.40581718139648437	3.086090087890625	-4.512786865234375	-1.68609619140625	
218	0.872	0.0	0.0	0.0	0.0	0.003	0.003	0.006	0.003	9.781510882568359	0.5219359619140624	0.12389993591308593	4.047393798828125	-4.146575927734375	-1.3885498046875	9.712079034423828	-0.2914940521240234	0.3794809631347656	0.11444091796875	-5.161285400390625	-3.16619873046875	10.178948358154296	-0.13646949462890623	-0.35015199279785153	2.941131591796875	-4.726409912109375	-1.110076904296875	
219	0.876	0.0	0.0	0.0	0.0	0.003	0.003	0.003	0.006	10.007164389038085	0.29867665710449215	-0.2166752502441406	3.60107421875	-4.00543212890625	-1.247406005859375	9.974842666625976	-0.26276363220214843	-0.05805939025878906	0.3204345703125	-4.58526611328125	-3.238677978515625	10.279504827880858	-0.4471171600341797	-0.5063736511230469	2.941131591796875	-4.38690185546875	-1.33514404296875	
220	0.88	0.0	0.0	0.0	0.0	0.006	0.003	0.003	0.003	9.777321029663085	0.4782417816162109	0.15203180541992187	4.283905029296875	-4.0740966796875	-1.79290771484375	9.753977563476562	-0.32142157287597656	0.3333925811767578	0.30517578125	-5.283355712890625	-3.2806396484375	10.186729513549803	-0.14305354919433594	-0.3441664886474609	3.1585693359375	-4.680633544921875	-1.31988525390625	
221	0.884	0.0	0.0	0.0	0.0	0.009000000000000001	0.003	4.635	4.638	9.809642752075195	0.27952304382324217	0.0909796630859375	3.116607666015625	-3.7384033203125	-1.434326171875	9.897629663085937	-0.12090718383789062	-0.013766659545898436	0.354766845703125	-4.84466552734375	-3.5858154296875	10.123881719970703	-0.29867665710449215	-0.46507367248535153	2.994537353515625	-4.5928955078125	-1.506805419921875	
222	0.888	0.0	0.0	0.0	0.0	4.632	4.665	4.665	4.641	9.794678991699218	0.35314474487304687	0.08918401184082031	3.6773681640625	-3.894805908203125	-1.57928466796875	9.809044201660155	-0.2657563842773437	0.2950853546142578	0.141143798828125	-5.279541015625	-3.04412841796875	9.86411083984375	-0.17956512451171874	-0.014963760375976562	2.64739990234375	-4.764556884765625	-1.590728759765625	
223	0.892	0.0	0.0	0.0	0.0	4.641	4.674	4.674	4.6290000000000004	9.929352835083007	0.23882161560058593	-0.051475335693359374	3.02886962890625	-3.688812255859375	-1.224517822265625	9.999383233642577	-0.3094505645751953	-0.07900865478515624	0.087738037109375	-5.031585693359375	-3.704071044921875	10.288483084106444	-0.44891281127929683	-0.5470750793457031	3.021240234375	-4.634857177734375	-1.506805419921875	
224	0.896	0.0	0.0	0.0	0.0	4.647	4.671	4.674	4.623	9.7683427734375	0.5051765502929687	0.11013327636718749	4.06646728515625	-4.1046142578125	-1.583099365234375	9.680954412841796	-0.22685060729980466	0.29089550170898437	0.274658203125	-4.970550537109375	-3.65447998046875	9.746196408081055	-0.11073182678222655	0.06943184814453125	2.727508544921875	-4.63104248046875	-1.79290771484375	
225	0.9	0.0	0.0	0.0	0.0	4.644	4.671	4.674	4.6290000000000004	9.928155734252929	0.2549824768066406	-0.10654197387695312	2.902984619140625	-3.60870361328125	-1.140594482421875	9.968258612060547	-0.37708676147460934	-0.12629413757324218	0.247955322265625	-4.955291748046875	-3.322601318359375	9.752181912231444	-0.2825157958984375	0.040102877807617184	2.803802490234375	-4.852294921875	-1.316070556640625	
226	0.904	0.0	0.0	0.0	0.0	4.644	4.665	4.671	4.638	9.791087689208984	-0.07062894897460938	0.08918401184082031	2.58636474609375	-3.47900390625	-1.239776611328125	9.790489138793944	-0.21607669982910155	0.25917232971191406	0.278472900390625	-5.313873291015625	-3.6773681640625	9.900023864746093	-0.2501940734863281	0.05027823486328125	2.7313232421875	-4.87518310546875	-1.682281494140625	
227	0.908	0.0	0.0	0.0	0.0	4.644	4.674	4.674	4.641	9.873089096069336	0.20530279235839843	-0.06763619689941405	2.777099609375	-3.780364990234375	-1.110076904296875	9.689334118652344	-0.44053310546874996	0.24181436767578124	0.095367431640625	-5.092620849609375	-3.459930419921875	9.801263046264648	-0.2615665313720703	-0.01975216369628906	2.6702880859375	-4.81414794921875	-1.4190673828125	
228	0.912	0.0	0.0	0.0	0.0	4.638	4.674	0.003	0.003	9.692326870727538	0.1149216796875	0.21128829650878905	2.490997314453125	-3.627777099609375	-0.95367431640625	9.698910925292969	-0.11192892761230468	0.277727392578125	0.20599365234375	-5.275726318359375	-3.414154052734375	9.792284790039062	-0.12090718383789062	0.06643909606933593	2.437591552734375	-4.69207763671875	-1.91497802734375	
229	0.916	0.0	0.0	0.0	0.0	0.003	0.003	0.003	0.003	9.877877499389648	0.2825157958984375	-0.03531447448730469	2.765655517578125	-3.681182861328125	-1.392364501953125	9.724648593139648	-0.4734533782958984	0.24301146850585936	-0.06866455078125	-5.092620849609375	-3.376007080078125	9.90840357055664	-0.34237083740234375	-0.10773907470703124	2.422332763671875	-4.795074462890625	-1.644134521484375	
230	0.92	0.0	0.0	0.0	0.0	0.003	0.006	0.003	0.006	9.752780462646484	0.0430956298828125	0.11372457885742186	2.239227294921875	-3.41033935546875	-0.942230224609375	9.675567459106444	-0.2867056488037109	0.26396073303222656	0.20599365234375	-4.932403564453125	-3.582000732421875	9.753977563476562	-0.3908534210205078	0.09337386474609374	2.422332763671875	-4.12750244140625	-1.956939697265625	
231	0.924	0.0	0.0	0.0	0.0	0.003	0.003	0.003	0.003	9.935338339233398	0.08738836059570312	-0.2759317413330078	2.994537353515625	-3.856658935546875	-1.12152099609375	9.60194575805664	-0.3429693878173828	0.3489548919677734	-0.179290771484375	-5.3863525390625	-3.48663330078125	9.744400756835937	-0.19393033447265623	-0.06823474731445311	2.742767333984375	-4.909515380859375	-1.529693603515625	
232	0.928	0.0	0.0	0.0	0.0	0.003	0.003	0.003	0.006	9.744999307250977	-0.025737667846679687	0.16998831787109375	1.979827880859375	-3.292083740234375	-0.74005126953125	9.652223992919922	-0.3633201019287109	0.2861070983886719	0.23651123046875	-4.9591064453125	-3.368377685546875	9.737816702270507	-0.3507505432128906	0.07900865478515624	2.414703369140625	-4.43267822265625	-1.728057861328125	
233	0.932	0.0	0.0	0.0	0.0	0.006	0.003	0.003	0.003	10.001777435302733	-0.052073886108398436	-0.3537432952880859	2.498626708984375	-4.077911376953125	-1.049041748046875	9.797073193359374	-0.4052186309814453	0.09217676391601562	0.087738037109375	-5.126953125	-3.101348876953125	9.873687646484374	-0.2759317413330078	0.06344634399414062	2.75421142578125	-4.57763671875	-1.659393310546875	
234	0.936	0.0	0.0	0.0	0.0	0.006	0.003	0.006	0.003	9.991003527832031	0.1562216583251953	-0.2663549346923828	3.9520263671875	-4.21905517578125	-1.087188720703125	9.625887774658203	-0.3016694091796875	0.25917232971191406	-0.179290771484375	-4.669189453125	-3.223419189453125	9.67197615661621	-0.25917232971191406	0.11791443176269531	2.590179443359375	-4.40216064453125	-1.888275146484375	
235	0.9400000000000001	0.0	0.0	0.0	0.0	0.003	0.003	0.003	0.003	9.938331091308592	0.06105214233398437	-0.29089550170898437	2.70843505859375	-3.902435302734375	-0.84686279296875	9.718663088989258	-0.34715924072265625	0.15263035583496093	0.38909912109375	-4.98199462890625	-2.99072265625	9.787496386718749	-0.2292448089599609	0.04668693237304687	2.5787353515625	-4.413604736328125	-1.514434814453125	
236	0.9440000000000001	0.0	0.0	0.0	0.0	0.0	0.003	0.003	0.003	10.04906291809082	0.0909796630859375	-0.3591302490234375	4.0435791015625	-4.0435791015625	-1.125335693359375	9.741408004760741	-0.31663316955566406	0.13946224670410157	0.827789306640625	-5.161285400390625	-3.337860107421875	10.225635290527343	-0.17657237243652343	-0.3711012573242187	2.925872802734375	-4.322052001953125	-1.338958740234375	
237	0.9480000000000001	0.0	0.0	0.0	0.0	0.003	0.006	0.003	0.0	10.026318002319336	0.15861585998535155	-0.38247371520996093	2.50244140625	-3.570556640625	-0.98419189453125	9.74799205932617	-0.47884033203125	0.11252747802734374	0.148773193359375	-4.962921142578125	-3.055572509765625	9.810839852905273	-0.373495458984375	-0.030526071166992186	2.86102294921875	-4.61578369140625	-1.804351806640625	
238	0.9520000000000001	0.0	0.0	0.0	0.0	0.003	0.003	0.003	0.006	10.00417163696289	-0.06643909606933593	-0.34536358947753903	3.814697265625	-4.184722900390625	-1.102447509765625	9.87608184814453	-0.1640028137207031	-0.08379705810546874	0.5645751953125	-5.016326904296875	-3.345489501953125	10.082581741333007	-0.016759411621093748	-0.35194764404296874	3.021240234375	-4.245758056640625	-1.22833251953125	
239	0.9560000000000001	0.0	0.0	0.0	0.0	-0.003	0.003	0.003	0.006	9.727042794799804	0.430956298828125	0.31184476623535157	4.75311279296875	-4.547119140625	-1.346588134765625	9.80724855041504	-0.5548562347412109	0.04848258361816406	0.011444091796875	-5.527496337890625	-2.92205810546875	9.89523546142578	-0.46507367248535153	-0.07242460021972656	3.093719482421875	-4.791259765625	-1.373291015625	
240	0.96	0.0	0.0	0.0	0.0	0.0	0.003	0.003	0.006	9.96586441040039	-0.04369418029785156	-0.21308394775390624	3.582000732421875	-4.009246826171875	-1.110076904296875	9.922768780517577	-0.15562310791015624	-0.03890577697753906	0.621795654296875	-5.18035888671875	-3.3111572265625	10.248380206298828	-0.06284779357910156	-0.4010287780761719	2.819061279296875	-4.314422607421875	-1.453399658203125	
241	0.964	0.0	0.0	0.0	0.0	0.006	0.003	0.003	0.009000000000000001	9.667786303710937	0.47165772705078124	0.42975919799804685	4.314422607421875	-4.093170166015625	-1.453399658203125	9.771934075927733	-0.2819172454833984	0.32620997619628905	0.274658203125	-5.214691162109375	-3.10516357421875	10.204087475585936	-0.2867056488037109	-0.3758896606445312	2.567291259765625	-4.795074462890625	-1.19781494140625	
242	0.968	0.0	0.0	0.0	0.0	0.003	0.006	0.003	0.003	9.926360083007811	0.10354922180175781	0.004189852905273437	3.208160400390625	-3.673553466796875	-1.697540283203125	9.885658654785155	-0.08978256225585937	0.09995791931152344	0.804901123046875	-5.275726318359375	-3.34930419921875	10.250774407958984	-0.08319850769042968	-0.4997895965576172	2.773284912109375	-4.34112548828125	-1.56402587890625	
243	0.972	0.0	0.0	0.0	0.0	0.003	0.003	0.003	0.003	9.734225399780273	0.2059013427734375	0.3956418243408203	3.818511962890625	-4.09698486328125	-1.3275146484375	9.855731134033203	-0.49260699157714843	0.2902969512939453	0.049591064453125	-4.901885986328125	-2.857208251953125	10.322001907348632	-0.3387795349121094	-0.4495113616943359	2.750396728515625	-4.558563232421875	-0.96893310546875	
244	0.976	0.0	0.0	0.0	0.0	0.003	0.003	0.003	0.006	9.898826763916015	0.36930560607910157	0.0143652099609375	2.727508544921875	-3.429412841796875	-1.3275146484375	9.922768780517577	-0.06105214233398437	0.017357962036132813	0.782012939453125	-4.962921142578125	-3.505706787109375	10.12507882080078	-0.32022447204589843	-0.48243163452148435	2.87628173828125	-4.650115966796875	-1.3885498046875	
245	0.98	0.0	0.0	0.0	0.0	0.003	0.003	0.003	0.003	9.706093530273437	0.24839842224121092	0.3238157745361328	4.123687744140625	-3.978729248046875	-1.720428466796875	9.777919580078125	-0.3854664672851562	0.36631285400390623	0.186920166015625	-5.283355712890625	-3.276824951171875	10.184933862304687	-0.20949264526367187	-0.4004302276611328	2.9754638671875	-5.08880615234375	-1.293182373046875	
246	0.984	0.0	0.0	0.0	0.0	0.003	0.003	0.003	0.003	9.9461122467041	0.1580173095703125	-0.09995791931152344	2.25830078125	-3.658294677734375	-1.19781494140625	9.992799179077148	-0.11611878051757812	-0.07541735229492187	0.415802001953125	-5.035400390625	-3.22723388671875	10.24000050048828	-0.4177881896972656	-0.48542438659667964	2.7923583984375	-4.49371337890625	-1.476287841796875	
247	0.988	0.0	0.0	0.0	0.0	0.003	0.003	0.003	0.003	10.01015714111328	0.10654197387695312	-0.23582886352539062	2.9296875	-3.826141357421875	-1.163482666015625	9.71028338317871	-0.45010991210937495	0.30885201416015623	0.026702880859375	-5.123138427734375	-3.490447998046875	9.866505041503906	-0.15322890625	0.022744915771484374	2.838134765625	-4.69970703125	-1.560211181640625	
248	0.992	0.0	0.0	0.0	0.0	0.003	0.003	0.003	0.006	9.747393508911133	0.08678981018066406	0.20290859069824219	2.40325927734375	-3.437042236328125	-0.972747802734375	9.92217023010254	-0.09337386474609374	-0.07362170104980469	0.484466552734375	-5.11932373046875	-3.2958984375	10.105925207519531	-0.296881005859375	-0.44592005920410155	2.819061279296875	-4.482269287109375	-1.750946044921875	
249	0.996	0.0	0.0	0.0	0.0	0.009000000000000001	0.003	0.003	0.003	9.916184725952148	0.3016694091796875	-0.09816226806640624	3.27301025390625	-3.719329833984375	-1.57928466796875	9.72943699645996	-0.36930560607910157	0.32142157287597656	0.156402587890625	-5.36346435546875	-3.528594970703125	9.864709390258788	-0.12210428466796874	-0.016160861206054686	2.628326416015625	-4.467010498046875	-1.47247314453125	
250	1.0	0.0	0.0	0.0	0.0	0.003	0.003	0.003	0.003	9.815628256225585	0.28012159423828126	0.18375497741699218	2.6702880859375	-3.643035888671875	-1.644134521484375	9.828197814941406	-0.34177228698730466	-0.014963760375976562	0.335693359375	-5.092620849609375	-3.452301025390625	10.286088882446288	-0.44532150878906246	-0.5608417388916015	2.64739990234375	-4.825592041015625	-1.708984375	
251	1.004	0.0	0.0	0.0	0.0	0.003	0.003	0.003	0.003	9.829993466186522	0.040701428222656245	0.08559270935058594	2.292633056640625	-3.36456298828125	-1.3885498046875	9.712079034423828	-0.21128829650878905	0.3124433166503906	0.25177001953125	-5.22613525390625	-3.662109375	9.783905084228515	-0.0939724151611328	-0.044292730712890624	2.84576416015625	-4.657745361328125	-1.50299072265625	
252	1.008	0.0	0.0	0.0	0.0	1.74	4.665	4.668	4.617	9.929352835083007	-0.03531447448730469	-0.26216508178710934	2.58636474609375	-3.734588623046875	-1.026153564453125	9.763554370117188	-0.35673604736328124	0.05327098693847656	-0.09918212890625	-5.161285400390625	-3.467559814453125	9.749189160156249	-0.33578678283691404	-0.052073886108398436	2.574920654296875	-4.787445068359375	-1.5716552734375	
253	1.012	0.0	0.0	0.0	0.0	4.644	4.671	4.668	4.623	9.91438907470703	0.05985504150390625	0.08798691101074219	1.9989013671875	-3.4637451171875	-1.0833740234375	9.582193594360351	-0.421978042602539	0.4267664459228515	-0.17547607421875	-4.974365234375	-3.482818603515625	9.881468801879882	-0.2549824768066406	-0.037708676147460936	2.66265869140625	-4.7454833984375	-1.65557861328125	
254	1.016	0.0	0.0	0.0	0.0	4.641	4.665	4.674	4.638	9.950302099609374	-0.16160861206054686	-0.09576806640624999	2.483367919921875	-3.551483154296875	-1.071929931640625	9.8311905670166	-0.3806780639648437	-0.08678981018066406	-0.064849853515625	-5.096435546875	-3.726959228515625	9.813832604980469	-0.35015199279785153	-0.10953472595214843	2.61688232421875	-4.66156005859375	-1.796722412109375	
255	1.02	0.0	0.0	0.0	0.0	4.644	4.674	4.674	4.641	9.778518130493163	0.015562310791015624	0.2232593048095703	2.79998779296875	-3.597259521484375	-0.629425048828125	9.559448678588867	-0.3393780853271484	0.40282442932128903	0.171661376953125	-5.214691162109375	-3.604888916015625	9.674968908691406	-0.38845921936035155	0.017956512451171875	2.719879150390625	-4.291534423828125	-1.85394287109375	
256	1.024	0.0	0.0	0.0	0.0	4.635	4.674	4.674	4.641	9.959280355834961	-0.02633621826171875	-0.09038111267089843	2.9449462890625	-3.948211669921875	-0.87738037109375	9.807847100830077	-0.4207809417724609	0.015562310791015624	0.072479248046875	-5.30242919921875	-3.223419189453125	9.903615167236328	-0.3321954803466797	-0.1406593475341797	2.3956298828125	-4.848480224609375	-1.56402587890625	
257	1.028	0.0	0.0	0.0	0.0	4.635	4.671	4.668	4.644	9.87727894897461	-0.028730419921875	0.105344873046875	2.50244140625	-3.421783447265625	-0.881195068359375	9.625289224243163	-0.3716998077392578	0.35613749694824215	-0.00762939453125	-4.634857177734375	-3.53240966796875	9.843760125732421	-0.4333505004882812	-0.022146365356445312	2.651214599609375	-4.543304443359375	-1.720428466796875	
258	1.032	0.0	0.0	0.0	0.0	4.644	4.674	0.705	0.003	9.855132583618163	0.17118541870117188	-0.03651157531738281	3.582000732421875	-3.9520263671875	-1.163482666015625	9.679158761596678	-0.4261678955078125	0.17417817077636719	0.156402587890625	-5.05828857421875	-3.406524658203125	9.843161575317382	-0.1388636962890625	0.016759411621093748	2.468109130859375	-4.47845458984375	-1.285552978515625	
259	1.036	0.0	0.0	0.0	0.0	0.003	0.003	0.003	0.003	9.817423907470703	0.1370680450439453	0.18614917907714842	2.826690673828125	-3.5858154296875	-0.87738037109375	9.634267480468749	-0.30406361083984373	0.3058592620849609	-0.049591064453125	-4.913330078125	-2.9449462890625	9.765948571777344	-0.3962403747558593	-0.01915361328125	2.674102783203125	-4.43267822265625	-1.64794921875	
260	1.04	0.0	0.0	0.0	0.0	0.003	0.003	0.003	0.003	9.951499200439452	-0.03172317199707031	-0.07122749938964844	2.32696533203125	-3.448486328125	-0.8697509765625	9.780912332153319	-0.45010991210937495	0.08319850769042968	-0.0457763671875	-5.214691162109375	-3.448486328125	9.983820922851562	-0.25258827514648435	-0.12569558715820311	2.506256103515625	-4.38690185546875	-1.483917236328125	
261	1.044	0.0	0.0	0.0	0.0	0.009000000000000001	0.003	0.003	0.003	9.922768780517577	0.17118541870117188	0.013168109130859374	3.3416748046875	-3.86810302734375	-1.02996826171875	9.791087689208984	-0.36272155151367186	0.016759411621093748	-0.095367431640625	-4.924774169921875	-3.215789794921875	9.67856021118164	-0.37888241271972656	0.1227028350830078	2.593994140625	-4.306793212890625	-1.544952392578125	
262	1.048	0.0	0.0	0.0	0.0	0.003	0.003	0.003	0.003	9.87009634399414	0.15203180541992187	0.0526724365234375	3.314971923828125	-3.92913818359375	-1.13677978515625	9.710881933593749	-0.40761283264160153	0.10773907470703124	0.0457763671875	-5.10406494140625	-3.215789794921875	9.853935482788085	-0.20231004028320312	-0.037110125732421874	2.407073974609375	-4.497528076171875	-1.491546630859375	
263	1.052	0.0	0.0	0.0	0.0	0.003	0.003	0.003	0.003	10.041880313110351	-0.001197100830078125	-0.1466448516845703	3.22723388671875	-3.997802734375	-0.701904296875	9.87608184814453	-0.3746925598144531	-0.029927520751953124	0.32806396484375	-4.940032958984375	-3.215789794921875	10.232817895507813	-0.28730419921875	-0.412401235961914	2.841949462890625	-4.405975341796875	-1.415252685546875	
264	1.056	0.0	0.0	0.0	0.0	0.006	0.003	0.003	0.006	9.935338339233398	0.1580173095703125	0.15322890625	3.50189208984375	-4.06646728515625	-1.239776611328125	9.862315188598632	-0.3130418670654297	0.13407529296874998	0.080108642578125	-5.07354736328125	-3.2196044921875	9.891644158935547	-0.30526071166992186	-0.047884033203124995	2.60162353515625	-4.44793701171875	-1.6937255859375	
265	1.06	0.0	0.0	0.0	0.0	0.006	0.003	0.006	0.003	9.890447058105469	0.3387795349121094	0.018555062866210937	3.63922119140625	-3.643035888671875	-1.369476318359375	9.785102185058593	-0.2741360900878906	0.044891281127929686	0.209808349609375	-4.863739013671875	-2.902984619140625	10.171765753173828	-0.1292868896484375	-0.411802685546875	2.910614013671875	-4.241943359375	-1.129150390625	
266	1.064	0.0	0.0	0.0	0.0	0.006	0.003	0.003	0.003	9.923367330932617	0.12150573425292968	0.06883329772949218	3.4027099609375	-3.7994384765625	-0.949859619140625	9.81263550415039	-0.277727392578125	0.2214636535644531	0.45013427734375	-5.352020263671875	-3.154754638671875	10.251372958374024	-0.29089550170898437	-0.3699041564941406	3.192901611328125	-5.161285400390625	-1.361846923828125	
267	1.068	0.0	0.0	0.0	0.0	-0.003	0.003	0.003	0.006	9.873687646484374	0.1304839904785156	0.06703764648437499	3.2501220703125	-3.803253173828125	-1.2664794921875	9.995193380737303	-0.32441432495117184	-0.00239420166015625	0.46539306640625	-4.940032958984375	-3.627777099609375	10.235212097167969	-0.1927332336425781	-0.33518823242187495	2.849578857421875	-4.238128662109375	-1.54876708984375	
268	1.072	0.0	0.0	0.0	0.0	0.003	0.003	0.006	0.006	9.9215716796875	0.2657563842773437	0.03651157531738281	3.574371337890625	-3.887176513671875	-1.47247314453125	9.75517466430664	-0.2914940521240234	0.3447650390625	0.17547607421875	-5.054473876953125	-3.131866455078125	10.175357055664062	-0.29269115295410153	-0.2723404388427734	2.948760986328125	-4.825592041015625	-1.255035400390625	
269	1.076	0.0	0.0	0.0	0.0	0.006	0.003	0.003	0.006	9.892841259765625	0.3603273498535156	0.04608838195800781	3.7384033203125	-3.925323486328125	-1.483917236328125	9.893439810180663	-0.15861585998535155	0.15562310791015624	0.49591064453125	-5.14984130859375	-3.459930419921875	10.142436782836914	-0.11133037719726561	-0.4860229370117187	2.964019775390625	-4.688262939453125	-1.377105712890625	
270	1.08	0.0	0.0	0.0	0.0	0.003	0.003	0.003	0.003	9.79408044128418	0.3591302490234375	0.15083470458984374	3.143310546875	-3.448486328125	-1.41143798828125	9.75517466430664	-0.2597708801269531	0.3687070556640625	0.244140625	-5.05828857421875	-3.353118896484375	10.274716424560546	-0.25438392639160157	-0.3651157531738281	3.0059814453125	-4.7760009765625	-1.2664794921875	
271	1.084	0.0	0.0	0.0	0.0	0.003	0.006	0.003	0.003	9.885658654785155	0.3327940307617187	0.1406593475341797	3.833770751953125	-3.597259521484375	-1.36566162109375	9.949703549194336	-0.02154781494140625	0.04967968444824218	0.57220458984375	-4.909515380859375	-3.5858154296875	10.133458526611328	-0.31483751831054685	-0.4483142608642578	2.899169921875	-4.619598388671875	-1.445770263671875	
272	1.088	0.0	0.0	0.0	0.0	0.003	0.003	0.003	0.003	9.811438403320311	0.3890577697753906	0.1083376251220703	3.326416015625	-3.726959228515625	-1.338958740234375	9.726444244384766	-0.3603273498535156	0.28371289672851563	-0.0152587890625	-5.126953125	-3.322601318359375	10.216058483886718	-0.1657984649658203	-0.4064157318115234	2.960205078125	-4.99725341796875	-1.613616943359375	
273	1.092	0.0	0.0	0.0	0.0	-0.003	0.003	0.003	0.006	9.935338339233398	0.15861585998535155	-0.15322890625	2.34222412109375	-3.643035888671875	-1.19781494140625	9.804255798339844	-0.13287819213867186	0.028131869506835935	-0.164031982421875	-4.92095947265625	-3.41033935546875	10.166977349853514	-0.2771288421630859	-0.42497079467773435	3.009796142578125	-4.8980712890625	-1.25885009765625	
274	1.096	0.0	0.0	0.0	0.0	0.003	0.003	0.003	0.0	9.823409411621093	0.27952304382324217	0.09995791931152344	3.620147705078125	-3.925323486328125	-1.6021728515625	9.745597857666015	-0.4339490509033203	0.2549824768066406	0.019073486328125	-4.974365234375	-3.452301025390625	9.86411083984375	-0.18136077575683593	-0.004189852905273437	2.716064453125	-4.428863525390625	-1.506805419921875	
275	1.1	0.0	0.0	0.0	0.0	0.006	0.003	0.003	0.003	9.80665	0.009576806640625	0.06943184814453125	2.26593017578125	-3.620147705078125	-0.972747802734375	9.77432827758789	-0.04548983154296875	-0.003591302490234375	0.3662109375	-5.123138427734375	-3.6773681640625	10.098742602539062	-0.32082302246093747	-0.5189432098388671	3.002166748046875	-4.7149658203125	-1.194000244140625	
276	1.104	0.0	0.0	0.0	0.0	0.003	0.003	0.003	0.003	9.865307940673828	0.34835634155273437	-0.06823474731445311	3.47137451171875	-4.0130615234375	-1.186370849609375	9.767145672607422	-0.24959552307128904	0.3591302490234375	0.247955322265625	-5.100250244140625	-3.27301025390625	9.813832604980469	-0.14245499877929688	0.005985504150390624	2.9144287109375	-4.730224609375	-1.6021728515625	
277	1.108	0.0	0.0	0.0	0.0	0.003	0.003	0.003	0.006	9.892841259765625	0.2645592834472656	-0.08200140686035155	2.841949462890625	-3.60870361328125	-1.19781494140625	9.922768780517577	-0.2454056701660156	-0.11372457885742186	0.247955322265625	-5.02777099609375	-3.44085693359375	9.835380419921874	-0.4070142822265625	-0.02454056701660156	2.471923828125	-4.791259765625	-1.6937255859375	
278	1.112	0.0	0.0	0.0	0.0	0.006	0.003	0.003	0.003	9.759963067626952	0.052073886108398436	0.09337386474609374	2.02178955078125	-3.498077392578125	-1.018524169921875	9.612719665527344	-0.37229835815429685	0.32620997619628905	-0.171661376953125	-4.795074462890625	-3.44085693359375	9.790489138793944	-0.15322890625	-0.0053869537353515625	2.719879150390625	-4.63104248046875	-1.590728759765625	
279	1.116	0.0	0.0	0.0	0.0	0.003	0.003	0.003	0.006	9.868899243164062	0.18315642700195311	-0.04189852905273437	3.292083740234375	-3.662109375	-1.300811767578125	9.865906491088866	-0.22266075439453123	-0.03172317199707031	-0.09918212890625	-5.451202392578125	-3.192901611328125	9.76774422302246	-0.2998737579345703	-0.076614453125	2.796173095703125	-4.75311279296875	-1.506805419921875	
280	1.12	0.0	0.0	0.0	0.0	0.003	0.003	2.19	4.614	9.803058697509766	-0.03232172241210937	0.07900865478515624	2.323150634765625	-3.60870361328125	-0.823974609375	9.661202249145507	-0.37229835815429685	0.38307226562499996	-0.049591064453125	-4.734039306640625	-3.589630126953125	9.796474642944336	-0.3573345977783203	0.008379705810546874	2.597808837890625	-4.329681396484375	-1.735687255859375	
281	1.124	0.0	0.0	0.0	0.0	4.647	4.668	4.671	4.632	9.859322436523437	0.06584054565429687	-0.13467384338378904	1.979827880859375	-3.452301025390625	-1.621246337890625	9.783905084228515	-0.3956418243408203	-0.031124621582031248	0.3814697265625	-5.584716796875	-3.47137451171875	9.829394915771484	-0.32620997619628905	-0.2154781494140625	2.52532958984375	-4.5928955078125	-1.590728759765625	
282	1.1280000000000001	0.0	0.0	0.0	0.0	4.647	4.674	4.671	4.638	9.78689783630371	0.10893617553710937	0.05746083984375	2.849578857421875	-3.80706787109375	-0.84686279296875	9.609726913452148	-0.2597708801269531	0.3232172241210937	-0.453948974609375	-5.031585693359375	-3.448486328125	9.713874685668944	-0.30705636291503907	-0.10773907470703124	2.437591552734375	-4.299163818359375	-1.628875732421875	
283	1.1320000000000001	0.0	0.0	0.0	0.0	4.641	4.671	4.674	4.638	9.984419473266602	0.023942016601562498	-0.07242460021972656	2.460479736328125	-3.68499755859375	-0.720977783203125	9.76235726928711	-0.4914098907470703	-0.016759411621093748	0.3204345703125	-5.275726318359375	-3.27301025390625	9.77492682800293	-0.22086510314941404	-0.25258827514648435	2.902984619140625	-4.61578369140625	-1.293182373046875	
284	1.1360000000000001	0.0	0.0	0.0	0.0	4.638	4.671	4.674	4.644	9.803058697509766	-0.11611878051757812	0.04189852905273437	2.7618408203125	-3.452301025390625	-0.911712646484375	9.783905084228515	-0.31962592163085934	0.05566518859863281	0.20599365234375	-4.749298095703125	-3.27301025390625	9.871891995239258	-0.4010287780761719	-0.16220716247558592	2.788543701171875	-4.4097900390625	-1.987457275390625	
285	1.1400000000000001	0.0	0.0	0.0	0.0	4.644	4.671	4.668	4.647	9.935936889648437	0.04129997863769531	-0.07781155395507812	2.8228759765625	-3.749847412109375	-0.926971435546875	9.613916766357422	-0.39145197143554683	0.2663549346923828	-0.011444091796875	-4.90570068359375	-3.50189208984375	9.925761532592773	-0.05327098693847656	-0.15442600708007811	2.716064453125	-4.512786865234375	-1.312255859375	
286	1.1440000000000001	0.0	0.0	0.0	0.0	4.647	4.674	4.674	0.006	9.987412225341796	0.27832594299316404	-0.17896657409667968	4.123687744140625	-4.0130615234375	-1.3427734375	9.69771382446289	-0.31663316955566406	0.21727380065917967	0.0152587890625	-4.680633544921875	-3.18145751953125	9.739612353515625	-0.4578910675048828	0.044891281127929686	2.5177001953125	-4.3182373046875	-2.063751220703125	
287	1.1480000000000001	0.0	0.0	0.0	0.0	0.003	0.003	0.003	0.003	9.952696301269532	0.07841010437011718	-0.16639701538085935	2.5482177734375	-3.688812255859375	-0.995635986328125	9.86291373901367	-0.39743747558593745	0.10115502014160156	-0.03814697265625	-5.451202392578125	-2.9754638671875	10.012551342773437	-0.08678981018066406	-0.15502455749511718	2.44903564453125	-4.482269287109375	-1.312255859375	
288	1.1520000000000001	0.0	0.0	0.0	0.0	0.003	0.003	0.003	0.006	10.047267266845703	0.3232172241210937	-0.3393780853271484	4.169464111328125	-3.96728515625	-1.255035400390625	9.711480484008788	-0.30885201416015623	0.1897404815673828	0.091552734375	-4.8675537109375	-3.33404541015625	10.238204849243164	-0.5207388610839844	-0.6554127044677734	2.95257568359375	-4.29534912109375	-1.56402587890625	
289	1.156	0.0	0.0	0.0	0.0	0.003	0.003	0.006	0.006	9.949104998779296	-0.058657940673828124	-0.15083470458984374	2.330780029296875	-3.44085693359375	-0.812530517578125	9.810241302490233	-0.3429693878173828	0.1274912384033203	0.026702880859375	-5.138397216796875	-3.139495849609375	9.873089096069336	-0.03232172241210937	-0.02154781494140625	2.414703369140625	-4.3487548828125	-1.70135498046875	
290	1.16	0.0	0.0	0.0	0.0	0.003	0.003	0.003	0.0	10.070610733032225	0.24061726684570311	-0.3058592620849609	3.948211669921875	-4.085540771484375	-1.125335693359375	10.007762939453125	-0.32142157287597656	-0.12210428466796874	0.438690185546875	-4.94384765625	-3.0975341796875	10.224438189697265	-0.44053310546874996	-0.4483142608642578	2.8228759765625	-4.558563232421875	-1.522064208984375	
291	1.164	0.0	0.0	0.0	0.0	0.003	0.006	0.006	0.006	9.833584768676758	0.41359833679199215	0.09516951599121093	4.840850830078125	-4.40216064453125	-1.674652099609375	9.813832604980469	-0.39923312683105466	0.2136824981689453	0.301361083984375	-5.390167236328125	-3.04412841796875	10.265738168334961	-0.18555062866210936	-0.45070846252441404	3.131866455078125	-4.611968994140625	-1.361846923828125	
292	1.168	0.0	0.0	0.0	0.0	0.006	0.003	0.003	0.003	9.950900650024414	0.3010708587646484	-0.086191259765625	3.780364990234375	-4.11224365234375	-1.132965087890625	9.886257205200195	-0.2328361114501953	0.08978256225585937	0.743865966796875	-5.11932373046875	-3.406524658203125	10.177751257324218	-0.2914940521240234	-0.46028526916503903	2.99835205078125	-4.444122314453125	-1.35040283203125	
293	1.172	0.0	0.0	0.0	0.0	0.003	0.003	0.003	0.006	9.73602105102539	0.41958384094238277	0.25318682556152344	4.0130615234375	-4.14276123046875	-1.678466796875	9.737218151855469	-0.18555062866210936	0.32561142578124996	0.186920166015625	-5.115509033203125	-3.326416015625	10.252570059204102	-0.19333178405761717	-0.41958384094238277	2.796173095703125	-4.436492919921875	-1.430511474609375	
294	1.176	0.0	0.0	0.0	0.0	0.003	0.003	0.003	0.006	10.022128149414062	0.3082534637451172	-0.1897404815673828	2.582550048828125	-3.71551513671875	-1.35040283203125	10.046668716430663	-0.23702596435546874	-0.11252747802734374	0.79345703125	-5.077362060546875	-3.22723388671875	10.299855541992187	-0.20171148986816406	-0.6494272003173828	3.055572509765625	-4.505157470703125	-1.262664794921875	
295	1.18	0.0	0.0	0.0	0.0	0.006	0.006	0.003	0.003	9.746794958496093	0.40282442932128903	0.30466216125488277	4.1351318359375	-4.100799560546875	-1.59454345703125	9.781510882568359	-0.21428104858398436	0.26755203552246093	0.232696533203125	-5.06591796875	-3.498077392578125	10.187926614379883	-0.364517202758789	-0.3130418670654297	2.910614013671875	-4.7607421875	-1.708984375	
296	1.184	0.0	0.0	0.0	0.0	0.006	0.003	0.006	0.003	9.762955819702148	0.31483751831054685	0.2442085693359375	2.685546875	-3.612518310546875	-1.27410888671875	9.803058697509766	-0.27353753967285155	0.15023615417480468	-0.164031982421875	-5.153656005859375	-3.4332275390625	10.180744009399413	-0.044891281127929686	-0.6093243225097655	2.841949462890625	-4.58526611328125	-1.407623291015625	
297	1.188	0.0	0.0	0.0	0.0	0.006	0.003	0.003	0.006	9.72345149230957	0.411802685546875	0.3082534637451172	4.35638427734375	-4.02069091796875	-1.6632080078125	9.779715231323241	-0.2615665313720703	0.30526071166992186	-0.35858154296875	-5.0506591796875	-3.856658935546875	10.261548315429687	-0.4914098907470703	-0.3381809844970703	3.509521484375	-4.764556884765625	-1.331329345703125	
298	1.192	0.0	0.0	0.0	0.0	0.003	0.003	0.003	0.003	9.802460147094726	0.15981296081542967	0.10893617553710937	2.655029296875	-3.261566162109375	-1.44195556640625	9.828796365356444	-0.3220201232910156	0.13467384338378904	-0.091552734375	-5.0811767578125	-3.589630126953125	10.149619387817383	-0.12988544006347655	-0.47764323120117186	2.92205810546875	-4.5013427734375	-1.415252685546875	
299	1.196	0.0	0.0	0.0	0.0	0.003	0.003	0.003	0.006	9.873089096069336	-0.040102877807617184	-0.0383072265625	1.987457275390625	-3.34930419921875	-1.04522705078125	9.726444244384766	-0.2262520568847656	0.3860650177001953	0.0	-5.13458251953125	-3.56292724609375	9.688137017822266	-0.3280056274414062	0.1388636962890625	2.643585205078125	-4.47845458984375	-1.33514404296875	
300	1.2	0.0	0.0	0.0	0.0	0.006	0.003	0.003	0.003	9.873089096069336	0.1406593475341797	-0.07781155395507812	2.43377685546875	-3.490447998046875	-1.255035400390625	9.843760125732421	-0.297479556274414	0.09636661682128905	0.324249267578125	-5.126953125	-3.459930419921875	10.15680199279785	-0.229843359375	-0.5566518859863281	3.1585693359375	-4.852294921875	-1.64031982421875	
301	1.204	0.0	0.0	0.0	0.0	0.003	0.003	0.006	0.003	9.948506448364258	-0.044891281127929686	-0.16041151123046873	2.452850341796875	-3.51715087890625	-0.980377197265625	9.769539874267577	-0.3651157531738281	0.19991583862304688	-0.0152587890625	-4.619598388671875	-3.35693359375	9.86411083984375	-0.29568390502929687	-0.10414777221679687	3.070831298828125	-4.795074462890625	-1.361846923828125	
302	1.208	0.0	0.0	0.0	0.0	0.003	0.006	0.003	0.006	9.824007962036132	0.22086510314941404	0.0005985504150390625	2.22015380859375	-3.570556640625	-1.2054443359375	9.819818109130859	-0.16280571289062498	0.030526071166992186	0.270843505859375	-5.062103271484375	-3.3111572265625	9.73063409729004	-0.3716998077392578	-0.07003039855957031	2.407073974609375	-4.688262939453125	-1.880645751953125	
303	1.212	0.0	0.0	0.0	0.0	0.003	0.006	0.003	0.003	9.809044201660155	0.10235212097167969	-0.009576806640625	2.292633056640625	-3.5247802734375	-0.942230224609375	9.623493572998047	-0.3950432739257812	0.38247371520996093	0.156402587890625	-5.06591796875	-3.570556640625	9.785700735473633	-0.21308394775390624	0.009576806640625	2.635955810546875	-4.47845458984375	-1.2664794921875	
304	1.216	0.0	0.0	0.0	0.0	0.006	0.003	0.003	0.006	9.903615167236328	0.11252747802734374	-0.18255787658691405	3.223419189453125	-3.902435302734375	-1.308441162109375	9.719261639404296	-0.3525461944580078	0.02154781494140625	0.244140625	-5.2337646484375	-3.448486328125	9.779116680908203	-0.4531026641845703	0.029927520751953124	2.346038818359375	-4.61578369140625	-1.964569091796875	
305	1.22	0.0	0.0	0.0	0.0	0.003	0.003	0.003	0.006	9.74799205932617	-0.0143652099609375	0.1352723937988281	2.468109130859375	-3.3416748046875	-1.2359619140625	9.644442837524414	-0.35793314819335936	0.4213794921875	-0.34332275390625	-5.06591796875	-3.5552978515625	9.743802206420899	-0.20530279235839843	0.11552023010253906	2.590179443359375	-4.40216064453125	-2.0294189453125	
