	time	dac1	dac2	dac3	dac4	adc1.3	adc2.3	adc3.3	adc4.3	imu1accx	imu1accy	imu1accz	imu1gyrox	imu1gyroy	imu1gyroz	imu2accx	imu2accy	imu2accz	imu2gyrox	imu2gyroy	imu2gyroz	imu3accx	imu3accy	imu3accz	imu3gyrox	imu3gyroy	imu3gyroz	log
0	0.0	0.0	0.0	0.0	0.0	0.003	0.003	0.006	0.003	9.904812268066406	-0.10953472595214843	-0.17477672119140625	2.605438232421875	-3.627777099609375	-1.262664794921875	9.886257205200195	-0.07841010437011718	-0.08259995727539061	0.6866455078125	-5.2032470703125	-3.467559814453125	9.816825357055663	-0.42317514343261714	-0.2454056701660156	2.7923583984375	-4.810333251953125	-1.544952392578125	estabilizou em 6s, descida em 17s, parou em 30s. 1336 RPM
1	0.004	0.0	0.0	0.0	0.0	0.003	0.003	0.003	0.003	9.941323843383788	0.4052186309814453	-0.07122749938964844	3.360748291015625	-3.96728515625	-1.60980224609375	9.782707983398437	-0.37289690856933594	0.17118541870117188	0.16021728515625	-4.909515380859375	-3.231048583984375	9.991003527832031	0.02154781494140625	-0.08559270935058594	2.925872802734375	-4.688262939453125	-1.277923583984375	Started
2	0.008	0.0	0.0	0.0	0.0	0.003	0.003	0.003	0.003	9.890447058105469	0.14245499877929688	-0.14245499877929688	2.41851806640625	-3.414154052734375	-1.194000244140625	9.900023864746093	-0.037708676147460936	-0.03591302490234375	0.377655029296875	-5.199432373046875	-3.620147705078125	9.8449572265625	-0.43993455505371093	-0.22505495605468748	2.89154052734375	-4.9285888671875	-1.60980224609375	IMU1|LSM6DS3|0x6A|I2C-1|±2g (±19,6m/s²)|±125º/s|400Hz
3	0.012	0.0	0.0	0.0	0.0	0.0	0.006	0.003	0.003	9.917381826782226	0.044292730712890624	-0.034715924072265626	2.872467041015625	-3.4332275390625	-1.094818115234375	9.78031378173828	-0.36631285400390623	0.18076222534179687	-0.453948974609375	-5.062103271484375	-3.002166748046875	9.801861596679688	-0.003591302490234375	0.10654197387695312	2.696990966796875	-4.619598388671875	-1.76239013671875	IMU2|LSM6DS3|0x6B|I2C-1|±2g (±19,6m/s²)|±125º/s|400Hz
4	0.016	0.0	0.0	0.0	0.0	0.003	0.006	0.003	0.0	9.861716638183593	0.24600422058105467	-0.10474632263183593	3.314971923828125	-3.70025634765625	-1.209259033203125	9.703100778198241	-0.25737667846679685	0.07122749938964844	0.377655029296875	-5.3253173828125	-3.841400146484375	9.819818109130859	-0.4674678741455078	-0.15382745666503905	2.849578857421875	-4.79888916015625	-1.445770263671875	IMU3|LSM6DS3|0x6B|I2C-2|±2g (±19,6m/s²)|±125º/s|400Hz
5	0.02	0.0	0.0	0.0	0.0	0.006	0.003	0.003	0.003	9.911396322631836	0.08738836059570312	-0.044891281127929686	2.910614013671875	-3.902435302734375	-1.21307373046875	9.758167416381836	-0.39264907226562495	0.24061726684570311	-0.0762939453125	-5.237579345703125	-3.2806396484375	9.791686239624022	-0.05327098693847656	0.12090718383789062	2.407073974609375	-4.52423095703125	-1.708984375	ADC|ADS1015|0|0|1|0|±6,144 V|2400 SPS
6	0.024	0.0	0.0	0.0	0.0	0.003	0.003	0.003	0.006	9.884461553955077	0.08559270935058594	-0.08918401184082031	3.086090087890625	-3.997802734375	-1.041412353515625	9.689334118652344	-0.258573779296875	0.09636661682128905	-0.08392333984375	-5.084991455078125	-3.589630126953125	9.80724855041504	-0.4590881683349609	-0.14604630126953125	2.353668212890625	-4.7149658203125	-1.5411376953125	Gen1|Disabled
7	0.028	0.0	0.0	0.0	0.0	0.003	0.006	0.003	0.006	9.899425314331054	0.017956512451171875	-0.0383072265625	2.99835205078125	-3.570556640625	-0.98419189453125	9.727641345214844	-0.34237083740234375	0.20231004028320312	-0.14495849609375	-4.92095947265625	-2.83050537109375	9.776722479248047	-0.08918401184082031	0.20649989318847656	2.605438232421875	-4.7149658203125	-1.728057861328125	Gen2|Enabled|Noise|0.0|10.0|1668
8	0.032	0.0	0.0	0.0	0.0	0.003	0.003	0.003	0.003	9.878476049804688	0.1867477294921875	-0.11133037719726561	3.292083740234375	-3.887176513671875	-1.224517822265625	9.707290631103515	-0.2980781066894531	0.10714052429199218	0.31280517578125	-5.336761474609375	-3.658294677734375	9.788693487548828	-0.3812766143798828	0.105344873046875	2.681732177734375	-4.848480224609375	-1.56402587890625	Gen3|Enabled|Noise|0.0|10.0|128
9	0.036000000000000004	0.0	0.0	0.0	0.0	0.006	0.003	0.003	0.003	9.963470208740233	0.12150573425292968	-0.025139117431640625	3.017425537109375	-3.734588623046875	-1.094818115234375	9.72943699645996	-0.33698388366699217	0.19991583862304688	0.202178955078125	-4.96673583984375	-3.185272216796875	9.773729727172851	-0.11073182678222655	0.18375497741699218	2.819061279296875	-4.6539306640625	-1.895904541015625	Gen4|Enabled|Noise|0.0|10.0|128
10	0.04	0.0	0.0	0.0	0.0	0.003	0.003	0.003	0.006	9.843161575317382	0.02633621826171875	-0.07422025146484375	3.18145751953125	-3.810882568359375	-1.06048583984375	9.724050042724608	-0.4584896179199218	0.26396073303222656	0.2288818359375	-4.98199462890625	-3.162384033203125	9.743802206420899	-0.39264907226562495	0.15981296081542967	2.391815185546875	-4.60052490234375	-1.338958740234375	Ctrl|Disabled
11	0.044	0.0	0.0	0.0	0.0	0.003	0.003	0.003	0.003	9.993397729492187	0.09217676391601562	-0.02154781494140625	3.08990478515625	-3.772735595703125	-1.01470947265625	9.725247143554688	-0.32620997619628905	0.201112939453125	-0.141143798828125	-4.98199462890625	-3.208160400390625	10.111312161254883	-0.3094505645751953	-0.2567781280517578	2.73895263671875	-4.1961669921875	-1.617431640625	
12	0.048	0.0	0.0	0.0	0.0	0.003	0.003	0.003	0.006	9.897031112670899	0.19393033447265623	0.19033903198242186	2.96783447265625	-3.62396240234375	-0.90789794921875	9.74799205932617	-0.4375403533935547	0.229843359375	0.080108642578125	-5.37109375	-3.173828125	9.76235726928711	-0.354341845703125	0.16759411621093748	2.51007080078125	-4.57763671875	-1.621246337890625	
13	0.052000000000000005	0.0	0.0	0.0	0.0	0.006	0.003	0.003	0.003	9.988609326171874	0.1867477294921875	-0.010175357055664061	3.59344482421875	-3.875732421875	-1.312255859375	9.889249957275391	-0.15083470458984374	0.07122749938964844	0.152587890625	-4.93621826171875	-3.185272216796875	10.091559997558592	-0.3172317199707031	-0.22565350646972654	2.7313232421875	-4.192352294921875	-1.483917236328125	
14	0.056	0.0	0.0	0.0	0.0	0.003	0.003	0.006	0.006	9.839570272827148	0.12509703674316405	0.2555810272216797	2.811431884765625	-3.635406494140625	-1.125335693359375	9.756371765136718	-0.4225765930175781	0.19931728820800781	0.484466552734375	-5.512237548828125	-3.509521484375	10.159794744873047	-0.09157821350097656	-0.29448680419921874	2.8533935546875	-4.734039306640625	-1.209259033203125	
15	0.06	0.0	0.0	0.0	0.0	0.003	0.003	0.003	0.003	9.94730934753418	0.1292868896484375	-0.013766659545898436	3.6468505859375	-3.814697265625	-1.010894775390625	9.859322436523437	-0.1867477294921875	0.07841010437011718	-0.2899169921875	-4.871368408203125	-3.0670166015625	10.078990438842773	-0.3286041778564453	-0.2603694305419922	2.62451171875	-4.24957275390625	-1.644134521484375	
16	0.064	0.0	0.0	0.0	0.0	0.003	0.003	0.003	0.003	9.797073193359374	0.17597382202148437	0.2825157958984375	2.6092529296875	-3.7078857421875	-1.16729736328125	9.7545761138916	-0.3800795135498047	0.43574470214843747	0.22125244140625	-5.214691162109375	-3.047943115234375	10.17715270690918	-0.08499415893554688	-0.3226186737060547	2.84576416015625	-4.44793701171875	-1.16729736328125	
17	0.068	0.0	0.0	0.0	0.0	0.003	0.006	0.006	0.006	9.981426721191406	0.21487959899902342	-0.17298106994628906	3.017425537109375	-4.001617431640625	-1.4495849609375	9.898826763916015	-0.22685060729980466	0.06045359191894531	0.164031982421875	-4.9896240234375	-3.307342529296875	10.123283169555663	-0.39803602600097654	-0.25139117431640623	3.047943115234375	-4.756927490234375	-1.6326904296875	
18	0.07200000000000001	0.0	0.0	0.0	0.0	0.003	0.003	0.003	0.003	9.77492682800293	0.17118541870117188	0.34715924072265625	2.979278564453125	-3.711700439453125	-1.140594482421875	9.759364517211914	-0.3908534210205078	0.44592005920410155	0.23651123046875	-5.374908447265625	-3.337860107421875	10.13884548034668	-0.07721300354003906	-0.30406361083984373	2.765655517578125	-4.688262939453125	-1.415252685546875	
19	0.076	0.0	0.0	0.0	0.0	0.003	0.003	0.003	0.006	9.96047745666504	0.14784195251464843	-0.19213468322753904	2.475738525390625	-3.299713134765625	-1.445770263671875	9.868899243164062	-0.1879448303222656	0.03591302490234375	0.5035400390625	-4.974365234375	-3.23486328125	10.184933862304687	-0.4740519287109375	-0.5967547637939453	2.758026123046875	-4.4097900390625	-1.12152099609375	
20	0.08	0.0	0.0	0.0	0.0	0.006	0.003	0.003	0.003	9.744400756835937	0.11611878051757812	0.35134909362792965	3.726959228515625	-2.986907958984375	-1.190185546875	9.783306533813477	-0.4100070343017578	0.4159925384521484	0.1068115234375	-5.2032470703125	-3.444671630859375	10.210072979736328	-0.12629413757324218	-0.3459621398925781	3.01361083984375	-4.611968994140625	-1.201629638671875	
21	0.084	0.0	0.0	0.0	0.0	0.006	0.003	0.003	0.006	9.941922393798828	0.11851298217773437	-0.18854338073730467	2.346038818359375	-3.68499755859375	-1.338958740234375	9.941922393798828	-0.22565350646972654	-0.1322796417236328	0.579833984375	-4.9285888671875	-3.47137451171875	10.199299072265624	-0.5189432098388671	-0.6021417175292968	3.0364990234375	-4.6844482421875	-1.220703125	
22	0.088	0.0	0.0	0.0	0.0	0.006	0.003	0.003	0.003	9.89523546142578	0.32082302246093747	-0.11552023010253906	3.940582275390625	-4.024505615234375	-1.39617919921875	9.7545761138916	-0.4070142822265625	0.3938461730957031	0.213623046875	-5.077362060546875	-3.421783447265625	9.88386300354004	-0.0987608184814453	-0.09457096557617187	2.979278564453125	-4.489898681640625	-1.407623291015625	
23	0.092	0.0	0.0	0.0	0.0	0.006	0.003	0.003	0.003	9.924564431762695	0.054468087768554684	-0.13168109130859373	2.5634765625	-3.570556640625	-1.239776611328125	9.944316595458984	-0.2292448089599609	-0.14185644836425781	0.705718994140625	-4.82940673828125	-3.35693359375	10.198700521850585	-0.527322915649414	-0.5728127471923827	2.90679931640625	-4.695892333984375	-1.255035400390625	
24	0.096	0.0	0.0	0.0	0.0	0.003	0.003	0.003	0.003	9.93354268798828	0.21068974609375	-0.17238251953125	3.383636474609375	-3.932952880859375	-1.300811767578125	9.737218151855469	-0.421978042602539	0.2561795776367187	0.034332275390625	-5.14984130859375	-3.475189208984375	9.945513696289062	-0.16699556579589842	-0.08080430603027343	3.009796142578125	-4.589080810546875	-1.499176025390625	
25	0.1	0.0	0.0	0.0	0.0	0.003	0.003	0.006	0.003	9.843161575317382	0.21487959899902342	-0.05985504150390625	3.635406494140625	-4.06646728515625	-1.323699951171875	9.94671079711914	-0.2166752502441406	-0.1801636749267578	0.80108642578125	-5.092620849609375	-3.368377685546875	9.842563024902343	-0.3699041564941406	-0.23223756103515625	2.63214111328125	-4.7149658203125	-1.491546630859375	
26	0.10400000000000001	0.0	0.0	0.0	0.0	0.003	0.003	0.006	0.006	9.91498762512207	0.20231004028320312	-0.19812018737792966	3.238677978515625	-3.80706787109375	-1.415252685546875	9.652223992919922	-0.35793314819335936	0.3076549133300781	0.2593994140625	-5.039215087890625	-3.215789794921875	9.85692823486328	-0.1610100616455078	-0.08678981018066406	3.002166748046875	-4.634857177734375	-1.52587890625	
27	0.108	0.0	0.0	0.0	0.0	0.006	0.003	0.006	0.006	9.890447058105469	0.22086510314941404	-0.14006079711914063	3.73077392578125	-4.405975341796875	-1.2969970703125	9.77492682800293	-0.38187516479492184	-0.0430956298828125	-0.06103515625	-5.214691162109375	-3.5400390625	9.867103591918944	-0.3387795349121094	-0.26216508178710934	2.8839111328125	-4.817962646484375	-1.36566162109375	
28	0.112	0.0	0.0	0.0	0.0	0.003	0.003	0.003	0.003	9.9461122467041	0.13168109130859373	-0.21428104858398436	2.880096435546875	-3.6163330078125	-1.384735107421875	9.715670336914062	-0.3220201232910156	0.23882161560058593	0.141143798828125	-5.2337646484375	-3.25775146484375	9.923367330932617	-0.17896657409667968	-0.12389993591308593	2.658843994140625	-4.596710205078125	-2.033233642578125	
29	0.116	0.0	0.0	0.0	0.0	0.006	0.003	0.003	0.006	9.846154327392577	0.19393033447265623	-0.0939724151611328	3.475189208984375	-4.00543212890625	-1.16729736328125	9.71686743774414	-0.37229835815429685	0.017956512451171875	-0.26702880859375	-5.031585693359375	-3.65447998046875	9.797073193359374	-0.27892449340820313	-0.21428104858398436	2.7008056640625	-4.75311279296875	-1.30462646484375	
30	0.12	0.0	0.0	0.0	0.0	0.006	0.003	0.003	0.003	9.795277542114258	0.062249243164062495	0.05985504150390625	2.643585205078125	-3.23486328125	-1.010894775390625	9.677363110351562	-0.3136404174804687	0.17836802368164062	0.1678466796875	-5.04302978515625	-3.24249267578125	9.74799205932617	-0.44053310546874996	0.047884033203124995	2.750396728515625	-4.4708251953125	-1.857757568359375	
31	0.124	0.0	0.0	0.0	0.0	0.006	0.003	0.003	0.006	9.911994873046874	0.09038111267089843	-0.21128829650878905	3.559112548828125	-4.119873046875	-1.39617919921875	9.7683427734375	-0.38307226562499996	0.023343466186523436	-0.35858154296875	-5.130767822265625	-3.4942626953125	9.912593423461914	-0.3064578125	-0.24480711975097655	2.925872802734375	-4.7760009765625	-1.392364501953125	
32	0.128	0.0	0.0	0.0	0.0	0.003	0.003	0.006	0.0	9.78031378173828	0.13407529296874998	0.06045359191894531	2.674102783203125	-3.448486328125	-1.09100341796875	9.630676177978515	-0.35793314819335936	0.2651578338623047	-0.0457763671875	-4.90570068359375	-3.414154052734375	9.758765966796874	-0.4878185882568359	0.037708676147460936	2.3345947265625	-4.4403076171875	-1.8310546875	
33	0.132	0.0	0.0	0.0	0.0	0.006	0.003	0.003	0.003	9.891644158935547	0.16160861206054686	-0.1975216369628906	3.093719482421875	-4.180908203125	-1.415252685546875	9.715071786499022	-0.34656069030761716	0.008379705810546874	0.55694580078125	-5.39398193359375	-3.143310546875	9.704896429443359	-0.023343466186523436	0.07122749938964844	2.399444580078125	-4.64630126953125	-1.392364501953125	
34	0.136	0.0	0.0	0.0	0.0	0.003	0.003	0.003	0.003	9.858125335693359	0.08858546142578125	0.00239420166015625	2.849578857421875	-3.5247802734375	-0.69427490234375	9.661800799560547	-0.3393780853271484	0.29867665710449215	0.030517578125	-4.8065185546875	-3.4637451171875	9.785102185058593	-0.48542438659667964	0.11013327636718749	2.471923828125	-4.50897216796875	-1.80816650390625	
35	0.14	0.0	0.0	0.0	0.0	0.003	0.003	0.003	0.003	9.950900650024414	-0.01975216369628906	-0.13587094421386717	2.391815185546875	-4.0740966796875	-1.1749267578125	9.828796365356444	-0.45669396667480466	-0.047884033203124995	0.31280517578125	-5.43212890625	-3.16619873046875	9.918578927612304	-0.1197100830078125	-0.03172317199707031	2.471923828125	-4.474639892578125	-1.40380859375	
36	0.14400000000000002	0.0	0.0	0.0	0.0	0.003	0.003	0.003	0.003	9.815628256225585	0.10654197387695312	0.055066638183593745	3.11279296875	-3.41796875	-1.102447509765625	9.795277542114258	-0.21128829650878905	-0.010773907470703125	0.20599365234375	-4.75311279296875	-3.231048583984375	10.077194787597655	-0.4584896179199218	-0.5105635040283203	2.658843994140625	-4.2877197265625	-1.33514404296875	
37	0.148	0.0	0.0	0.0	0.0	0.003	0.003	0.003	0.006	9.898826763916015	0.10714052429199218	-0.03411737365722656	2.506256103515625	-3.612518310546875	-0.751495361328125	9.744400756835937	-0.4100070343017578	0.07841010437011718	0.041961669921875	-5.47027587890625	-3.200531005859375	9.789890588378906	0.03591302490234375	0.07062894897460938	2.559661865234375	-4.398345947265625	-1.5411376953125	
38	0.152	0.0	0.0	0.0	0.0	0.003	0.003	0.003	0.003	9.892841259765625	0.2855085479736328	-0.22385785522460935	3.99017333984375	-4.222869873046875	-1.575469970703125	9.94730934753418	-0.30526071166992186	-0.06883329772949218	0.23651123046875	-4.596710205078125	-3.131866455078125	10.328585961914062	-0.5728127471923827	-0.5416881256103515	2.780914306640625	-4.31060791015625	-1.5869140625	
39	0.156	0.0	0.0	0.0	0.0	0.003	1.554	4.662	4.641	9.917980377197265	-0.016160861206054686	-0.020350714111328123	2.532958984375	-3.826141357421875	-0.843048095703125	9.767145672607422	-0.31184476623535157	0.34536358947753903	-0.110626220703125	-5.161285400390625	-3.265380859375	9.735422500610351	0.03591302490234375	0.10295067138671875	2.864837646484375	-4.581451416015625	-1.62506103515625	
40	0.16	0.0	0.0	0.0	0.0	4.635	4.671	4.668	4.644	9.938331091308592	0.5033808990478515	-0.09995791931152344	3.692626953125	-4.093170166015625	-1.15203857421875	9.805452899169921	-0.20769699401855468	0.044292730712890624	0.5035400390625	-4.64630126953125	-3.0670166015625	10.078391888427733	-0.36571430358886714	-0.45010991210937495	3.154754638671875	-4.3182373046875	-1.5411376953125	
41	0.164	0.0	0.0	0.0	0.0	4.644	4.671	4.671	4.632	9.97843396911621	0.23343466186523437	-0.04249707946777344	3.170013427734375	-3.810882568359375	-0.926971435546875	9.90181951599121	-0.3280056274414062	0.2867056488037109	0.133514404296875	-5.27191162109375	-3.177642822265625	10.299256991577147	-0.0987608184814453	-0.40402153015136716	2.75421142578125	-4.756927490234375	-1.3427734375	
42	0.168	0.0	0.0	0.0	0.0	4.641	4.674	4.674	4.623	10.006565838623047	0.12569558715820311	-0.19093758239746092	4.02069091796875	-3.96728515625	-1.45721435546875	9.82460651245117	-0.2567781280517578	0.03591302490234375	0.514984130859375	-4.795074462890625	-3.6163330078125	10.181342559814453	-0.479438882446289	-0.51714755859375	2.964019775390625	-4.43267822265625	-1.636505126953125	
43	0.17200000000000001	0.0	0.0	0.0	0.0	4.647	4.671	4.671	4.623	9.728838446044922	0.6302735870361328	0.14006079711914063	3.875732421875	-4.119873046875	-1.331329345703125	9.732429748535155	-0.18375497741699218	0.3112462158203125	0.125885009765625	-5.3863525390625	-2.98309326171875	10.058041174316406	0.11013327636718749	-0.4333505004882812	3.0059814453125	-4.76837158203125	-1.323699951171875	
44	0.176	0.0	0.0	0.0	0.0	4.644	4.668	4.671	4.638	9.983820922851562	0.5117606048583984	-0.10773907470703124	4.08172607421875	-3.83758544921875	-1.0223388671875	10.078990438842773	-0.29867665710449215	-0.1771709228515625	0.6561279296875	-5.107879638671875	-3.246307373046875	10.237606298828124	-0.33518823242187495	-0.4112041351318359	3.0059814453125	-4.7607421875	-1.03759765625	
45	0.18	0.0	0.0	0.0	0.0	4.644	4.674	4.674	4.641	9.79946739501953	0.3274070770263672	0.11073182678222655	4.261016845703125	-4.261016845703125	-1.6937255859375	9.884461553955077	-0.3238157745361328	0.1975216369628906	0.41961669921875	-5.405426025390625	-3.13568115234375	10.28549033203125	-0.11192892761230468	-0.47704468078613277	2.925872802734375	-4.7607421875	-1.59454345703125	
46	0.184	0.0	0.0	0.0	0.0	4.644	4.674	4.671	4.641	9.973645565795898	0.18734627990722655	-0.11013327636718749	3.50189208984375	-3.841400146484375	-1.39617919921875	9.91438907470703	-0.19153613281249998	-0.07721300354003906	0.415802001953125	-5.0048828125	-3.376007080078125	10.098742602539062	-0.21428104858398436	-0.47704468078613277	3.170013427734375	-4.64630126953125	-1.15966796875	
47	0.188	0.0	0.0	0.0	0.0	4.6290000000000004	4.671	4.671	4.644	9.76235726928711	0.5770026000976562	0.12090718383789062	3.83758544921875	-4.1046142578125	-1.0223388671875	9.704896429443359	-0.09576806640624999	0.3178302703857422	0.499725341796875	-5.30242919921875	-3.2958984375	9.750386260986328	-0.21607669982910155	0.15562310791015624	2.8228759765625	-4.8980712890625	-1.636505126953125	
48	0.192	0.0	0.0	0.0	0.0	4.644	4.671	4.674	4.632	9.929951385498047	0.24600422058105467	-0.016160861206054686	3.2806396484375	-4.009246826171875	-1.739501953125	10.135254177856444	-0.32620997619628905	-0.28730419921875	0.8697509765625	-5.2337646484375	-3.42559814453125	10.317812054443358	-0.412401235961914	-0.4644751220703125	2.96783447265625	-4.6234130859375	-1.033782958984375	
49	0.196	0.0	0.0	0.0	0.0	4.644	4.674	4.674	4.623	9.787496386718749	0.36631285400390623	0.06943184814453125	4.08935546875	-4.047393798828125	-1.857757568359375	9.70369932861328	-0.14604630126953125	0.28490999755859375	0.38909912109375	-5.168914794921875	-3.53240966796875	9.792284790039062	-0.27353753967285155	0.0909796630859375	2.51007080078125	-4.642486572265625	-1.922607421875	
50	0.2	0.0	0.0	0.0	0.0	4.644	4.671	4.671	4.6290000000000004	9.852738381958007	0.007781155395507812	0.040701428222656245	2.43377685546875	-3.620147705078125	-0.858306884765625	9.710881933593749	-0.25737667846679685	0.21966800231933592	0.05340576171875	-5.0811767578125	-3.60107421875	10.147823736572265	-0.23523031311035156	-0.4656722229003906	2.60162353515625	-4.703521728515625	-1.52587890625	
51	0.20400000000000001	0.0	0.0	0.0	0.0	4.647	4.668	4.674	4.635	9.809044201660155	0.4100070343017578	0.0005985504150390625	2.857208251953125	-3.543853759765625	-1.392364501953125	9.85692823486328	-0.27952304382324217	0.13287819213867186	0.362396240234375	-5.14984130859375	-3.353118896484375	9.911994873046874	-0.39983167724609375	0.08439560852050781	2.910614013671875	-4.69207763671875	-1.47247314453125	
52	0.20800000000000002	0.0	0.0	0.0	0.0	4.641	4.674	4.674	4.641	9.872490545654296	0.4285620971679687	-0.011971008300781249	3.082275390625	-3.986358642578125	-1.6937255859375	9.859920986938477	-0.37888241271972656	-0.03531447448730469	0.484466552734375	-4.917144775390625	-3.51715087890625	9.865906491088866	-0.17477672119140625	0.028730419921875	2.47955322265625	-4.75311279296875	-1.476287841796875	
53	0.212	0.0	0.0	0.0	0.0	4.644	4.674	4.674	4.641	9.708487731933593	-0.39264907226562495	0.26336218261718747	2.227783203125	-3.345489501953125	-1.16729736328125	9.527725506591796	-0.21248539733886718	0.469862075805664	0.049591064453125	-5.04302978515625	-3.429412841796875	9.738415252685547	-0.2507926239013672	0.030526071166992186	2.849578857421875	-4.66156005859375	-1.506805419921875	
54	0.216	0.0	0.0	0.0	0.0	4.635	4.671	4.668	4.647	9.878476049804688	-0.37768531188964843	0.10175357055664062	1.9683837890625	-3.53240966796875	-0.560760498046875	9.81263550415039	-0.40222587890625	0.20530279235839843	0.06866455078125	-5.092620849609375	-3.498077392578125	9.879673150634765	-0.21308394775390624	-0.014963760375976562	2.758026123046875	-4.95147705078125	-1.19781494140625	
55	0.22	0.0	0.0	0.0	0.0	4.647	4.674	4.674	4.6290000000000004	9.837176071166992	0.20949264526367187	0.012569558715820313	2.0599365234375	-3.2806396484375	-0.6561279296875	9.735422500610351	-0.37229835815429685	0.26874913635253905	-0.186920166015625	-4.894256591796875	-3.33404541015625	9.86411083984375	-0.5422866760253906	0.025139117431640625	2.544403076171875	-4.2724609375	-1.71661376953125	
56	0.224	0.0	0.0	0.0	0.0	4.647	4.674	4.674	4.623	9.854534033203125	0.3537432952880859	-0.08918401184082031	3.97491455078125	-3.871917724609375	-1.82342529296875	9.658808047485351	-0.4129997863769531	0.1640028137207031	0.12969970703125	-5.161285400390625	-3.326416015625	9.71686743774414	-0.1149216796875	0.029927520751953124	2.712249755859375	-4.93621826171875	-1.560211181640625	
57	0.228	0.0	0.0	0.0	0.0	4.647	4.671	4.674	0.003	9.721057290649414	0.034715924072265626	0.12808978881835936	2.9449462890625	-3.650665283203125	-1.800537109375	9.640851535034178	-0.25737667846679685	0.28790274963378903	0.37384033203125	-5.42449951171875	-3.353118896484375	9.705494979858399	-0.4471171600341797	0.14544775085449219	2.38800048828125	-4.619598388671875	-1.651763916015625	
58	0.232	0.0	0.0	0.0	0.0	0.006	0.003	0.006	0.003	10.022726699829102	-0.49021278991699213	-0.22385785522460935	2.117156982421875	-3.688812255859375	-0.701904296875	9.79946739501953	-0.5123591552734374	0.12210428466796874	-0.453948974609375	-5.069732666015625	-3.36456298828125	9.95987890625	-0.3028665100097656	-0.011372457885742187	2.72369384765625	-4.6234130859375	-1.804351806640625	
59	0.23600000000000002	0.0	0.0	0.0	0.0	0.006	0.006	0.003	0.003	9.785102185058593	-0.49679684448242184	0.11192892761230468	0.873565673828125	-2.811431884765625	-0.19073486328125	9.817423907470703	-0.3687070556640625	0.023343466186523436	-0.171661376953125	-4.833221435546875	-3.253936767578125	9.730035546875	-0.41359833679199215	0.03651157531738281	2.6092529296875	-4.421234130859375	-1.926422119140625	
60	0.24	0.0	0.0	0.0	0.0	0.003	0.006	0.003	0.006	9.904213717651366	0.39803602600097654	-0.17836802368164062	2.819061279296875	-4.03594970703125	-0.72479248046875	9.587580548095703	-0.42437224426269526	0.2609679809570312	-0.408172607421875	-5.1116943359375	-3.330230712890625	9.72285294189453	-0.18076222534179687	0.076614453125	2.658843994140625	-4.8370361328125	-1.556396484375	
61	0.244	0.0	0.0	0.0	0.0	0.003	0.003	0.003	0.003	9.982025271606444	0.3794809631347656	-0.2651578338623047	4.9591064453125	-4.467010498046875	-1.71661376953125	9.836577520751952	-0.3806780639648437	0.05746083984375	0.171661376953125	-5.218505859375	-3.253936767578125	9.85752678527832	-0.43454760131835934	-0.027533319091796873	2.910614013671875	-4.364013671875	-1.308441162109375	
62	0.248	0.0	0.0	0.0	0.0	0.003	0.003	0.003	0.006	10.004770187377929	0.1945288848876953	-0.31663316955566406	3.635406494140625	-3.978729248046875	-1.438140869140625	9.728838446044922	-0.4495113616943359	0.07541735229492187	0.08392333984375	-5.146026611328125	-3.07464599609375	9.926958633422851	-0.34057518615722654	-0.0987608184814453	2.399444580078125	-4.53948974609375	-1.77001953125	
63	0.252	0.0	0.0	0.0	0.0	0.003	0.003	0.003	0.006	9.928155734252929	0.0383072265625	-0.08200140686035155	3.780364990234375	-3.955841064453125	-1.0223388671875	9.724648593139648	-0.32082302246093747	0.11432312927246092	-0.087738037109375	-5.05828857421875	-3.50189208984375	10.10712230834961	-0.19393033447265623	-0.4471171600341797	2.777099609375	-4.32586669921875	-1.3885498046875	
64	0.256	0.0	0.0	0.0	0.0	0.006	0.003	0.006	0.009000000000000001	9.961076007080077	-0.05027823486328125	-0.17776947326660156	3.269195556640625	-4.070281982421875	-1.06048583984375	9.83897172241211	-0.3010708587646484	0.16699556579589842	-0.102996826171875	-5.252838134765625	-3.086090087890625	9.925162982177733	-0.3746925598144531	-0.07481880187988281	2.567291259765625	-4.69207763671875	-1.277923583984375	
65	0.26	0.0	0.0	0.0	0.0	0.006	0.003	0.003	0.003	10.110713610839843	0.12030863342285156	-0.3896563201904297	3.780364990234375	-4.169464111328125	-1.087188720703125	9.87668039855957	-0.39923312683105466	0.03172317199707031	-0.16021728515625	-4.802703857421875	-3.475189208984375	10.263343966674803	-0.28371289672851563	-0.5243301635742187	2.750396728515625	-4.245758056640625	-1.522064208984375	
66	0.264	0.0	0.0	0.0	0.0	0.003	0.003	0.003	0.003	9.828197814941406	0.19572598571777342	0.09457096557617187	3.726959228515625	-3.88336181640625	-1.22833251953125	9.74200655517578	-0.38247371520996093	0.24959552307128904	0.17547607421875	-4.8675537109375	-2.964019775390625	10.096348400878906	-0.37828386230468747	-0.36750995483398435	2.857208251953125	-4.573822021484375	-1.422882080078125	
67	0.268	0.0	0.0	0.0	0.0	-0.003	0.003	0.003	0.009000000000000001	10.04247886352539	0.033518823242187495	-0.29568390502929687	3.826141357421875	-4.3487548828125	-0.949859619140625	9.878476049804688	-0.2711433380126953	-0.005985504150390624	0.698089599609375	-5.290985107421875	-3.21197509765625	10.098144052124022	-0.1131260284423828	-0.39863457641601563	2.8076171875	-4.60052490234375	-1.2969970703125	
68	0.272	0.0	0.0	0.0	0.0	0.006	0.006	0.003	0.003	9.820416659545899	0.49679684448242184	0.07541735229492187	4.344940185546875	-4.444122314453125	-1.35040283203125	9.906607919311522	-0.40940848388671874	0.08678981018066406	0.164031982421875	-5.306243896484375	-3.11279296875	10.280701928710936	-0.4004302276611328	-0.40940848388671874	2.92205810546875	-4.46319580078125	-1.0986328125	
69	0.276	0.0	0.0	0.0	0.0	0.003	0.003	0.003	0.003	9.85752678527832	0.4914098907470703	0.037708676147460936	3.19671630859375	-3.45611572265625	-2.105712890625	9.983820922851562	-0.296881005859375	-0.1005564697265625	0.732421875	-5.126953125	-3.44085693359375	10.299256991577147	-0.2825157958984375	-0.6919242797851562	2.899169921875	-4.573822021484375	-1.76239013671875	
70	0.28	0.0	0.0	0.0	0.0	0.006	0.003	0.003	0.003	9.698910925292969	0.6673837127685547	0.26336218261718747	4.817962646484375	-4.596710205078125	-1.9378662109375	9.695319622802733	-0.11013327636718749	0.1927332336425781	0.225067138671875	-5.30242919921875	-3.314971923828125	10.073603485107421	-0.3022679595947265	-0.29448680419921874	2.92205810546875	-4.5623779296875	-0.980377197265625	
71	0.28400000000000003	0.0	0.0	0.0	0.0	0.003	0.003	0.003	0.003	9.872490545654296	0.09516951599121093	0.010175357055664061	2.796173095703125	-3.803253173828125	-1.36566162109375	10.02332525024414	-0.29089550170898437	-0.10893617553710937	0.576019287109375	-5.397796630859375	-3.353118896484375	10.265139617919921	-0.24660277099609373	-0.6919242797851562	2.93731689453125	-4.82177734375	-1.491546630859375	
72	0.28800000000000003	0.0	0.0	0.0	0.0	0.006	0.003	0.006	0.006	9.822212310791015	0.3142389678955078	0.0796072052001953	4.108428955078125	-3.978729248046875	-1.888275146484375	9.83178911743164	-0.27353753967285155	0.12629413757324218	0.057220458984375	-5.218505859375	-3.482818603515625	10.27890627746582	-0.39983167724609375	-0.39324762268066404	2.773284912109375	-4.741668701171875	-1.434326171875	
73	0.292	0.0	0.0	0.0	0.0	0.0	0.003	0.003	0.006	9.840168823242188	0.19632453613281248	0.09038111267089843	2.742767333984375	-3.60870361328125	-1.079559326171875	9.701305126953125	-0.32620997619628905	0.25797522888183594	0.049591064453125	-5.054473876953125	-3.520965576171875	10.097545501708984	-0.2328361114501953	-0.5021837982177734	2.895355224609375	-4.459381103515625	-1.811981201171875	
74	0.296	0.0	0.0	0.0	0.0	0.003	0.003	0.003	0.003	9.854534033203125	-0.05386953735351562	0.17597382202148437	2.3040771484375	-3.4332275390625	-0.89263916015625	9.769539874267577	-0.14544775085449219	0.229843359375	0.247955322265625	-5.352020263671875	-3.360748291015625	9.78031378173828	-0.11851298217773437	0.0939724151611328	2.838134765625	-4.894256591796875	-1.31988525390625	
75	0.3	0.0	0.0	0.0	0.0	0.003	0.003	0.003	0.003	9.90122096557617	0.023343466186523436	0.07841010437011718	2.811431884765625	-3.536224365234375	-1.026153564453125	9.853935482788085	-0.40761283264160153	0.16041151123046873	0.0	-5.035400390625	-3.398895263671875	10.293271487426757	-0.36750995483398435	-0.5716156463623047	2.838134765625	-4.50897216796875	-1.4801025390625	
76	0.304	0.0	0.0	0.0	0.0	0.003	0.003	0.003	0.003	9.910199221801758	0.03232172241210937	0.044891281127929686	2.3040771484375	-3.59344482421875	-0.9918212890625	9.713276135253906	-0.3094505645751953	0.2651578338623047	0.1373291015625	-4.486083984375	-3.574371337890625	9.771335525512695	-0.15562310791015624	0.18435352783203124	2.5177001953125	-4.665374755859375	-1.377105712890625	
77	0.308	0.0	0.0	0.0	0.0	0.003	0.003	0.003	0.003	9.782707983398437	0.20231004028320312	0.18734627990722655	2.819061279296875	-3.9520263671875	-0.92315673828125	9.699509475708007	-0.29269115295410153	0.28371289672851563	0.133514404296875	-5.023956298828125	-3.200531005859375	9.657012396240233	-0.3842693664550781	-0.032920272827148434	2.60162353515625	-4.61578369140625	-2.02178955078125	
78	0.312	0.0	0.0	0.0	0.0	0.003	0.003	0.003	0.003	9.994594830322265	0.06763619689941405	-0.12808978881835936	2.338409423828125	-3.658294677734375	-1.16729736328125	9.798868844604492	-0.2711433380126953	0.16879121704101563	-0.041961669921875	-4.9285888671875	-3.551483154296875	9.916184725952148	-0.1867477294921875	0.07302315063476562	2.727508544921875	-4.64630126953125	-1.2969970703125	
79	0.316	0.0	0.0	0.0	0.0	0.003	0.003	0.003	0.006	10.002974536132811	0.08678981018066406	-0.35194764404296874	2.994537353515625	-3.749847412109375	-1.201629638671875	9.724050042724608	-0.45669396667480466	-0.007781155395507812	0.270843505859375	-4.909515380859375	-3.35693359375	9.770138424682617	-0.48183308410644526	-0.07122749938964844	2.544403076171875	-4.852294921875	-2.03704833984375	
80	0.32	0.0	0.0	0.0	0.0	0.003	0.003	0.003	0.003	9.932345587158203	0.06943184814453125	-0.0987608184814453	2.0294189453125	-3.41033935546875	-1.0833740234375	9.695319622802733	-0.15741875915527342	0.2214636535644531	0.02288818359375	-5.054473876953125	-3.54766845703125	9.70968483276367	0.03531447448730469	0.22565350646972654	2.5634765625	-4.314422607421875	-1.781463623046875	
81	0.324	0.0	0.0	0.0	0.0	0.003	0.003	0.003	0.006	9.97783541870117	0.06703764648437499	-0.33578678283691404	2.834320068359375	-4.23431396484375	-0.9613037109375	9.719261639404296	-0.4381389038085937	-0.05087678527832031	0.339508056640625	-5.336761474609375	-3.07464599609375	9.765350021362304	-0.41419688720703124	-0.09277531433105468	2.460479736328125	-4.711151123046875	-1.77764892578125	
82	0.328	0.0	0.0	0.0	0.0	0.003	0.003	0.003	0.003	10.046070166015625	0.12210428466796874	-0.13467384338378904	3.82232666015625	-4.131317138671875	-1.041412353515625	9.80724855041504	-0.2651578338623047	0.08559270935058594	0.476837158203125	-4.93621826171875	-3.39508056640625	9.886855755615233	-0.11432312927246092	0.14425065002441406	2.513885498046875	-4.4403076171875	-1.583099365234375	
83	0.332	0.0	0.0	0.0	0.0	0.003	0.003	0.003	0.003	9.948506448364258	0.1149216796875	-0.3220201232910156	3.635406494140625	-4.24957275390625	-0.96893310546875	9.651026892089844	-0.4070142822265625	-0.016160861206054686	0.072479248046875	-5.21087646484375	-3.177642822265625	9.658209497070311	-0.42497079467773435	0.14604630126953125	2.7008056640625	-4.680633544921875	-1.354217529296875	
84	0.336	0.0	0.0	0.0	0.0	0.003	0.003	0.003	0.003	9.97783541870117	0.09038111267089843	0.014963760375976562	3.814697265625	-4.1961669921875	-0.93841552734375	9.798868844604492	-0.17597382202148437	0.11731588134765625	0.431060791015625	-5.0506591796875	-2.99835205078125	9.789292037963866	-0.012569558715820313	0.2280477081298828	2.31170654296875	-4.26483154296875	-1.811981201171875	
85	0.34	0.0	0.0	0.0	0.0	0.003	0.003	0.003	0.006	9.961076007080077	-0.03531447448730469	-0.33758243408203126	3.566741943359375	-4.146575927734375	-0.980377197265625	9.769539874267577	-0.5434837768554687	-0.06105214233398437	0.949859619140625	-5.344390869140625	-3.597259521484375	9.982025271606444	-0.5267243652343749	0.08738836059570312	2.60162353515625	-4.547119140625	-1.476287841796875	
86	0.34400000000000003	0.0	0.0	0.0	0.0	0.006	0.003	0.003	0.003	9.932345587158203	0.07003039855957031	0.040102877807617184	3.42559814453125	-3.88336181640625	-1.0223388671875	9.75517466430664	-0.1292868896484375	0.18914193115234373	0.400543212890625	-5.084991455078125	-3.2196044921875	9.779116680908203	-0.051475335693359374	0.1867477294921875	2.437591552734375	-4.241943359375	-1.79290771484375	
87	0.34800000000000003	0.0	0.0	0.0	0.0	0.006	0.003	0.003	0.006	9.788693487548828	0.11073182678222655	0.36631285400390623	3.498077392578125	-3.864288330078125	-1.293182373046875	9.752181912231444	-0.45489831542968745	0.33039982910156246	0.213623046875	-5.27191162109375	-3.337860107421875	9.777919580078125	-0.3800795135498047	0.15083470458984374	2.62451171875	-4.64630126953125	-1.373291015625	
88	0.352	0.0	0.0	0.0	0.0	0.006	0.003	0.003	0.003	9.951499200439452	-0.03531447448730469	0.06943184814453125	3.39508056640625	-4.055023193359375	-1.007080078125	9.821613760375977	-0.36810850524902344	0.22685060729980466	0.1068115234375	-4.970550537109375	-3.13568115234375	10.352527978515624	-0.23403321228027343	-0.5686228942871093	2.81524658203125	-4.35638427734375	-1.53350830078125	
89	0.356	0.0	0.0	0.0	0.0	0.006	0.003	0.003	0.006	9.873089096069336	-0.05746083984375	0.18435352783203124	2.857208251953125	-3.536224365234375	-1.007080078125	9.817423907470703	-0.40581718139648437	0.2615665313720703	-0.095367431640625	-5.222320556640625	-3.48663330078125	9.892841259765625	-0.43514615173339843	0.005985504150390624	2.887725830078125	-4.604339599609375	-1.605987548828125	
90	0.36	0.0	0.0	0.0	0.0	0.006	0.003	0.003	0.003	9.897629663085937	0.19153613281249998	0.08439560852050781	3.50189208984375	-3.795623779296875	-1.262664794921875	9.839570272827148	-0.11851298217773437	0.0430956298828125	0.568389892578125	-4.924774169921875	-3.01361083984375	10.114304913330077	-0.09935936889648436	-0.5345055206298828	2.712249755859375	-4.364013671875	-1.56402587890625	
91	0.364	0.0	0.0	0.0	0.0	0.003	0.003	0.003	0.003	9.886855755615233	0.06643909606933593	0.11432312927246092	2.7313232421875	-3.818511962890625	-1.04522705078125	9.8694977935791	-0.37888241271972656	0.1771709228515625	0.2593994140625	-5.290985107421875	-3.30352783203125	10.220248336791991	-0.1514332550048828	-0.43993455505371093	2.941131591796875	-4.856109619140625	-0.79345703125	
92	0.368	0.0	0.0	0.0	0.0	0.0	0.003	0.003	0.003	10.029310754394531	0.21308394775390624	-0.2932897033691406	3.498077392578125	-4.261016845703125	-1.251220703125	10.022128149414062	-0.31064766540527344	-0.08499415893554688	0.26702880859375	-4.93621826171875	-3.143310546875	10.327987411499024	-0.3094505645751953	-0.49799394531249996	2.986907958984375	-4.4403076171875	-1.613616943359375	
93	0.372	0.0	0.0	0.0	0.0	0.006	0.006	0.003	0.003	9.746794958496093	0.20530279235839843	0.2136824981689453	2.593994140625	-3.71551513671875	-1.13677978515625	9.654618194580078	-0.19093758239746092	0.3752911102294922	0.431060791015625	-5.18798828125	-3.50189208984375	10.10712230834961	-0.07781155395507812	-0.3537432952880859	2.941131591796875	-4.863739013671875	-1.041412353515625	
94	0.376	0.0	0.0	0.0	0.0	0.006	0.003	0.006	0.006	9.889249957275391	0.4387374542236328	-0.10175357055664062	3.2196044921875	-3.978729248046875	-1.522064208984375	9.90122096557617	-0.19333178405761717	0.03172317199707031	0.247955322265625	-5.146026611328125	-3.448486328125	10.060435375976562	-0.36631285400390623	-0.5590460876464843	2.994537353515625	-4.638671875	-1.25885009765625	
95	0.38	0.0	0.0	0.0	0.0	0.006	0.003	0.003	0.003	9.866505041503906	0.42018239135742186	0.00239420166015625	4.09698486328125	-4.291534423828125	-1.590728759765625	9.839570272827148	-0.3758896606445312	0.3094505645751953	-0.030517578125	-5.39398193359375	-3.31878662109375	10.376469995117187	-0.2059013427734375	-0.4261678955078125	3.185272216796875	-4.89044189453125	-1.1444091796875	
96	0.384	0.0	0.0	0.0	0.0	0.003	0.003	0.003	0.009000000000000001	9.90241806640625	0.34057518615722654	-0.13287819213867186	3.27301025390625	-3.444671630859375	-1.6632080078125	9.93354268798828	-0.25917232971191406	-0.19632453613281248	0.49591064453125	-4.856109619140625	-3.8604736328125	10.126275921630858	-0.5105635040283203	-0.5746083984375	3.0517578125	-4.67681884765625	-1.728057861328125	
97	0.388	0.0	0.0	0.0	0.0	0.009000000000000001	0.003	0.003	0.003	9.801861596679688	0.3752911102294922	0.006584054565429687	3.4942626953125	-3.765106201171875	-1.544952392578125	9.591171850585937	-0.36750995483398435	0.4944026428222656	0.05340576171875	-5.42449951171875	-3.154754638671875	10.020931048583984	-0.016160861206054686	-0.32561142578124996	2.803802490234375	-4.726409912109375	-1.03759765625	
98	0.392	0.0	0.0	0.0	0.0	0.003	0.003	0.003	0.006	9.912593423461914	-0.055066638183593745	-0.07601590270996093	2.288818359375	-3.33404541015625	-1.28936767578125	10.046070166015625	-0.2041056915283203	-0.28909985046386716	0.247955322265625	-5.008697509765625	-3.353118896484375	10.259154113769531	-0.5386953735351562	-0.6482300994873047	2.75421142578125	-4.81414794921875	-1.19781494140625	
99	0.396	0.0	0.0	0.0	0.0	0.003	0.003	0.003	0.003	9.87668039855957	0.12330138549804687	-0.10773907470703124	3.04412841796875	-3.875732421875	-1.407623291015625	9.741408004760741	-0.5817910034179687	0.27174188842773433	0.026702880859375	-4.76837158203125	-3.414154052734375	9.923367330932617	-0.27353753967285155	-0.07900865478515624	2.44140625	-4.69970703125	-1.5716552734375	
100	0.4	0.0	0.0	0.0	0.0	0.003	0.003	0.003	0.006	9.846154327392577	0.023343466186523436	-0.11372457885742186	3.093719482421875	-3.856658935546875	-1.255035400390625	9.809642752075195	-0.09457096557617187	-0.10594342346191406	0.63323974609375	-4.833221435546875	-3.326416015625	9.961674557495117	-0.38247371520996093	-0.5237316131591797	2.918243408203125	-4.650115966796875	-1.33514404296875	
101	0.404	0.0	0.0	0.0	0.0	0.006	0.003	0.003	0.003	9.815029705810547	0.16998831787109375	-0.02154781494140625	2.7313232421875	-3.635406494140625	-1.2359619140625	9.613916766357422	-0.3920505218505859	0.36571430358886714	-0.1068115234375	-5.123138427734375	-3.27301025390625	9.70369932861328	-0.15682020874023436	0.020350714111328123	2.655029296875	-4.82177734375	-1.7852783203125	
102	0.40800000000000003	0.0	0.0	0.0	0.0	0.006	0.003	0.003	0.003	9.951499200439452	-0.033518823242187495	-0.2454056701660156	3.04412841796875	-3.795623779296875	-1.21307373046875	10.075997686767577	-0.3459621398925781	-0.24001871643066405	0.125885009765625	-5.069732666015625	-3.177642822265625	9.93354268798828	-0.44053310546874996	-0.02693476867675781	2.567291259765625	-4.756927490234375	-1.529693603515625	
103	0.41200000000000003	0.0	0.0	0.0	0.0	0.003	0.003	0.003	0.006	9.801861596679688	0.2699462371826172	0.07541735229492187	2.99835205078125	-3.604888916015625	-1.018524169921875	9.613916766357422	-0.38786066894531246	0.36810850524902344	0.1373291015625	-5.191802978515625	-3.42559814453125	9.728838446044922	-0.21906945190429686	-0.02633621826171875	2.593994140625	-4.665374755859375	-1.94549560546875	
104	0.41600000000000004	0.0	0.0	0.0	0.0	0.006	0.003	2.5380000000000003	4.623	9.810241302490233	0.21787235107421873	-0.11911153259277343	2.81524658203125	-3.887176513671875	-1.186370849609375	9.57022258605957	-0.2507926239013672	0.10594342346191406	0.133514404296875	-5.290985107421875	-3.421783447265625	9.540893615722656	-0.15562310791015624	0.05746083984375	2.376556396484375	-4.8675537109375	-1.3427734375	
105	0.42	0.0	0.0	0.0	0.0	4.647	4.671	4.671	4.623	9.836577520751952	-0.008379705810546874	-0.04249707946777344	2.887725830078125	-3.60107421875	-0.93841552734375	9.753977563476562	-0.47704468078613277	0.3112462158203125	0.0152587890625	-4.94384765625	-3.444671630859375	9.904812268066406	-0.5063736511230469	-0.07062894897460938	2.40325927734375	-4.06646728515625	-1.567840576171875	
106	0.424	0.0	0.0	0.0	0.0	4.644	4.671	4.671	4.6290000000000004	9.919776028442381	-0.22026655273437498	-0.17298106994628906	2.292633056640625	-3.627777099609375	-1.09100341796875	9.792284790039062	-0.4590881683349609	0.005985504150390624	0.118255615234375	-5.100250244140625	-3.597259521484375	9.872490545654296	-0.3597287994384765	-0.030526071166992186	2.384185791015625	-4.489898681640625	-1.567840576171875	
107	0.428	0.0	0.0	0.0	0.0	4.647	4.665	4.674	4.638	9.695319622802733	0.07481880187988281	0.18734627990722655	2.635955810546875	-3.513336181640625	-0.66375732421875	9.4618849609375	-0.2920926025390625	0.4010287780761719	0.049591064453125	-4.8370361328125	-3.307342529296875	9.59476315307617	-0.39444472351074217	0.05087678527832031	2.513885498046875	-4.44793701171875	-1.888275146484375	
108	0.432	0.0	0.0	0.0	0.0	4.644	4.674	4.674	4.641	9.89523546142578	-0.0053869537353515625	-0.04967968444824218	2.655029296875	-4.184722900390625	-0.9002685546875	9.77432827758789	-0.4267664459228515	0.022744915771484374	-0.152587890625	-5.13458251953125	-3.253936767578125	9.809044201660155	-0.1514332550048828	-0.020350714111328123	2.73895263671875	-4.619598388671875	-1.3580322265625	
109	0.436	0.0	0.0	0.0	0.0	4.638	4.671	4.674	4.644	9.866505041503906	-0.051475335693359374	0.03890577697753906	2.64739990234375	-3.53240966796875	-1.13677978515625	9.72285294189453	-0.4447229583740234	0.3800795135498047	-0.2288818359375	-4.87518310546875	-3.330230712890625	9.992799179077148	-0.6853402252197265	0.0005985504150390625	2.54058837890625	-4.12750244140625	-1.781463623046875	
110	0.44	0.0	0.0	0.0	0.0	4.638	4.674	4.668	4.644	9.859322436523437	0.08259995727539061	0.02154781494140625	2.288818359375	-3.41796875	-1.041412353515625	9.733028298950195	-0.40222587890625	0.14185644836425781	0.110626220703125	-5.092620849609375	-3.276824951171875	9.865307940673828	-0.061650692749023434	-0.001197100830078125	2.712249755859375	-4.314422607421875	-1.689910888671875	
111	0.444	0.0	0.0	0.0	0.0	4.644	4.671	4.671	4.6290000000000004	9.7162688873291	0.055066638183593745	0.20231004028320312	2.452850341796875	-3.620147705078125	-0.67138671875	9.555258825683593	-0.20829554443359374	0.3327940307617187	-0.179290771484375	-4.95147705078125	-3.261566162109375	9.655815295410155	-0.3274070770263672	0.013766659545898436	2.47955322265625	-4.627227783203125	-1.689910888671875	
112	0.448	0.0	0.0	0.0	0.0	4.65	4.674	4.671	4.623	10.000580334472655	-0.051475335693359374	-0.13108254089355467	2.62451171875	-3.467559814453125	-1.04522705078125	9.950900650024414	-0.5033808990478515	0.0718260498046875	0.08392333984375	-5.435943603515625	-3.16619873046875	10.19570776977539	-0.18076222534179687	-0.21727380065917967	2.712249755859375	-4.6539306640625	-1.255035400390625	
113	0.452	0.0	0.0	0.0	0.0	4.647	4.674	4.674	4.6290000000000004	10.081384640502929	0.105344873046875	-0.25258827514648435	3.97491455078125	-3.887176513671875	-1.308441162109375	10.033500607299803	-0.3968389251708984	-0.17597382202148437	0.385284423828125	-4.764556884765625	-3.520965576171875	10.471639511108398	-0.5452794281005859	-0.814627114868164	2.948760986328125	-4.45556640625	-1.4495849609375	
114	0.456	0.0	0.0	0.0	0.0	4.644	4.668	4.674	4.635	9.805452899169921	0.22864625854492185	0.04848258361816406	2.960205078125	-3.948211669921875	-1.15966796875	9.572018237304688	-0.2136824981689453	0.25797522888183594	-0.179290771484375	-5.474090576171875	-2.93731689453125	9.667187753295899	0.08379705810546874	0.023343466186523436	2.58636474609375	-4.337310791015625	-1.4495849609375	
115	0.46	0.0	0.0	0.0	0.0	4.641	4.674	4.674	4.641	10.020931048583984	0.4165910888671875	-0.2041056915283203	3.99017333984375	-4.1656494140625	-0.988006591796875	9.93952819213867	-0.34177228698730466	-0.06883329772949218	0.29754638671875	-5.046844482421875	-3.101348876953125	10.313622201538085	-0.33758243408203126	-0.6290764862060546	2.83050537109375	-4.486083984375	-1.117706298828125	
116	0.464	0.0	0.0	0.0	0.0	4.641	0.003	0.003	0.006	10.036493359375	-0.17956512451171874	-0.17657237243652343	3.803253173828125	-3.97491455078125	-1.430511474609375	10.016142645263672	-0.32561142578124996	0.07601590270996093	0.48828125	-5.138397216796875	-3.15093994140625	10.46385835571289	-0.40282442932128903	-0.4740519287109375	3.047943115234375	-4.52423095703125	-1.373291015625	
117	0.468	0.0	0.0	0.0	0.0	0.006	0.003	0.003	0.006	9.974244116210937	0.5452794281005859	-0.24779987182617186	4.291534423828125	-4.08935546875	-1.56402587890625	9.74200655517578	-0.06763619689941405	0.06883329772949218	0.46539306640625	-4.726409912109375	-3.22723388671875	10.039486111450195	-0.09995791931152344	-0.5422866760253906	2.7923583984375	-4.23431396484375	-1.35040283203125	
118	0.47200000000000003	0.0	0.0	0.0	0.0	0.006	0.003	0.003	0.006	9.707290631103515	0.5446808776855468	0.2501940734863281	4.33349609375	-4.44793701171875	-1.384735107421875	9.739013803100585	-0.15861585998535155	0.2765302917480469	0.286102294921875	-5.27191162109375	-2.90679931640625	9.980229620361328	-0.07841010437011718	-0.29269115295410153	2.941131591796875	-4.7454833984375	-1.041412353515625	
119	0.47600000000000003	0.0	0.0	0.0	0.0	0.003	0.003	0.003	0.006	10.075997686767577	0.18315642700195311	-0.2855085479736328	3.814697265625	-3.9825439453125	-1.4801025390625	10.158597644042969	-0.4064157318115234	-0.16759411621093748	0.263214111328125	-5.321502685546875	-3.60107421875	10.580575686645508	-0.43933600463867184	-0.6554127044677734	3.12042236328125	-4.78363037109375	-1.3427734375	
120	0.48	0.0	0.0	0.0	0.0	0.0	0.003	0.003	0.003	9.713276135253906	0.5027823486328125	0.20769699401855468	4.11224365234375	-3.83758544921875	-1.560211181640625	9.752780462646484	-0.08678981018066406	0.27174188842773433	0.46539306640625	-5.2337646484375	-3.25775146484375	10.097545501708984	-0.2519897247314453	-0.3298012786865234	2.86102294921875	-4.5623779296875	-1.5869140625	
121	0.484	0.0	0.0	0.0	0.0	0.003	0.006	0.006	0.003	9.6917283203125	0.411802685546875	0.19812018737792966	2.47955322265625	-3.597259521484375	-1.30462646484375	9.779116680908203	-0.19333178405761717	0.1005564697265625	0.63323974609375	-5.344390869140625	-3.276824951171875	9.905410818481444	0.07541735229492187	-0.47584757995605464	3.05938720703125	-4.665374755859375	-1.232147216796875	
122	0.488	0.0	0.0	0.0	0.0	0.006	0.003	0.003	0.006	9.854534033203125	0.42377369384765623	0.10773907470703124	4.695892333984375	-4.367828369140625	-1.667022705078125	10.003573086547851	-0.2950853546142578	0.13766659545898435	0.171661376953125	-4.99725341796875	-3.284454345703125	10.405798965454101	-0.4495113616943359	-0.31962592163085934	2.910614013671875	-4.688262939453125	-1.19781494140625	
123	0.492	0.0	0.0	0.0	0.0	0.006	0.003	0.006	0.003	9.918578927612304	0.26815058593749996	-0.0383072265625	2.9754638671875	-3.582000732421875	-1.644134521484375	10.029310754394531	-0.39444472351074217	-0.16879121704101563	0.507354736328125	-5.1116943359375	-3.99017333984375	10.237606298828124	-0.3124433166503906	-0.49200844116210934	3.0517578125	-4.8065185546875	-1.514434814453125	
124	0.496	0.0	0.0	0.0	0.0	0.003	0.003	0.003	0.003	9.618106619262695	0.39983167724609375	0.4016273284912109	3.864288330078125	-4.20379638671875	-1.24359130859375	9.597157354736327	0.017956512451171875	0.19512743530273435	0.274658203125	-4.932403564453125	-3.391265869140625	9.494206683349608	-0.08259995727539061	0.201112939453125	2.86102294921875	-4.70733642578125	-1.636505126953125	
125	0.5	0.0	0.0	0.0	0.0	0.003	0.003	0.003	0.003	9.843161575317382	0.16460136413574217	0.15083470458984374	2.69317626953125	-3.73077392578125	-0.79345703125	9.983820922851562	-0.3860650177001953	0.07302315063476562	0.011444091796875	-5.25665283203125	-3.63922119140625	10.232817895507813	-0.2424129180908203	-0.5207388610839844	3.25775146484375	-4.909515380859375	-1.079559326171875	
126	0.504	0.0	0.0	0.0	0.0	0.003	0.003	0.003	0.003	9.920973129272461	-0.0047884033203125	-0.05686228942871093	2.285003662109375	-3.50189208984375	-1.129150390625	9.880870251464843	-0.22565350646972654	0.15981296081542967	0.255584716796875	-4.89044189453125	-3.597259521484375	10.014346994018554	-0.46028526916503903	0.022146365356445312	2.90679931640625	-4.7760009765625	-1.52587890625	
127	0.508	0.0	0.0	0.0	0.0	0.006	0.003	0.006	0.003	9.78689783630371	0.49380409240722656	0.08200140686035155	2.83050537109375	-3.3111572265625	-1.598358154296875	9.534908111572266	-0.3920505218505859	0.3232172241210937	-0.110626220703125	-4.913330078125	-3.36456298828125	9.616310968017578	-0.26336218261718747	-0.0053869537353515625	2.60162353515625	-4.604339599609375	-2.010345458984375	
128	0.512	0.0	0.0	0.0	0.0	0.003	0.003	0.003	0.003	9.719860189819336	-0.1274912384033203	0.15203180541992187	1.544952392578125	-3.246307373046875	-0.81634521484375	9.676764559936522	-0.12449848632812499	0.3447650390625	0.026702880859375	-5.08880615234375	-3.265380859375	9.667786303710937	-0.18555062866210936	0.17238251953125	2.777099609375	-4.669189453125	-1.186370849609375	
129	0.516	0.0	0.0	0.0	0.0	0.003	0.006	0.003	0.006	10.000580334472655	0.1131260284423828	-0.201112939453125	2.765655517578125	-3.986358642578125	-0.667572021484375	9.837176071166992	-0.5345055206298828	0.10594342346191406	0.049591064453125	-4.9896240234375	-3.536224365234375	9.907206469726562	-0.5973533142089843	-0.02633621826171875	2.727508544921875	-4.76837158203125	-2.063751220703125	
130	0.52	0.0	0.0	0.0	0.0	0.003	0.003	0.003	0.003	9.891644158935547	0.1592144104003906	-0.16879121704101563	2.166748046875	-3.21197509765625	-1.02996826171875	9.686939916992188	-0.3184288208007812	0.08200140686035155	-0.05340576171875	-4.817962646484375	-3.24249267578125	9.612121115112304	-0.1849520782470703	0.18315642700195311	2.574920654296875	-4.222869873046875	-1.65557861328125	
131	0.524	0.0	0.0	0.0	0.0	0.006	0.003	0.006	0.006	9.810241302490233	0.13347674255371092	-0.1131260284423828	3.37982177734375	-4.08172607421875	-0.858306884765625	9.513360296630859	-0.21308394775390624	0.39923312683105466	-0.17547607421875	-5.16510009765625	-3.1890869140625	9.473855969238281	-0.30466216125488277	0.11851298217773437	2.437591552734375	-4.669189453125	-1.71661376953125	
132	0.528	0.0	0.0	0.0	0.0	0.006	0.003	0.006	0.003	9.943119494628906	-0.07122749938964844	-0.1771709228515625	2.025604248046875	-3.543853759765625	-0.78582763671875	9.750386260986328	-0.508169302368164	0.1370680450439453	-0.06866455078125	-5.096435546875	-3.12042236328125	9.87668039855957	-0.20709844360351562	0.09636661682128905	2.582550048828125	-4.638671875	-1.445770263671875	
133	0.532	0.0	0.0	0.0	0.0	0.003	0.003	0.003	0.006	10.084975942993163	0.0005985504150390625	-0.4740519287109375	3.5400390625	-3.902435302734375	-1.04522705078125	9.885658654785155	-0.5189432098388671	-0.15981296081542967	0.377655029296875	-5.130767822265625	-3.326416015625	9.756970315551758	-0.5051765502929687	-0.11671733093261719	2.460479736328125	-4.566192626953125	-1.979827880859375	
134	0.536	0.0	0.0	0.0	0.0	0.003	0.006	0.003	0.006	9.968258612060547	0.20171148986816406	-0.24480711975097655	4.1046142578125	-4.261016845703125	-0.946044921875	9.5001921875	-0.2519897247314453	0.27952304382324217	0.080108642578125	-4.985809326171875	-2.9754638671875	9.697115274047851	-0.02454056701660156	-0.005985504150390624	2.532958984375	-4.283905029296875	-1.552581787109375	
135	0.54	0.0	0.0	0.0	0.0	0.003	0.003	0.003	0.006	9.93294413757324	0.07422025146484375	-0.18315642700195311	2.8533935546875	-4.093170166015625	-0.54168701171875	9.687538467407226	-0.469263525390625	0.11731588134765625	0.263214111328125	-5.588531494140625	-3.2806396484375	9.85094273071289	-0.4584896179199218	0.03591302490234375	2.681732177734375	-4.5623779296875	-1.0833740234375	
136	0.544	0.0	0.0	0.0	0.0	0.003	0.003	0.003	0.003	10.050260018920898	0.08439560852050781	-0.2280477081298828	4.241943359375	-4.52423095703125	-1.544952392578125	10.057442623901366	-0.3447650390625	-0.1005564697265625	0.568389892578125	-5.252838134765625	-3.05938720703125	10.026916552734374	-0.23523031311035156	-0.023942016601562498	2.544403076171875	-4.4097900390625	-1.903533935546875	
137	0.548	0.0	0.0	0.0	0.0	0.003	0.003	0.003	0.006	9.954491952514648	0.009576806640625	-0.1514332550048828	3.383636474609375	-4.0283203125	-1.28173828125	9.648632690429688	-0.42497079467773435	0.14305354919433594	0.19073486328125	-5.01251220703125	-3.4942626953125	9.943718045043944	-0.421978042602539	-0.17298106994628906	2.750396728515625	-4.34112548828125	-1.468658447265625	
138	0.552	0.0	0.0	0.0	0.0	0.003	0.003	0.003	0.003	9.814431155395507	0.16280571289062498	0.14245499877929688	3.643035888671875	-4.0435791015625	-1.018524169921875	9.740210903930663	-0.10893617553710937	0.20290859069824219	0.4730224609375	-5.25665283203125	-3.208160400390625	10.105326657104492	-0.04668693237304687	-0.5333084197998047	2.780914306640625	-4.344940185546875	-1.6326904296875	
139	0.556	0.0	0.0	0.0	0.0	0.003	0.003	0.003	0.003	9.841964474487304	0.30466216125488277	0.14604630126953125	3.6468505859375	-3.88336181640625	-1.51824951171875	9.964667309570311	-0.5817910034179687	0.13587094421386717	-0.0152587890625	-5.18798828125	-2.964019775390625	10.166977349853514	-0.5901707092285156	-0.1879448303222656	2.655029296875	-4.421234130859375	-1.27410888671875	
140	0.56	0.0	0.0	0.0	0.0	0.006	0.003	0.003	0.006	10.006565838623047	0.08798691101074219	-0.04668693237304687	3.997802734375	-3.84521484375	-1.44195556640625	9.906009368896484	-0.28730419921875	0.023942016601562498	0.278472900390625	-4.802703857421875	-3.070831298828125	10.377667095947265	-0.2603694305419922	-0.6482300994873047	2.9144287109375	-4.253387451171875	-1.94549560546875	
141	0.5640000000000001	0.0	0.0	0.0	0.0	0.006	0.003	0.003	0.003	9.67856021118164	0.2819172454833984	0.35673604736328124	3.398895263671875	-3.8604736328125	-1.201629638671875	9.631873278808593	-0.3184288208007812	0.354341845703125	0.11444091796875	-5.1116943359375	-3.18145751953125	9.750386260986328	-0.316034619140625	-0.014963760375976562	3.040313720703125	-4.8065185546875	-1.1138916015625	
142	0.5680000000000001	0.0	0.0	0.0	0.0	0.009000000000000001	0.003	0.003	0.003	10.084975942993163	0.013168109130859374	-0.15023615417480468	2.552032470703125	-3.749847412109375	-0.0152587890625	9.95987890625	-0.3854664672851562	0.001197100830078125	0.77056884765625	-5.138397216796875	-3.299713134765625	10.371681591796875	-0.2861070983886719	-0.6194996795654296	2.895355224609375	-4.5166015625	-1.40380859375	
143	0.5720000000000001	0.0	0.0	0.0	0.0	0.003	0.003	0.003	0.003	9.920973129272461	0.1304839904785156	0.08678981018066406	3.444671630859375	-3.82232666015625	-1.18255615234375	9.976638317871092	-0.5452794281005859	0.13407529296874998	0.354766845703125	-5.077362060546875	-3.265380859375	10.375272894287109	-0.3232172241210937	-0.46208092041015625	2.8228759765625	-4.512786865234375	-1.331329345703125	
144	0.5760000000000001	0.0	0.0	0.0	0.0	0.003	0.003	0.003	0.003	9.83178911743164	0.316034619140625	0.0430956298828125	2.643585205078125	-3.30352783203125	-1.361846923828125	9.811438403320311	-0.029927520751953124	0.012569558715820313	0.629425048828125	-4.619598388671875	-3.448486328125	10.054449871826172	-0.17477672119140625	-0.3872621185302734	2.66265869140625	-4.26483154296875	-1.644134521484375	
145	0.58	0.0	0.0	0.0	0.0	0.003	0.003	0.003	0.003	9.700108026123047	0.3860650177001953	0.3950432739257812	4.055023193359375	-4.291534423828125	-1.25885009765625	9.79408044128418	-0.34536358947753903	0.37888241271972656	-0.087738037109375	-5.18798828125	-3.31878662109375	10.043077413940429	-0.06404489440917968	-0.20350714111328125	2.86865234375	-4.695892333984375	-1.071929931640625	
146	0.584	0.0	0.0	0.0	0.0	0.003	0.003	0.003	0.003	9.928754284667969	0.04129997863769531	-0.00239420166015625	2.452850341796875	-3.3721923828125	-1.445770263671875	10.137648379516602	-0.2765302917480469	-0.20231004028320312	0.5340576171875	-5.279541015625	-3.299713134765625	10.273519323730468	-0.6039373687744141	-0.5386953735351562	2.849578857421875	-4.75311279296875	-1.42669677734375	
147	0.588	0.0	0.0	0.0	0.0	0.003	0.003	0.003	0.003	9.954491952514648	0.19393033447265623	-0.08858546142578125	2.719879150390625	-3.41033935546875	-1.605987548828125	9.665990652465819	-0.3022679595947265	0.3345896820068359	0.1678466796875	-4.810333251953125	-3.63922119140625	10.057442623901366	-0.030526071166992186	-0.19572598571777342	2.95257568359375	-4.634857177734375	-1.39617919921875	
148	0.592	0.0	0.0	0.0	0.0	0.003	0.003	0.003	0.006	9.74859060974121	0.25737667846679685	0.19991583862304688	2.410888671875	-3.627777099609375	-1.514434814453125	9.81263550415039	-0.14006079711914063	0.05386953735351562	0.48065185546875	-4.924774169921875	-3.08990478515625	9.823409411621093	-0.34117373657226563	-0.2962824554443359	2.7313232421875	-4.669189453125	-1.140594482421875	
149	0.596	0.0	0.0	0.0	0.0	0.006	0.006	0.003	0.006	9.95987890625	0.01915361328125	-0.09816226806640624	2.094268798828125	-3.612518310546875	-1.24359130859375	9.849745629882811	-0.30047230834960936	0.1801636749267578	0.08392333984375	-5.146026611328125	-3.5247802734375	9.817423907470703	-0.1771709228515625	0.00718260498046875	2.8228759765625	-4.76837158203125	-1.461029052734375	
150	0.6	0.0	0.0	0.0	0.0	0.003	0.006	0.003	0.006	9.917980377197265	0.11791443176269531	-0.052073886108398436	2.8228759765625	-3.536224365234375	-1.33514404296875	9.90122096557617	-0.43993455505371093	-0.07721300354003906	-0.22125244140625	-4.82177734375	-3.74603271484375	10.157999093627929	-0.5859808563232421	-0.41958384094238277	2.81524658203125	-4.6234130859375	-1.31988525390625	
151	0.604	0.0	0.0	0.0	0.0	0.003	4.62	4.665	4.641	9.798270294189452	0.21966800231933592	0.1657984649658203	2.13623046875	-3.307342529296875	-1.24359130859375	9.555258825683593	-0.10175357055664062	0.39743747558593745	0.194549560546875	-5.035400390625	-3.498077392578125	9.472658868408203	-0.05805939025878906	0.21487959899902342	2.5482177734375	-4.46319580078125	-1.9073486328125	
152	0.608	0.0	0.0	0.0	0.0	4.632	4.671	4.668	4.644	9.889249957275391	0.11192892761230468	-0.08978256225585937	3.383636474609375	-4.2266845703125	-0.835418701171875	9.785102185058593	-0.31483751831054685	0.032920272827148434	-0.0152587890625	-5.397796630859375	-3.414154052734375	10.08677159423828	-0.4165910888671875	-0.3363853332519531	2.532958984375	-4.78363037109375	-1.483917236328125	
153	0.612	0.0	0.0	0.0	0.0	4.644	4.674	4.674	4.6290000000000004	10.002974536132811	-0.10414777221679687	-0.0718260498046875	2.155303955078125	-3.6468505859375	-1.2054443359375	9.734823950195311	-0.41838674011230464	0.36691140441894526	-0.209808349609375	-4.978179931640625	-3.391265869140625	9.88386300354004	-0.3489548919677734	0.15442600708007811	2.513885498046875	-4.38690185546875	-2.03704833984375	
154	0.616	0.0	0.0	0.0	0.0	4.647	4.674	4.671	4.623	9.868300692749022	0.17477672119140625	-0.011372457885742187	3.093719482421875	-3.772735595703125	-1.117706298828125	9.683348614501952	-0.23403321228027343	0.14604630126953125	0.087738037109375	-4.940032958984375	-3.54766845703125	9.634866030883789	-0.22086510314941404	0.15263035583496093	2.4261474609375	-4.634857177734375	-1.728057861328125	
155	0.62	0.0	0.0	0.0	0.0	4.647	4.671	4.674	4.632	9.798868844604492	0.17956512451171874	0.12808978881835936	2.86865234375	-3.57818603515625	-1.01470947265625	9.46787046508789	-0.1879448303222656	0.507570751953125	0.064849853515625	-5.001068115234375	-3.3721923828125	9.519345800781249	-0.10654197387695312	0.31184476623535157	2.60162353515625	-4.634857177734375	-1.811981201171875	
156	0.624	0.0	0.0	0.0	0.0	4.644	4.665	4.674	4.635	9.987412225341796	0.051475335693359374	-0.12449848632812499	3.475189208984375	-4.116058349609375	-1.277923583984375	9.858125335693359	-0.4830301849365234	0.05566518859863281	-0.072479248046875	-5.21087646484375	-3.086090087890625	9.955090502929687	-0.3393780853271484	-0.033518823242187495	2.37274169921875	-4.6844482421875	-1.529693603515625	
157	0.628	0.0	0.0	0.0	0.0	4.641	4.674	4.674	4.644	9.916184725952148	-0.016759411621093748	0.07003039855957031	2.841949462890625	-3.37982177734375	-1.068115234375	9.594164602661133	-0.28969840087890625	0.4064157318115234	0.225067138671875	-4.8828125	-3.757476806640625	9.974244116210937	-0.479438882446289	-0.17776947326660156	2.7313232421875	-4.4097900390625	-2.124786376953125	
158	0.632	0.0	0.0	0.0	0.0	4.638	4.674	4.674	4.641	9.781510882568359	0.21787235107421873	0.06643909606933593	3.143310546875	-4.12750244140625	-1.148223876953125	9.548076220703125	-0.26216508178710934	0.28012159423828126	0.03814697265625	-5.413055419921875	-3.345489501953125	9.511564645385741	-0.028730419921875	0.2472013214111328	2.315521240234375	-4.669189453125	-1.52587890625	
159	0.636	0.0	0.0	0.0	0.0	4.635	4.671	4.668	4.644	9.930549935913085	0.03890577697753906	0.05686228942871093	2.719879150390625	-3.520965576171875	-0.91552734375	9.828197814941406	-0.2980781066894531	0.09756371765136718	-0.049591064453125	-4.92095947265625	-3.238677978515625	9.980229620361328	-0.43634325256347656	-0.16280571289062498	2.46429443359375	-4.253387451171875	-1.45721435546875	
160	0.64	0.0	0.0	0.0	0.0	4.644	4.674	4.674	0.003	10.060435375976562	-0.020350714111328123	-0.12689268798828124	2.750396728515625	-3.559112548828125	-0.9918212890625	9.795876092529296	-0.48123453369140623	0.11731588134765625	-0.194549560546875	-5.290985107421875	-3.498077392578125	10.258555563354491	-0.2041056915283203	-0.29089550170898437	2.87628173828125	-4.627227783203125	-1.42669677734375	
161	0.644	0.0	0.0	0.0	0.0	0.006	0.006	0.003	0.003	9.8311905670166	0.20709844360351562	0.12509703674316405	3.009796142578125	-3.330230712890625	-0.91552734375	9.641450085449218	-0.19572598571777342	0.2603694305419922	0.03814697265625	-4.9285888671875	-3.326416015625	9.64623848876953	-0.2861070983886719	0.09337386474609374	2.349853515625	-3.9825439453125	-1.605987548828125	
162	0.648	0.0	0.0	0.0	0.0	0.006	0.003	0.003	0.003	9.890447058105469	0.058657940673828124	0.09756371765136718	2.62451171875	-3.620147705078125	-0.70953369140625	9.764751470947266	-0.3495534423828125	0.22266075439453123	0.16021728515625	-5.28717041015625	-2.95257568359375	9.96586441040039	-0.02693476867675781	-0.1562216583251953	2.880096435546875	-4.638671875	-1.346588134765625	
163	0.652	0.0	0.0	0.0	0.0	0.0	0.003	0.006	0.003	10.031704956054687	0.017357962036132813	-0.10414777221679687	3.326416015625	-3.719329833984375	-1.026153564453125	9.94072529296875	-0.4722562774658203	0.05027823486328125	-0.148773193359375	-5.07354736328125	-3.253936767578125	10.065822329711914	-0.556053335571289	-0.12030863342285156	2.62451171875	-4.383087158203125	-1.178741455078125	
164	0.656	0.0	0.0	0.0	0.0	0.006	0.003	0.003	0.003	9.9461122467041	0.19333178405761717	0.023942016601562498	3.07464599609375	-4.055023193359375	-1.140594482421875	9.798270294189452	-0.24061726684570311	0.19812018737792966	0.09918212890625	-5.0201416015625	-3.11279296875	9.951499200439452	-0.11432312927246092	-0.15263035583496093	2.521514892578125	-4.41741943359375	-1.60980224609375	
165	0.66	0.0	0.0	0.0	0.0	0.003	0.003	0.003	0.003	9.926360083007811	0.4734533782958984	-0.14484920043945312	3.871917724609375	-4.15802001953125	-1.3885498046875	9.696516723632811	-0.2280477081298828	0.16879121704101563	0.415802001953125	-5.340576171875	-3.223419189453125	10.099341152954102	-0.14604630126953125	-0.4836287353515625	2.910614013671875	-4.5166015625	-1.21307373046875	
166	0.664	0.0	0.0	0.0	0.0	0.003	0.003	0.003	0.006	9.964068759155273	0.11133037719726561	0.002992752075195312	2.93731689453125	-3.734588623046875	-1.220703125	9.9461122467041	-0.3950432739257812	0.0939724151611328	0.67901611328125	-5.48553466796875	-3.2196044921875	10.190919366455077	-0.3387795349121094	-0.20231004028320312	2.727508544921875	-4.79888916015625	-1.40380859375	
167	0.668	0.0	0.0	0.0	0.0	0.006	0.003	0.003	0.003	10.011952792358398	0.16639701538085935	-0.21787235107421873	3.276824951171875	-4.001617431640625	-1.590728759765625	10.043675964355469	-0.35613749694824215	-0.11851298217773437	0.545501708984375	-5.001068115234375	-3.53240966796875	10.390835205078124	-0.3321954803466797	-0.6625953094482422	2.788543701171875	-4.21905517578125	-1.39617919921875	
168	0.672	0.0	0.0	0.0	0.0	0.006	0.003	0.003	0.003	9.85692823486328	0.354341845703125	0.09157821350097656	3.475189208984375	-3.9520263671875	-1.346588134765625	9.713276135253906	-0.2424129180908203	0.23104046020507812	0.415802001953125	-5.18035888671875	-2.941131591796875	9.943119494628906	-0.14544775085449219	-0.17836802368164062	2.96783447265625	-4.505157470703125	-1.544952392578125	
169	0.676	0.0	0.0	0.0	0.0	0.006	0.003	0.003	0.006	9.916783276367187	0.17657237243652343	-0.05386953735351562	3.18145751953125	-3.90625	-1.148223876953125	9.97244846496582	-0.3268085266113281	0.0017956512451171875	0.55694580078125	-5.275726318359375	-3.238677978515625	10.329184512329102	-0.26276363220214843	-0.5434837768554687	3.01361083984375	-4.589080810546875	-1.285552978515625	
170	0.68	0.0	0.0	0.0	0.0	0.003	0.006	0.003	0.003	9.810839852905273	0.17238251953125	0.12389993591308593	3.265380859375	-3.627777099609375	-1.45721435546875	9.884461553955077	-0.21009119567871093	0.07242460021972656	0.43487548828125	-4.947662353515625	-3.50189208984375	10.31062944946289	-0.40880993347167965	-0.3633201019287109	2.918243408203125	-4.825592041015625	-1.506805419921875	
171	0.684	0.0	0.0	0.0	0.0	0.006	0.003	0.003	0.003	9.80605144958496	0.2950853546142578	0.12988544006347655	3.307342529296875	-3.818511962890625	-1.476287841796875	9.85094273071289	-0.18854338073730467	0.037110125732421874	0.57220458984375	-4.96673583984375	-3.33404541015625	9.929352835083007	-0.16998831787109375	-0.36631285400390623	2.93731689453125	-4.425048828125	-1.3275146484375	
172	0.6880000000000001	0.0	0.0	0.0	0.0	0.003	0.003	0.003	0.003	9.681552963256836	0.34057518615722654	0.3315969299316406	3.215789794921875	-3.879547119140625	-1.399993896484375	9.72285294189453	-0.12090718383789062	0.239420166015625	0.3204345703125	-5.107879638671875	-3.21197509765625	10.02332525024414	-0.3286041778564453	-0.12569558715820311	3.063201904296875	-4.863739013671875	-1.194000244140625	
173	0.6920000000000001	0.0	0.0	0.0	0.0	0.003	0.003	0.003	0.006	9.827000714111328	0.027533319091796873	-0.23642741394042968	2.40325927734375	-3.604888916015625	-1.04522705078125	9.880271701049804	-0.5003881469726562	0.061650692749023434	-0.2593994140625	-5.01251220703125	-3.459930419921875	10.180145458984374	-0.35673604736328124	-0.5135562561035156	2.86865234375	-4.66156005859375	-1.445770263671875	
174	0.6960000000000001	0.0	0.0	0.0	0.0	0.006	0.003	0.003	0.006	9.766547122192382	0.2537853759765625	0.19572598571777342	2.941131591796875	-3.475189208984375	-1.399993896484375	9.718064538574218	-0.1322796417236328	0.3172317199707031	0.202178955078125	-4.993438720703125	-3.368377685546875	10.075997686767577	-0.37828386230468747	-0.22505495605468748	2.60162353515625	-4.58526611328125	-1.361846923828125	
175	0.7000000000000001	0.0	0.0	0.0	0.0	0.003	0.003	0.006	0.003	9.80066449584961	0.15263035583496093	-0.08678981018066406	1.708984375	-3.4332275390625	-0.728607177734375	9.629479077148437	-0.35194764404296874	0.2328361114501953	0.102996826171875	-5.18798828125	-3.5858154296875	9.790489138793944	-0.19093758239746092	-0.2609679809570312	2.8076171875	-4.795074462890625	-1.4495849609375	
176	0.704	0.0	0.0	0.0	0.0	-0.003	0.003	0.003	0.003	9.899425314331054	0.11372457885742186	0.0	2.887725830078125	-3.612518310546875	-1.384735107421875	9.763554370117188	-0.36272155151367186	0.12569558715820311	-0.20599365234375	-4.85992431640625	-3.12042236328125	9.779715231323241	-0.2609679809570312	0.12689268798828124	2.8533935546875	-4.364013671875	-1.377105712890625	
177	0.708	0.0	0.0	0.0	0.0	0.003	0.003	0.003	0.003	9.973047015380859	0.02693476867675781	-0.3178302703857422	2.22015380859375	-3.5552978515625	-1.1749267578125	9.846752877807617	-0.3268085266113281	0.027533319091796873	-0.05340576171875	-4.924774169921875	-3.543853759765625	9.989806427001952	-0.3764882110595703	-0.35194764404296874	2.910614013671875	-4.38690185546875	-1.728057861328125	
178	0.712	0.0	0.0	0.0	0.0	0.003	0.003	0.003	0.0	9.85094273071289	-0.02454056701660156	-0.06943184814453125	2.6397705078125	-3.7841796875	-0.759124755859375	9.598354455566406	-0.4034229797363281	0.24301146850585936	0.3662109375	-5.28717041015625	-3.3416748046875	9.578003741455078	-0.06943184814453125	0.16699556579589842	2.716064453125	-4.726409912109375	-1.5106201171875	
179	0.716	0.0	0.0	0.0	0.0	0.003	0.006	0.003	0.003	9.842563024902343	0.028131869506835935	-0.21068974609375	2.7008056640625	-3.94439697265625	-1.12152099609375	9.665392102050781	-0.34715924072265625	0.0652419952392578	0.08392333984375	-5.153656005859375	-3.1585693359375	9.707889181518555	-0.5584475372314452	-0.00239420166015625	2.483367919921875	-4.619598388671875	-1.74713134765625	
180	0.72	0.0	0.0	0.0	0.0	0.003	0.003	0.003	0.003	9.87009634399414	-0.12330138549804687	-0.08379705810546874	2.780914306640625	-3.692626953125	-1.0528564453125	9.781510882568359	-0.6177040283203125	0.1849520782470703	0.16021728515625	-4.917144775390625	-3.62396240234375	9.90241806640625	-0.19153613281249998	-0.002992752075195312	2.43377685546875	-4.375457763671875	-1.331329345703125	
181	0.724	0.0	0.0	0.0	0.0	0.003	0.003	0.003	0.003	9.816226806640625	0.17298106994628906	-0.0939724151611328	3.88336181640625	-3.9215087890625	-1.2054443359375	9.662399349975585	-0.25258827514648435	0.029927520751953124	0.247955322265625	-5.168914794921875	-3.41033935546875	9.683348614501952	-0.49200844116210934	0.05327098693847656	2.6702880859375	-4.70733642578125	-1.827239990234375	
182	0.728	0.0	0.0	0.0	0.0	0.003	0.003	0.003	0.006	9.700706576538085	0.00718260498046875	0.22864625854492185	2.777099609375	-3.688812255859375	-0.8544921875	9.705494979858399	-0.34237083740234375	0.2059013427734375	-0.152587890625	-4.913330078125	-2.98309326171875	9.764751470947266	-0.028131869506835935	0.025139117431640625	2.655029296875	-4.154205322265625	-1.491546630859375	
183	0.732	0.0	0.0	0.0	0.0	0.0	0.003	0.003	0.003	9.997587582397461	-0.04908113403320312	-0.14963760375976562	3.01361083984375	-4.12750244140625	-1.02996826171875	9.777919580078125	-0.49021278991699213	0.052073886108398436	0.110626220703125	-5.18035888671875	-3.223419189453125	9.86291373901367	-0.6536170532226562	-0.01915361328125	2.349853515625	-4.57000732421875	-1.59454345703125	
184	0.736	0.0	0.0	0.0	0.0	0.006	0.003	0.003	0.006	9.78031378173828	-0.05386953735351562	0.09038111267089843	2.25067138671875	-3.536224365234375	-0.995635986328125	9.79348189086914	-0.3585316986083984	0.10953472595214843	0.301361083984375	-4.92095947265625	-3.376007080078125	9.980828170776366	-0.19393033447265623	-0.1657984649658203	2.57110595703125	-4.169464111328125	-1.73187255859375	
185	0.74	0.0	0.0	0.0	0.0	0.006	0.003	0.003	0.003	9.891644158935547	-0.055066638183593745	-0.1197100830078125	2.3040771484375	-3.795623779296875	-0.553131103515625	9.585186346435547	-0.35015199279785153	0.13108254089355467	0.438690185546875	-5.4168701171875	-2.956390380859375	9.593566052246093	-0.2501940734863281	-0.1352723937988281	2.8533935546875	-4.589080810546875	-1.16729736328125	
186	0.744	0.0	0.0	0.0	0.0	0.003	0.003	0.006	0.003	9.888052856445311	-0.05686228942871093	-0.17896657409667968	4.730224609375	-4.44793701171875	-1.28936767578125	9.789292037963866	-0.3764882110595703	0.15682020874023436	-0.072479248046875	-4.93621826171875	-2.89154052734375	9.965265859985351	-0.2813186950683594	-0.15562310791015624	2.765655517578125	-4.37164306640625	-1.708984375	
187	0.748	0.0	0.0	0.0	0.0	0.003	0.006	0.003	0.006	10.008960040283203	-0.055066638183593745	-0.258573779296875	2.483367919921875	-3.849029541015625	-1.03759765625	9.937133990478515	-0.4860229370117187	0.05386953735351562	0.49591064453125	-5.28717041015625	-3.231048583984375	10.168174450683592	-0.3082534637451172	-0.22685060729980466	2.86102294921875	-4.665374755859375	-1.35040283203125	
188	0.752	0.0	0.0	0.0	0.0	0.006	0.003	0.003	0.003	9.95389340209961	0.3010708587646484	-0.10235212097167969	4.37164306640625	-4.077911376953125	-1.52587890625	9.597755905151367	-0.2855085479736328	0.28730419921875	-0.0457763671875	-4.608154296875	-3.2806396484375	9.78689783630371	-0.17956512451171874	-0.09277531433105468	2.70843505859375	-4.535675048828125	-1.743316650390625	
189	0.756	0.0	0.0	0.0	0.0	0.006	0.003	0.003	0.006	9.87009634399414	-0.013766659545898436	0.025139117431640625	2.506256103515625	-3.765106201171875	-0.698089599609375	9.784503634643555	-0.36750995483398435	0.2747346405029297	0.637054443359375	-5.4473876953125	-3.063201904296875	9.98501802368164	-0.15861585998535155	-0.08319850769042968	2.5787353515625	-4.795074462890625	-1.087188720703125	
190	0.76	0.0	0.0	0.0	0.0	0.003	4.611	4.662	4.635	10.029310754394531	0.12569558715820311	-0.18375497741699218	3.780364990234375	-3.887176513671875	-1.1749267578125	10.08078609008789	-0.2537853759765625	-0.11073182678222655	0.70953369140625	-4.848480224609375	-3.21197509765625	10.408193167114257	-0.5099649536132812	-0.5303156677246094	2.666473388671875	-4.57763671875	-1.373291015625	
191	0.764	0.0	0.0	0.0	0.0	4.638	4.671	4.674	4.638	9.798270294189452	0.5009866973876953	0.14604630126953125	4.20379638671875	-4.024505615234375	-1.64031982421875	9.802460147094726	-0.2507926239013672	0.18555062866210936	0.026702880859375	-5.084991455078125	-2.933502197265625	10.04247886352539	-0.06943184814453125	-0.22026655273437498	2.742767333984375	-4.57000732421875	-1.499176025390625	
192	0.768	0.0	0.0	0.0	0.0	4.641	4.674	4.674	4.644	9.923367330932617	0.37888241271972656	-0.03890577697753906	3.864288330078125	-4.192352294921875	-1.3275146484375	9.91438907470703	-0.19991583862304688	0.028730419921875	0.640869140625	-4.8980712890625	-3.12042236328125	10.171167202758788	-0.37888241271972656	-0.49260699157714843	2.9449462890625	-4.459381103515625	-1.178741455078125	
193	0.772	0.0	0.0	0.0	0.0	4.635	4.671	4.674	4.644	9.809642752075195	0.44592005920410155	0.1388636962890625	4.44793701171875	-4.268646240234375	-1.445770263671875	9.843760125732421	-0.1975216369628906	0.18315642700195311	0.49591064453125	-5.420684814453125	-3.0517578125	10.128071572875976	-0.06344634399414062	-0.1657984649658203	2.8839111328125	-4.55474853515625	-1.312255859375	
194	0.776	0.0	0.0	0.0	0.0	4.644	4.674	4.668	4.644	9.962871658325195	0.3172317199707031	-0.09337386474609374	4.878997802734375	-3.955841064453125	-1.392364501953125	9.99160207824707	-0.30466216125488277	-0.08559270935058594	0.6866455078125	-5.153656005859375	-3.4637451171875	10.365696087646484	-0.4537012145996093	-0.6841431243896484	2.887725830078125	-4.413604736328125	-1.255035400390625	
195	0.78	0.0	0.0	0.0	0.0	4.644	4.674	4.674	4.626	9.749189160156249	0.5255272644042969	0.13407529296874998	3.681182861328125	-4.077911376953125	-1.384735107421875	9.743203656005859	-0.07242460021972656	0.18914193115234373	0.67138671875	-5.283355712890625	-2.93731689453125	9.941922393798828	0.01915361328125	-0.10414777221679687	3.02886962890625	-4.955291748046875	-1.2969970703125	
196	0.784	0.0	0.0	0.0	0.0	4.647	4.674	4.671	4.623	9.85632968444824	0.20769699401855468	-0.017357962036132813	2.964019775390625	-3.74603271484375	-1.220703125	9.890447058105469	-0.3286041778564453	-0.0383072265625	0.51116943359375	-5.252838134765625	-3.467559814453125	9.967061511230469	-0.2867056488037109	-0.19512743530273435	2.777099609375	-4.90570068359375	-0.885009765625	
197	0.788	0.0	0.0	0.0	0.0	4.647	4.671	4.674	4.635	9.822212310791015	0.39145197143554683	0.044891281127929686	3.90625	-3.82232666015625	-1.377105712890625	9.879673150634765	-0.2292448089599609	0.06883329772949218	0.06866455078125	-5.153656005859375	-3.10516357421875	10.19510921936035	-0.1610100616455078	-0.3172317199707031	3.009796142578125	-4.802703857421875	-1.38092041015625	
198	0.792	0.0	0.0	0.0	0.0	4.644	4.674	0.003	0.003	9.789890588378906	0.24959552307128904	0.014963760375976562	2.803802490234375	-3.879547119140625	-1.468658447265625	9.865307940673828	-0.23882161560058593	-0.08140285644531249	0.270843505859375	-5.16510009765625	-3.70025634765625	9.95987890625	-0.24480711975097655	-0.26815058593749996	3.04412841796875	-4.535675048828125	-1.232147216796875	
199	0.796	0.0	0.0	0.0	0.0	0.006	0.003	0.003	0.006	9.756371765136718	0.5039794494628906	0.011971008300781249	2.7313232421875	-3.719329833984375	-1.071929931640625	9.64025298461914	-0.15981296081542967	0.3447650390625	0.400543212890625	-4.82940673828125	-3.337860107421875	10.035296258544921	-0.09038111267089843	-0.20649989318847656	2.64739990234375	-4.787445068359375	-1.3885498046875	
200	0.8	0.0	0.0	0.0	0.0	0.006	0.006	0.006	0.006	9.88386300354004	0.22026655273437498	0.003591302490234375	3.05938720703125	-3.734588623046875	-1.224517822265625	10.015544094848632	-0.3848679168701172	-0.20171148986816406	0.133514404296875	-5.023956298828125	-3.513336181640625	10.13824692993164	-0.277727392578125	-0.40880993347167965	2.872467041015625	-4.76837158203125	-1.110076904296875	
201	0.804	0.0	0.0	0.0	0.0	0.006	0.003	0.003	0.003	9.776722479248047	-0.02454056701660156	0.06404489440917968	1.796722412109375	-3.509521484375	-1.041412353515625	9.749787710571288	-0.17118541870117188	0.10893617553710937	0.141143798828125	-5.02777099609375	-3.688812255859375	9.70369932861328	-0.3022679595947265	0.181959326171875	2.716064453125	-4.5318603515625	-1.781463623046875	
202	0.808	0.0	0.0	0.0	0.0	0.003	0.003	0.003	0.006	9.789292037963866	0.35134909362792965	0.09157821350097656	2.384185791015625	-3.711700439453125	-1.201629638671875	9.588777648925781	-0.37768531188964843	0.2376245147705078	-0.18310546875	-5.31768798828125	-3.467559814453125	9.94072529296875	-0.14544775085449219	-0.4016273284912109	2.910614013671875	-4.72259521484375	-1.270294189453125	
203	0.812	0.0	0.0	0.0	0.0	0.006	0.003	0.003	0.006	9.835380419921874	-0.037708676147460936	0.00239420166015625	2.40325927734375	-3.41033935546875	-0.896453857421875	9.749787710571288	-0.13826514587402344	0.24839842224121092	0.247955322265625	-5.054473876953125	-3.41033935546875	9.707290631103515	-0.36691140441894526	0.23343466186523437	2.384185791015625	-4.505157470703125	-1.77764892578125	
204	0.8160000000000001	0.0	0.0	0.0	0.0	0.009000000000000001	0.003	0.003	0.003	9.950900650024414	-0.0047884033203125	-0.28790274963378903	3.017425537109375	-3.910064697265625	-1.018524169921875	9.668384854125977	-0.5422866760253906	0.20829554443359374	-0.18310546875	-5.19561767578125	-3.414154052734375	9.803058697509766	-0.3226186737060547	0.025737667846679687	2.47955322265625	-4.7149658203125	-1.811981201171875	
205	0.8200000000000001	0.0	0.0	0.0	0.0	0.003	0.003	0.003	0.006	9.712677584838866	0.03531447448730469	0.105344873046875	1.674652099609375	-3.376007080078125	-0.934600830078125	9.687538467407226	-0.15203180541992187	0.1849520782470703	-0.12969970703125	-4.856109619140625	-3.34930419921875	9.567229833984374	-0.20290859069824219	0.2663549346923828	2.2430419921875	-4.61578369140625	-1.46484375	
206	0.8240000000000001	0.0	0.0	0.0	0.0	0.006	0.003	0.003	0.003	9.910199221801758	-0.002992752075195312	-0.23343466186523437	2.92205810546875	-4.085540771484375	-0.888824462890625	9.631274728393555	-0.41419688720703124	0.22385785522460935	-0.118255615234375	-4.993438720703125	-3.284454345703125	9.65342109375	-0.2980781066894531	0.12449848632812499	2.422332763671875	-4.8675537109375	-1.82342529296875	
207	0.8280000000000001	0.0	0.0	0.0	0.0	0.003	0.003	0.006	0.003	9.855132583618163	-0.0796072052001953	-0.047285482788085934	2.307891845703125	-3.299713134765625	-1.110076904296875	9.777919580078125	-0.4052186309814453	0.04548983154296875	-0.141143798828125	-4.93621826171875	-3.24249267578125	10.032902056884765	-0.24361001892089842	-0.1867477294921875	2.716064453125	-4.17327880859375	-1.651763916015625	
208	0.8320000000000001	0.0	0.0	0.0	0.0	0.003	0.003	0.003	0.006	9.897629663085937	0.022146365356445312	-0.2507926239013672	2.315521240234375	-3.5552978515625	-0.873565673828125	9.566032733154296	-0.4070142822265625	0.2154781494140625	-0.69427490234375	-4.94384765625	-3.353118896484375	9.604938510131836	-0.35194764404296874	0.13168109130859373	2.32696533203125	-4.32586669921875	-1.94549560546875	
209	0.836	0.0	0.0	0.0	0.0	0.003	0.006	0.003	0.003	10.024522351074218	0.09516951599121093	-0.28909985046386716	3.936767578125	-4.238128662109375	-1.049041748046875	9.629479077148437	-0.3226186737060547	0.17417817077636719	0.0762939453125	-5.039215087890625	-3.24249267578125	9.882067352294921	-0.05746083984375	-0.11432312927246092	2.70843505859375	-4.38690185546875	-1.461029052734375	
210	0.84	0.0	0.0	0.0	0.0	0.003	0.006	0.003	0.006	9.982623822021484	-0.05327098693847656	-0.29867665710449215	3.025054931640625	-4.20379638671875	-0.885009765625	9.85094273071289	-0.508169302368164	-0.02154781494140625	0.213623046875	-5.18035888671875	-2.925872802734375	9.773131176757811	-0.5386953735351562	-0.009576806640625	2.90679931640625	-4.7454833984375	-1.922607421875	
211	0.844	0.0	0.0	0.0	0.0	0.003	0.003	0.003	0.003	10.066420880126952	0.022744915771484374	-0.37828386230468747	3.459930419921875	-3.910064697265625	-1.171112060546875	9.71028338317871	-0.36930560607910157	0.033518823242187495	0.25177001953125	-4.848480224609375	-3.490447998046875	9.957484704589843	-0.14604630126953125	-0.09576806640624999	2.777099609375	-4.306793212890625	-1.7547607421875	
212	0.848	0.0	0.0	0.0	0.0	0.003	0.003	0.003	0.006	9.982623822021484	0.029328970336914062	-0.34715924072265625	4.638671875	-4.4097900390625	-1.5106201171875	9.714473236083984	-0.4273649963378906	0.1149216796875	0.49591064453125	-5.245208740234375	-3.082275390625	10.096348400878906	-0.37708676147460934	-0.31543606872558594	2.89154052734375	-4.75311279296875	-1.434326171875	
213	0.852	0.0	0.0	0.0	0.0	0.003	0.003	0.003	0.003	9.973645565795898	0.17597382202148437	-0.1562216583251953	4.398345947265625	-4.5928955078125	-1.3275146484375	9.944316595458984	-0.11911153259277343	0.04369418029785156	0.83160400390625	-5.157470703125	-3.185272216796875	10.060435375976562	-0.07900865478515624	-0.20290859069824219	2.8076171875	-4.33349609375	-1.4495849609375	
214	0.856	0.0	0.0	0.0	0.0	0.003	0.003	0.003	0.003	9.791087689208984	0.21428104858398436	0.2753331909179687	4.058837890625	-3.97491455078125	-1.74713134765625	9.785700735473633	-0.47285482788085936	0.1849520782470703	0.48065185546875	-5.275726318359375	-3.330230712890625	10.202890374755858	-0.5291185668945312	-0.2867056488037109	2.86865234375	-4.657745361328125	-1.09100341796875	
215	0.86	0.0	0.0	0.0	0.0	0.003	0.003	0.003	0.006	9.955090502929687	0.1227028350830078	-0.04967968444824218	3.7841796875	-4.215240478515625	-1.323699951171875	9.891644158935547	-0.14305354919433594	0.009576806640625	0.263214111328125	-5.07354736328125	-3.154754638671875	10.295067138671874	-0.2088940948486328	-0.6667851623535156	3.082275390625	-4.459381103515625	-1.369476318359375	
216	0.864	0.0	0.0	0.0	0.0	0.006	0.003	0.003	0.003	9.722254391479492	0.3232172241210937	0.3507505432128906	3.940582275390625	-3.84521484375	-1.62506103515625	9.69771382446289	-0.3860650177001953	0.45549686584472654	0.217437744140625	-5.222320556640625	-3.45611572265625	10.122086068725585	-0.3950432739257812	-0.3226186737060547	2.74658203125	-4.894256591796875	-0.92315673828125	
217	0.868	0.0	0.0	0.0	0.0	0.006	0.003	0.006	0.006	10.022726699829102	0.15322890625	-0.18315642700195311	2.490997314453125	-3.45611572265625	-0.934600830078125	9.967061511230469	-0.24480711975097655	0.05686228942871093	0.35858154296875	-4.974365234375	-3.27301025390625	10.360907684326172	-0.3651157531738281	-0.6027402679443359	2.9449462890625	-4.673004150390625	-1.59454345703125	
218	0.872	0.0	0.0	0.0	0.0	0.003	0.003	0.003	0.003	9.803058697509766	0.2292448089599609	0.19512743530273435	3.513336181640625	-3.604888916015625	-1.31988525390625	9.769539874267577	-0.4159925384521484	0.34117373657226563	0.370025634765625	-4.92095947265625	-3.444671630859375	10.047267266845703	-0.14484920043945312	-0.17836802368164062	3.01361083984375	-4.61578369140625	-1.27410888671875	
219	0.876	0.0	0.0	0.0	0.0	0.009000000000000001	0.003	0.003	0.006	9.910199221801758	0.17417817077636719	-0.058657940673828124	2.773284912109375	-3.803253173828125	-1.02996826171875	9.858125335693359	-0.09457096557617187	0.0143652099609375	0.5340576171875	-4.95147705078125	-3.414154052734375	10.180744009399413	-0.31184476623535157	-0.6027402679443359	3.032684326171875	-4.741668701171875	-1.499176025390625	
220	0.88	0.0	0.0	0.0	0.0	-0.003	0.003	0.003	0.003	9.789890588378906	0.15741875915527342	0.21128829650878905	3.76129150390625	-4.0435791015625	-1.331329345703125	9.819818109130859	-0.43993455505371093	0.2920926025390625	0.499725341796875	-5.550384521484375	-3.326416015625	10.144232434082031	-0.10115502014160156	-0.2316390106201172	2.99072265625	-4.89044189453125	-1.125335693359375	
221	0.884	0.0	0.0	0.0	0.0	0.003	0.003	0.003	0.006	9.858125335693359	0.2262520568847656	0.07302315063476562	2.60162353515625	-3.3111572265625	-1.373291015625	9.983820922851562	-0.17178396911621094	-0.10115502014160156	0.75531005859375	-4.90570068359375	-3.4332275390625	10.32379755859375	-0.45549686584472654	-0.5955576629638671	2.86865234375	-4.634857177734375	-1.44195556640625	
222	0.888	0.0	0.0	0.0	0.0	0.006	0.003	0.006	0.006	9.898826763916015	0.23403321228027343	0.02454056701660156	2.475738525390625	-3.48663330078125	-1.636505126953125	9.624690673828125	-0.34057518615722654	0.39863457641601563	-0.057220458984375	-5.0506591796875	-3.34930419921875	9.944915145874022	-0.012569558715820313	-0.06823474731445311	2.834320068359375	-4.63104248046875	-1.38092041015625	
223	0.892	0.0	0.0	0.0	0.0	0.003	0.003	0.003	0.006	9.858723886108399	0.21428104858398436	0.10654197387695312	2.6702880859375	-3.459930419921875	-1.47247314453125	9.996989031982421	-0.2376245147705078	-0.09756371765136718	0.438690185546875	-5.279541015625	-3.459930419921875	9.938331091308592	-0.43993455505371093	-0.23523031311035156	2.99835205078125	-4.779815673828125	-1.651763916015625	
224	0.896	0.0	0.0	0.0	0.0	0.003	0.003	0.003	0.003	9.92755718383789	-0.04249707946777344	-0.040701428222656245	2.025604248046875	-3.48663330078125	-1.308441162109375	9.745597857666015	-0.3525461944580078	0.31004911499023435	0.05340576171875	-5.39398193359375	-3.57818603515625	10.091559997558592	-0.08020575561523437	-0.1771709228515625	2.857208251953125	-4.863739013671875	-1.285552978515625	
225	0.9	0.0	0.0	0.0	0.0	0.003	4.644	4.665	4.632	9.848548529052733	0.23822306518554687	0.06584054565429687	3.040313720703125	-3.963470458984375	-1.06048583984375	9.92217023010254	-0.1801636749267578	-0.059256491088867186	0.12969970703125	-5.31768798828125	-3.734588623046875	9.91558617553711	-0.3758896606445312	-0.24061726684570311	2.655029296875	-4.848480224609375	-1.3580322265625	
226	0.904	0.0	0.0	0.0	0.0	4.644	4.671	4.674	4.641	9.842563024902343	0.11432312927246092	0.076614453125	2.06756591796875	-3.60107421875	-1.132965087890625	9.662399349975585	-0.23822306518554687	0.3902548706054687	0.301361083984375	-5.07354736328125	-3.3416748046875	9.60194575805664	-0.15981296081542967	0.16819266662597654	2.536773681640625	-4.673004150390625	-1.82342529296875	
227	0.908	0.0	0.0	0.0	0.0	4.644	4.674	4.674	4.641	9.970054263305663	-0.07781155395507812	-0.15263035583496093	2.826690673828125	-3.86810302734375	-0.988006591796875	9.82460651245117	-0.4746504791259765	-0.044292730712890624	0.091552734375	-5.1116943359375	-3.490447998046875	10.005967288208007	-0.49021278991699213	-0.21128829650878905	2.99072265625	-4.61578369140625	-1.3580322265625	
228	0.912	0.0	0.0	0.0	0.0	4.638	4.671	4.671	4.647	9.858125335693359	-0.0383072265625	0.047285482788085934	2.29644775390625	-3.452301025390625	-1.125335693359375	9.715071786499022	-0.22445640563964842	0.2088940948486328	0.946044921875	-5.1116943359375	-3.467559814453125	9.710881933593749	-0.2723404388427734	0.13646949462890623	2.51007080078125	-4.57000732421875	-1.94549560546875	
229	0.916	0.0	0.0	0.0	0.0	4.647	4.671	4.665	4.635	9.855731134033203	0.037110125732421874	-0.05686228942871093	2.99072265625	-3.673553466796875	-0.9918212890625	9.677363110351562	-0.3938461730957031	0.15981296081542967	0.0457763671875	-4.8065185546875	-3.421783447265625	9.711480484008788	-0.1274912384033203	0.05386953735351562	2.3956298828125	-4.64630126953125	-1.4190673828125	
230	0.92	0.0	0.0	0.0	0.0	4.641	4.671	4.671	4.626	9.847351428222655	0.1304839904785156	0.06584054565429687	2.872467041015625	-3.841400146484375	-0.965118408203125	9.598953005981445	-0.3220201232910156	0.42317514343261714	-0.240325927734375	-4.82940673828125	-3.204345703125	9.725845693969726	-0.33518823242187495	0.17357962036132812	2.498626708984375	-4.37164306640625	-1.911163330078125	
231	0.924	0.0	0.0	0.0	0.0	4.641	4.674	4.671	4.623	9.963470208740233	0.10714052429199218	-0.10594342346191406	2.849578857421875	-3.65447998046875	-1.209259033203125	9.745597857666015	-0.4064157318115234	0.15682020874023436	0.06103515625	-5.1727294921875	-3.757476806640625	9.815029705810547	-0.21428104858398436	0.017357962036132813	2.490997314453125	-4.75311279296875	-1.415252685546875	
232	0.928	0.0	0.0	0.0	0.0	4.641	4.671	2.34	0.003	9.853935482788085	0.13766659545898435	0.10175357055664062	2.582550048828125	-3.56292724609375	-1.033782958984375	9.574412438964844	-0.2442085693359375	0.37409400939941406	-0.156402587890625	-5.07354736328125	-3.368377685546875	9.59536170349121	-0.28012159423828126	0.26276363220214843	2.8076171875	-4.428863525390625	-1.79290771484375	
233	0.932	0.0	0.0	0.0	0.0	0.0	0.003	0.003	0.003	9.924564431762695	0.17776947326660156	-0.08259995727539061	3.12042236328125	-4.001617431640625	-1.3427734375	9.734823950195311	-0.3399766357421875	0.18854338073730467	-0.06866455078125	-5.199432373046875	-3.021240234375	9.7683427734375	-0.14784195251464843	0.047884033203124995	2.407073974609375	-4.63104248046875	-1.373291015625	
234	0.936	0.0	0.0	0.0	0.0	0.003	0.003	0.003	0.003	9.938929641723632	-0.016759411621093748	0.044292730712890624	2.89154052734375	-3.53240966796875	-0.759124755859375	9.710881933593749	-0.3950432739257812	0.22505495605468748	0.09918212890625	-4.978179931640625	-3.4027099609375	10.054449871826172	-0.47764323120117186	-0.2807201446533203	2.8533935546875	-4.38690185546875	-1.758575439453125	
235	0.9400000000000001	0.0	0.0	0.0	0.0	0.003	0.003	0.003	0.006	9.97783541870117	-0.025139117431640625	-0.13946224670410157	2.605438232421875	-3.7994384765625	-0.80108642578125	9.6779616607666	-0.3429693878173828	0.16160861206054686	0.331878662109375	-5.229949951171875	-3.10516357421875	9.581595043945311	-0.14604630126953125	0.37828386230468747	2.094268798828125	-4.24957275390625	-1.667022705078125	
236	0.9440000000000001	0.0	0.0	0.0	0.0	0.006	0.003	0.003	0.006	9.94730934753418	0.1640028137207031	-0.006584054565429687	3.009796142578125	-3.902435302734375	-0.48065185546875	9.828796365356444	-0.3489548919677734	-0.06105214233398437	0.293731689453125	-5.100250244140625	-3.253936767578125	10.001178884887695	-0.3016694091796875	-0.5243301635742187	2.46429443359375	-4.33349609375	-1.64031982421875	
237	0.9480000000000001	0.0	0.0	0.0	0.0	0.003	0.006	0.003	0.003	9.97184991455078	0.12808978881835936	-0.08918401184082031	2.8228759765625	-3.84521484375	-1.19781494140625	9.78629928588867	-0.479438882446289	0.016160861206054686	0.202178955078125	-5.2490234375	-3.10516357421875	10.256759912109374	-0.2166752502441406	-0.7038952880859375	2.941131591796875	-4.474639892578125	-1.03759765625	
238	0.9520000000000001	0.0	0.0	0.0	0.0	0.003	0.003	0.003	0.006	10.025719451904296	0.11432312927246092	-0.20530279235839843	4.08172607421875	-4.016876220703125	-1.57928466796875	9.903615167236328	-0.34237083740234375	-0.13287819213867186	0.3204345703125	-5.115509033203125	-3.314971923828125	9.909600671386718	-0.3082534637451172	-0.10235212097167969	2.460479736328125	-4.15802001953125	-1.70135498046875	
239	0.9560000000000001	0.0	0.0	0.0	0.0	0.006	0.003	0.003	0.006	9.849745629882811	0.15562310791015624	0.058657940673828124	3.353118896484375	-3.879547119140625	-0.926971435546875	9.770138424682617	-0.201112939453125	0.18614917907714842	0.049591064453125	-5.30242919921875	-2.83050537109375	10.066420880126952	-0.2166752502441406	-0.43993455505371093	2.689361572265625	-4.63104248046875	-1.434326171875	
240	0.96	0.0	0.0	0.0	0.0	0.003	0.003	0.003	0.003	9.893439810180663	0.30346506042480464	-0.09038111267089843	3.39508056640625	-3.810882568359375	-1.300811767578125	9.93354268798828	-0.24660277099609373	-0.1466448516845703	0.48065185546875	-4.878997802734375	-3.246307373046875	10.29207438659668	-0.11611878051757812	-0.7278373046875	3.025054931640625	-4.726409912109375	-1.1749267578125	
241	0.964	0.0	0.0	0.0	0.0	0.003	0.003	0.003	0.003	9.943718045043944	0.229843359375	0.047285482788085934	3.841400146484375	-4.23431396484375	-1.110076904296875	9.885658654785155	-0.297479556274414	0.14484920043945312	0.186920166015625	-5.21087646484375	-3.12042236328125	10.174758505249024	-0.4267664459228515	-0.4225765930175781	2.941131591796875	-4.665374755859375	-1.495361328125	
242	0.968	0.0	0.0	0.0	0.0	0.003	0.006	0.003	0.003	9.899425314331054	0.29448680419921874	-0.012569558715820313	3.856658935546875	-3.803253173828125	-1.194000244140625	9.884461553955077	-0.19213468322753904	0.076614453125	0.225067138671875	-5.31005859375	-3.543853759765625	10.264541067504883	-0.08559270935058594	-0.6793547210693359	2.79998779296875	-4.390716552734375	-1.33514404296875	
243	0.972	0.0	0.0	0.0	0.0	0.003	0.003	0.003	0.003	9.76116016845703	0.29867665710449215	0.19991583862304688	3.0670166015625	-3.71551513671875	-1.621246337890625	9.815029705810547	-0.3806780639648437	0.2603694305419922	0.06866455078125	-5.535125732421875	-2.99072265625	10.139444030761718	-0.4381389038085937	-0.3298012786865234	2.933502197265625	-4.680633544921875	-1.148223876953125	
244	0.976	0.0	0.0	0.0	0.0	0.006	0.003	0.003	0.003	9.986215124511718	0.23343466186523437	-0.10893617553710937	3.387451171875	-3.726959228515625	-1.27410888671875	9.97244846496582	-0.1388636962890625	0.044891281127929686	0.3509521484375	-5.390167236328125	-3.726959228515625	10.347141024780273	-0.17357962036132812	-0.622492431640625	3.047943115234375	-4.489898681640625	-1.4801025390625	
245	0.98	0.0	0.0	0.0	0.0	0.006	0.006	0.003	0.006	9.731831198120117	0.3016694091796875	0.2741360900878906	3.36456298828125	-3.559112548828125	-1.735687255859375	9.804255798339844	-0.43933600463867184	0.2711433380126953	0.1068115234375	-5.184173583984375	-3.509521484375	10.000580334472655	-0.31064766540527344	-0.09277531433105468	2.72369384765625	-4.726409912109375	-1.224517822265625	
246	0.984	0.0	0.0	0.0	0.0	0.003	0.003	0.003	0.003	9.867702142333984	0.3238157745361328	0.04608838195800781	3.582000732421875	-3.971099853515625	-1.48773193359375	9.883264453125	0.016160861206054686	0.11611878051757812	0.362396240234375	-4.85992431640625	-3.330230712890625	10.231620794677733	-0.12629413757324218	-0.5488707305908203	2.8076171875	-4.344940185546875	-1.468658447265625	
247	0.988	0.0	0.0	0.0	0.0	0.006	0.003	0.003	0.006	9.777919580078125	0.2920926025390625	0.16340426330566404	3.376007080078125	-3.719329833984375	-1.438140869140625	9.74200655517578	-0.4914098907470703	0.2346317626953125	-0.14495849609375	-5.0811767578125	-3.414154052734375	10.001777435302733	-0.2292448089599609	-0.02154781494140625	2.552032470703125	-4.53948974609375	-1.132965087890625	
248	0.992	0.0	0.0	0.0	0.0	0.009000000000000001	0.003	0.003	0.006	9.923965881347655	0.08140285644531249	-0.15203180541992187	1.979827880859375	-3.276824951171875	-1.094818115234375	9.99160207824707	-0.06464344482421874	-0.07900865478515624	0.26702880859375	-5.840301513671875	-3.23486328125	9.897031112670899	-0.44412440795898434	-0.23582886352539062	2.75421142578125	-4.627227783203125	-1.7852783203125	
249	0.996	0.0	0.0	0.0	0.0	0.003	0.003	0.006	0.003	9.7545761138916	0.33039982910156246	0.11671733093261719	3.80706787109375	-3.71551513671875	-1.45721435546875	9.661800799560547	-0.4177881896972656	0.2328361114501953	-0.3509521484375	-5.092620849609375	-3.528594970703125	9.935936889648437	-0.08978256225585937	-0.1406593475341797	2.9754638671875	-4.840850830078125	-0.95367431640625	
250	1.0	0.0	0.0	0.0	0.0	0.003	0.003	0.003	0.003	9.91498762512207	0.07721300354003906	-0.14903905334472656	2.193450927734375	-3.673553466796875	-0.858306884765625	9.77492682800293	-0.22026655273437498	-0.04369418029785156	0.152587890625	-5.18798828125	-3.5858154296875	9.875483297729492	-0.5506663818359374	-0.19333178405761717	2.925872802734375	-4.69207763671875	-1.65557861328125	
251	1.004	0.0	0.0	0.0	0.0	0.006	0.003	0.006	0.003	9.85692823486328	0.2885013000488281	-0.013766659545898436	2.20489501953125	-3.54766845703125	-0.957489013671875	9.771335525512695	-0.36391865234375	0.2154781494140625	-0.102996826171875	-5.062103271484375	-3.4027099609375	9.775525378417969	-0.044292730712890624	0.18555062866210936	2.44903564453125	-4.329681396484375	-1.68609619140625	
252	1.008	0.0	0.0	0.0	0.0	0.0	0.003	0.003	0.006	9.859920986938477	0.25737667846679685	-0.06045359191894531	2.834320068359375	-3.76129150390625	-1.194000244140625	9.76235726928711	-0.2723404388427734	-0.016759411621093748	0.1678466796875	-5.08880615234375	-3.59344482421875	9.87608184814453	-0.48183308410644526	-0.16280571289062498	2.788543701171875	-4.535675048828125	-1.430511474609375	
253	1.012	0.0	0.0	0.0	0.0	0.0	0.003	0.006	0.006	9.737218151855469	0.04189852905273437	0.16519991455078123	1.9378662109375	-3.30352783203125	-0.759124755859375	9.597157354736327	-0.31483751831054685	0.29568390502929687	-0.354766845703125	-4.99725341796875	-3.177642822265625	9.686341366577148	-0.06763619689941405	0.2041056915283203	2.559661865234375	-4.5928955078125	-1.567840576171875	
254	1.016	0.0	0.0	0.0	0.0	0.003	0.003	0.003	0.003	9.92755718383789	0.27174188842773433	-0.18136077575683593	3.44085693359375	-3.7994384765625	-1.392364501953125	9.810241302490233	-0.3387795349121094	0.03531447448730469	-0.14495849609375	-4.825592041015625	-3.528594970703125	10.019733947753906	-0.5518634826660156	-0.32501287536621093	2.54058837890625	-4.619598388671875	-1.3580322265625	
255	1.02	0.0	0.0	0.0	0.0	0.003	0.003	0.006	0.003	9.816226806640625	-0.15442600708007811	0.0718260498046875	1.60980224609375	-3.238677978515625	-0.77056884765625	9.60194575805664	-0.3956418243408203	0.3800795135498047	-0.080108642578125	-4.871368408203125	-3.16619873046875	9.711480484008788	-0.19931728820800781	0.0939724151611328	2.681732177734375	-4.486083984375	-1.76239013671875	
256	1.024	0.0	0.0	0.0	0.0	0.003	0.006	0.006	4.506	9.916184725952148	-0.12629413757324218	-0.0017956512451171875	2.20489501953125	-3.45611572265625	-0.6256103515625	9.722254391479492	-0.36691140441894526	0.03411737365722656	0.35858154296875	-5.466461181640625	-3.50189208984375	9.733028298950195	-0.30526071166992186	0.010175357055664061	2.3345947265625	-4.58526611328125	-1.3427734375	
257	1.028	0.0	0.0	0.0	0.0	4.506	4.665	4.671	4.632	9.842563024902343	-0.1005564697265625	0.02454056701660156	2.74658203125	-3.6163330078125	-0.54931640625	9.6013472076416	-0.4842272857666015	0.4070142822265625	-0.339508056640625	-4.82177734375	-3.238677978515625	9.705494979858399	-0.24121581726074218	0.1083376251220703	2.971649169921875	-4.894256591796875	-1.9073486328125	
258	1.032	0.0	0.0	0.0	0.0	4.641	4.674	4.671	4.623	9.93294413757324	0.033518823242187495	0.033518823242187495	2.742767333984375	-3.711700439453125	-0.774383544921875	9.78629928588867	-0.39444472351074217	-0.061650692749023434	0.476837158203125	-5.31768798828125	-3.009796142578125	9.809642752075195	-0.2645592834472656	-0.02693476867675781	2.628326416015625	-4.642486572265625	-1.316070556640625	
259	1.036	0.0	0.0	0.0	0.0	4.644	4.671	4.671	4.623	9.73602105102539	-0.059256491088867186	0.1466448516845703	3.08990478515625	-3.79180908203125	-0.96893310546875	9.809642752075195	-0.36631285400390623	0.11192892761230468	0.40435791015625	-5.22613525390625	-3.406524658203125	10.008361489868163	-0.4608838195800781	-0.2693476867675781	2.582550048828125	-4.15802001953125	-1.567840576171875	
260	1.04	0.0	0.0	0.0	0.0	4.647	4.671	4.674	4.641	9.864709390258788	0.09636661682128905	0.09756371765136718	2.841949462890625	-3.94439697265625	-0.972747802734375	9.730035546875	-0.4471171600341797	0.09277531433105468	0.431060791015625	-5.37109375	-3.208160400390625	9.788693487548828	-0.18255787658691405	0.05686228942871093	2.50244140625	-4.57000732421875	-1.36566162109375	
261	1.044	0.0	0.0	0.0	0.0	4.641	4.671	4.674	4.638	10.050260018920898	0.17896657409667968	-0.16639701538085935	3.887176513671875	-4.024505615234375	-1.07574462890625	9.85632968444824	-0.3298012786865234	-0.04548983154296875	0.263214111328125	-5.001068115234375	-3.173828125	10.121487518310547	-0.5051765502929687	-0.4004302276611328	2.9144287109375	-4.4708251953125	-1.64031982421875	
262	1.048	0.0	0.0	0.0	0.0	4.644	4.674	4.674	4.641	9.861716638183593	0.23104046020507812	0.040701428222656245	3.0059814453125	-3.8909912109375	-1.01470947265625	9.83238766784668	-0.34536358947753903	0.18734627990722655	0.3509521484375	-5.4473876953125	-2.887725830078125	10.162787496948242	-0.02454056701660156	-0.489015689086914	2.910614013671875	-4.58526611328125	-1.36566162109375	
263	1.052	0.0	0.0	0.0	0.0	4.635	4.671	4.671	0.003	10.037690460205077	0.26695348510742184	-0.17477672119140625	4.1351318359375	-3.79180908203125	-1.312255859375	9.74859060974121	-0.29269115295410153	0.06703764648437499	0.377655029296875	-5.184173583984375	-3.25775146484375	10.050858569335936	-0.43514615173339843	-0.3758896606445312	2.74658203125	-4.207611083984375	-1.64794921875	
264	1.056	0.0	0.0	0.0	0.0	0.003	0.003	0.003	0.006	9.90181951599121	0.04848258361816406	-0.09935936889648436	3.72314453125	-3.97491455078125	-1.2054443359375	9.849745629882811	-0.31962592163085934	0.12330138549804687	0.518798828125	-5.237579345703125	-3.002166748046875	10.192116467285155	-0.04369418029785156	-0.5165490081787109	2.838134765625	-4.6844482421875	-1.331329345703125	
265	1.06	0.0	0.0	0.0	0.0	0.003	0.003	0.003	0.003	10.012551342773437	0.3752911102294922	-0.2603694305419922	4.192352294921875	-4.131317138671875	-1.178741455078125	9.784503634643555	-0.30047230834960936	0.044292730712890624	0.3662109375	-5.01251220703125	-3.4942626953125	10.037091909790039	-0.43933600463867184	-0.33578678283691404	3.0975341796875	-4.7760009765625	-1.21307373046875	
266	1.064	0.0	0.0	0.0	0.0	0.006	0.003	0.003	0.006	9.843760125732421	0.39743747558593745	0.08678981018066406	3.948211669921875	-4.283905029296875	-1.25885009765625	9.764751470947266	-0.3190273712158203	0.22206220397949217	0.392913818359375	-5.01251220703125	-3.11279296875	10.092158547973632	-0.08918401184082031	-0.4010287780761719	2.75421142578125	-4.76837158203125	-1.544952392578125	
267	1.068	0.0	0.0	0.0	0.0	0.006	0.003	0.003	0.003	10.011354241943359	0.5057751007080078	-0.19692308654785154	4.14276123046875	-4.1351318359375	-1.19781494140625	9.951499200439452	-0.26396073303222656	-0.07841010437011718	0.667572021484375	-5.237579345703125	-3.41033935546875	10.254964260864257	-0.25797522888183594	-0.5925649108886718	2.86102294921875	-4.669189453125	-1.04522705078125	
268	1.072	0.0	0.0	0.0	0.0	0.006	0.003	0.003	0.003	9.852738381958007	0.4052186309814453	-0.03591302490234375	4.5928955078125	-4.2724609375	-1.728057861328125	9.819818109130859	-0.33039982910156246	0.17956512451171874	0.461578369140625	-5.290985107421875	-3.47137451171875	10.160393295288085	-0.20350714111328125	-0.4417302062988281	2.99072265625	-4.4708251953125	-1.45721435546875	
269	1.076	0.0	0.0	0.0	0.0	0.003	0.003	0.003	0.006	9.835380419921874	0.22505495605468748	0.03651157531738281	2.93731689453125	-3.643035888671875	-1.178741455078125	9.911396322631836	-0.23403321228027343	0.08978256225585937	0.8087158203125	-5.260467529296875	-3.3721923828125	10.232219345092773	-0.21906945190429686	-0.6350619903564453	2.834320068359375	-4.7454833984375	-1.209259033203125	
270	1.08	0.0	0.0	0.0	0.0	0.006	0.003	0.006	0.003	9.7928833404541	0.5907692596435546	0.12030863342285156	4.20379638671875	-4.47845458984375	-1.64794921875	9.749189160156249	-0.1227028350830078	0.2472013214111328	0.011444091796875	-5.260467529296875	-3.314971923828125	9.922768780517577	-0.26276363220214843	-0.07003039855957031	3.07464599609375	-4.978179931640625	-1.483917236328125	
271	1.084	0.0	0.0	0.0	0.0	0.003	0.003	0.003	0.003	9.879673150634765	0.2292448089599609	-0.06045359191894531	2.429962158203125	-3.4637451171875	-1.239776611328125	10.003573086547851	-0.24899697265624998	-0.010175357055664061	0.537872314453125	-4.9285888671875	-3.376007080078125	10.321403356933594	-0.22685060729980466	-0.6745663177490234	2.76947021484375	-4.5623779296875	-1.125335693359375	
272	1.088	0.0	0.0	0.0	0.0	0.003	0.003	0.003	0.006	9.734823950195311	0.4782417816162109	0.26874913635253905	3.826141357421875	-3.95965576171875	-1.6937255859375	9.763554370117188	-0.15083470458984374	0.32082302246093747	0.240325927734375	-4.8675537109375	-3.536224365234375	9.93414123840332	-0.3094505645751953	-0.044292730712890624	2.834320068359375	-4.650115966796875	-1.552581787109375	
273	1.092	0.0	0.0	0.0	0.0	0.006	0.003	0.003	0.006	9.865307940673828	0.32561142578124996	-0.054468087768554684	2.582550048828125	-3.551483154296875	-1.255035400390625	9.700706576538085	-0.31004911499023435	0.2376245147705078	-0.019073486328125	-5.115509033203125	-3.60870361328125	9.818022457885741	-0.18076222534179687	-0.2280477081298828	3.070831298828125	-4.802703857421875	-1.468658447265625	
274	1.096	0.0	0.0	0.0	0.0	0.006	0.003	0.003	0.006	9.846154327392577	-0.002992752075195312	0.016759411621093748	1.865386962890625	-3.3416748046875	-0.946044921875	9.795876092529296	-0.20769699401855468	0.3136404174804687	0.247955322265625	-5.06591796875	-3.662109375	9.979631069946288	-0.31663316955566406	-0.08319850769042968	2.796173095703125	-4.871368408203125	-1.338958740234375	
275	1.1	0.0	0.0	0.0	0.0	0.006	0.003	0.003	0.006	9.87727894897461	0.2561795776367187	0.06464344482421874	2.246856689453125	-3.307342529296875	-1.4801025390625	9.76235726928711	-0.2663549346923828	0.2950853546142578	-0.30517578125	-4.970550537109375	-3.56292724609375	9.850344180297851	-0.27293898925781246	-0.3124433166503906	2.79998779296875	-4.638671875	-1.739501953125	
276	1.104	0.0	0.0	0.0	0.0	0.006	0.003	0.003	0.006	9.92755718383789	0.0383072265625	-0.12988544006347655	1.834869384765625	-3.261566162109375	-0.904083251953125	9.630676177978515	-0.3968389251708984	0.34715924072265625	-0.064849853515625	-5.10406494140625	-3.353118896484375	9.892242709350585	-0.28969840087890625	-0.03411737365722656	2.38800048828125	-4.322052001953125	-1.41143798828125	
277	1.108	0.0	0.0	0.0	0.0	0.003	0.003	0.003	0.003	9.832986218261718	0.15981296081542967	-0.03232172241210937	3.18145751953125	-3.84521484375	-0.9765625	9.807847100830077	-0.1801636749267578	0.0017956512451171875	0.270843505859375	-5.157470703125	-3.5858154296875	9.836577520751952	-0.3687070556640625	-0.2376245147705078	2.655029296875	-4.5318603515625	-1.86920166015625	
278	1.112	0.0	0.0	0.0	0.0	0.003	0.003	0.003	0.003	9.91498762512207	0.044891281127929686	-0.2507926239013672	2.399444580078125	-3.73077392578125	-1.1749267578125	9.687538467407226	-0.5027823486328125	0.26276363220214843	-0.42724609375	-4.901885986328125	-3.337860107421875	9.742605105590819	-0.12150573425292968	0.20171148986816406	2.689361572265625	-4.436492919921875	-1.62506103515625	
279	1.116	0.0	0.0	0.0	0.0	0.003	0.003	0.006	0.006	9.94012674255371	0.13467384338378904	-0.33518823242187495	3.444671630859375	-3.90625	-1.117706298828125	9.665392102050781	-0.28371289672851563	0.15382745666503905	0.3204345703125	-5.115509033203125	-3.498077392578125	9.818022457885741	-0.39324762268066404	-0.16819266662597654	2.574920654296875	-4.90570068359375	-1.9683837890625	
280	1.12	0.0	0.0	0.0	0.0	0.0	0.006	0.003	0.006	9.801861596679688	0.031124621582031248	-0.008379705810546874	2.7008056640625	-3.53240966796875	-1.25885009765625	9.617508068847656	-0.42975919799804685	0.3190273712158203	0.06866455078125	-4.863739013671875	-3.02886962890625	9.683947164916992	-0.054468087768554684	0.24181436767578124	2.4261474609375	-4.764556884765625	-1.636505126953125	
281	1.124	0.0	0.0	0.0	0.0	0.003	0.003	0.003	0.003	9.889249957275391	0.10953472595214843	-0.22385785522460935	2.841949462890625	-3.82232666015625	-1.03759765625	9.701305126953125	-0.35793314819335936	0.022744915771484374	0.202178955078125	-5.237579345703125	-3.42559814453125	9.72943699645996	-0.4848258361816406	0.15741875915527342	2.3956298828125	-4.669189453125	-1.4495849609375	
282	1.1280000000000001	0.0	0.0	0.0	0.0	0.006	0.006	0.006	0.003	10.002974536132811	0.12808978881835936	-0.2088940948486328	3.582000732421875	-3.97491455078125	-1.0528564453125	9.764152920532226	-0.3651157531738281	0.13287819213867186	0.202178955078125	-5.096435546875	-3.3111572265625	9.773729727172851	-0.14245499877929688	0.0718260498046875	2.628326416015625	-4.817962646484375	-1.865386962890625	
283	1.1320000000000001	0.0	0.0	0.0	0.0	0.006	0.003	0.003	0.003	9.855132583618163	-0.05985504150390625	-0.13287819213867186	2.880096435546875	-3.97491455078125	-0.9613037109375	9.721655841064452	-0.3764882110595703	-0.023942016601562498	0.1068115234375	-5.3558349609375	-3.314971923828125	9.785700735473633	-0.4273649963378906	0.016160861206054686	2.498626708984375	-4.5928955078125	-1.636505126953125	
284	1.1360000000000001	0.0	0.0	0.0	0.0	0.003	0.003	0.003	0.003	10.001178884887695	0.013766659545898436	-0.15442600708007811	4.138946533203125	-4.2572021484375	-1.026153564453125	9.727042794799804	-0.38845921936035155	0.19812018737792966	0.05340576171875	-4.673004150390625	-2.960205078125	10.060435375976562	-0.31483751831054685	-0.2454056701660156	2.704620361328125	-4.3792724609375	-1.438140869140625	
285	1.1400000000000001	0.0	0.0	0.0	0.0	0.003	0.003	0.003	0.003	9.935936889648437	-0.16280571289062498	-0.2609679809570312	2.513885498046875	-3.818511962890625	-0.629425048828125	9.721655841064452	-0.4369418029785156	0.201112939453125	0.186920166015625	-5.283355712890625	-3.08990478515625	9.830592016601562	-0.35015199279785153	-0.07122749938964844	2.620697021484375	-4.558563232421875	-1.5869140625	
286	1.1440000000000001	0.0	0.0	0.0	0.0	0.006	2.181	4.659	4.62	9.995791931152343	0.14604630126953125	-0.18555062866210936	4.001617431640625	-4.3792724609375	-0.995635986328125	9.685742816162108	-0.3280056274414062	0.19213468322753904	0.091552734375	-4.90570068359375	-3.509521484375	10.070012182617187	-0.3537432952880859	-0.30346506042480464	2.880096435546875	-4.383087158203125	-1.789093017578125	
287	1.1480000000000001	0.0	0.0	0.0	0.0	4.644	4.671	4.671	4.62	9.833584768676758	0.28371289672851563	0.2753331909179687	3.80706787109375	-4.09698486328125	-1.09100341796875	9.846154327392577	-0.4070142822265625	0.15263035583496093	0.2593994140625	-5.40924072265625	-3.05938720703125	9.744400756835937	-0.06584054565429687	-0.4584896179199218	2.95257568359375	-4.680633544921875	-1.216888427734375	
288	1.1520000000000001	0.0	0.0	0.0	0.0	4.644	4.665	4.674	4.638	9.935338339233398	0.09756371765136718	-0.19153613281249998	4.131317138671875	-3.9215087890625	-1.331329345703125	9.685742816162108	-0.3399766357421875	0.2962824554443359	0.553131103515625	-5.107879638671875	-3.41796875	10.146626635742187	-0.37768531188964843	-0.41838674011230464	2.79998779296875	-4.177093505859375	-1.54876708984375	
289	1.156	0.0	0.0	0.0	0.0	4.641	4.674	4.674	4.638	9.795876092529296	0.2454056701660156	0.1580173095703125	3.80706787109375	-4.1656494140625	-1.57928466796875	9.828197814941406	-0.41958384094238277	0.19931728820800781	0.12969970703125	-5.054473876953125	-2.864837646484375	10.223241088867187	-0.0430956298828125	-0.4423287567138672	2.864837646484375	-4.57000732421875	-1.071929931640625	
290	1.16	0.0	0.0	0.0	0.0	4.644	4.674	4.674	4.641	9.941922393798828	0.034715924072265626	-0.06584054565429687	3.4942626953125	-3.993988037109375	-0.423431396484375	9.95987890625	-0.22685060729980466	-0.017357962036132813	0.58746337890625	-5.218505859375	-3.265380859375	10.083778842163085	-0.4495113616943359	-0.41898529052734373	2.74658203125	-4.38690185546875	-1.728057861328125	
291	1.164	0.0	0.0	0.0	0.0	4.638	4.674	4.671	4.647	9.850344180297851	0.2280477081298828	0.14484920043945312	3.726959228515625	-3.7994384765625	-1.277923583984375	9.834183319091796	-0.36691140441894526	0.18555062866210936	-0.156402587890625	-4.9896240234375	-2.8533935546875	10.236409197998046	-0.030526071166992186	-0.5602431884765625	2.8533935546875	-4.98199462890625	-1.224517822265625	
292	1.168	0.0	0.0	0.0	0.0	4.647	4.671	4.674	0.006	9.99220062866211	0.24600422058105467	-0.19393033447265623	3.265380859375	-3.86810302734375	-1.354217529296875	9.983820922851562	-0.3094505645751953	-0.052073886108398436	0.720977783203125	-5.05828857421875	-3.25775146484375	10.275913525390624	-0.49859249572753905	-0.6572083557128906	3.05938720703125	-4.482269287109375	-1.247406005859375	
293	1.172	0.0	0.0	0.0	0.0	0.006	0.003	0.003	0.006	9.819219558715819	0.3238157745361328	0.11372457885742186	3.711700439453125	-4.154205322265625	-1.224517822265625	9.813234054565429	-0.16280571289062498	0.12629413757324218	0.354766845703125	-5.191802978515625	-3.34930419921875	10.177751257324218	-0.009576806640625	-0.4429273071289062	2.655029296875	-4.31060791015625	-1.220703125	
294	1.176	0.0	0.0	0.0	0.0	0.003	0.003	0.003	0.006	9.999383233642577	0.1927332336425781	-0.15502455749511718	2.849578857421875	-3.643035888671875	-1.220703125	9.952696301269532	-0.33758243408203126	-0.04967968444824218	0.293731689453125	-4.970550537109375	-3.253936767578125	10.295067138671874	-0.43454760131835934	-0.6721721160888672	2.92205810546875	-4.57000732421875	-1.0986328125	
295	1.18	0.0	0.0	0.0	0.0	0.006	0.003	0.003	0.003	9.858723886108399	0.23044190979003906	0.058657940673828124	3.570556640625	-4.2877197265625	-1.285552978515625	9.801861596679688	-0.12449848632812499	0.1466448516845703	0.38909912109375	-5.53131103515625	-3.47900390625	9.945513696289062	-0.26396073303222656	-0.05626373901367187	2.8839111328125	-4.589080810546875	-1.5106201171875	
296	1.184	0.0	0.0	0.0	0.0	0.006	0.003	0.003	0.003	9.855731134033203	0.3555389465332031	0.051475335693359374	3.11279296875	-3.50189208984375	-1.434326171875	9.8449572265625	-0.41419688720703124	0.076614453125	0.2288818359375	-5.138397216796875	-3.574371337890625	10.275314974975585	-0.32441432495117184	-0.6057330200195312	3.025054931640625	-4.222869873046875	-1.129150390625	
297	1.188	0.0	0.0	0.0	0.0	0.003	0.003	0.003	0.006	9.798270294189452	0.20530279235839843	0.10235212097167969	2.79998779296875	-3.59344482421875	-1.636505126953125	9.814431155395507	-0.06703764648437499	0.1640028137207031	0.3204345703125	-4.993438720703125	-3.3416748046875	9.944316595458984	-0.20350714111328125	-0.07062894897460938	2.84576416015625	-4.611968994140625	-1.575469970703125	
298	1.192	0.0	0.0	0.0	0.0	0.003	0.003	0.003	0.003	9.841964474487304	0.19393033447265623	0.1592144104003906	2.99072265625	-3.696441650390625	-1.369476318359375	9.886855755615233	-0.46148236999511716	-0.0017956512451171875	0.240325927734375	-5.2490234375	-3.662109375	9.837176071166992	-0.2902969512939453	-0.17776947326660156	2.689361572265625	-4.69970703125	-1.64794921875	
299	1.196	0.0	0.0	0.0	0.0	0.003	0.003	0.003	0.006	9.829993466186522	-0.010773907470703125	0.15203180541992187	2.086639404296875	-3.4332275390625	-1.461029052734375	9.787496386718749	-0.13407529296874998	0.09696516723632811	0.217437744140625	-4.8828125	-3.4332275390625	9.95987890625	-0.24899697265624998	-0.08439560852050781	2.895355224609375	-4.81414794921875	-1.575469970703125	
300	1.2	0.0	0.0	0.0	0.0	0.003	0.003	0.003	0.006	9.864709390258788	0.08439560852050781	-0.10773907470703124	2.73895263671875	-3.643035888671875	-1.15966796875	9.81263550415039	-0.31663316955566406	0.17238251953125	0.225067138671875	-4.87518310546875	-3.711700439453125	9.872490545654296	-0.21428104858398436	-0.31962592163085934	2.788543701171875	-4.596710205078125	-1.346588134765625	
301	1.204	0.0	0.0	0.0	0.0	0.003	0.003	0.006	0.003	9.83897172241211	0.14125789794921875	0.11013327636718749	2.460479736328125	-3.47900390625	-1.47247314453125	9.702502227783203	-0.21966800231933592	0.2555810272216797	0.03814697265625	-4.871368408203125	-3.60107421875	9.909600671386718	-0.297479556274414	0.017357962036132813	2.590179443359375	-4.428863525390625	-1.697540283203125	
302	1.208	0.0	0.0	0.0	0.0	0.003	0.003	0.003	0.006	9.86411083984375	-0.017956512451171875	-0.1897404815673828	2.4566650390625	-3.76129150390625	-1.071929931640625	9.62109937133789	-0.5105635040283203	0.08738836059570312	-0.12969970703125	-5.069732666015625	-3.19671630859375	9.848548529052733	-0.2472013214111328	-0.3112462158203125	2.948760986328125	-5.0048828125	-1.621246337890625	
303	1.212	0.0	0.0	0.0	0.0	0.0	0.003	0.006	0.003	9.810241302490233	0.051475335693359374	0.24181436767578124	2.712249755859375	-3.582000732421875	-1.216888427734375	9.740809454345703	-0.3286041778564453	0.18734627990722655	-0.026702880859375	-4.94384765625	-3.421783447265625	9.682151513671874	-0.2819172454833984	0.17178396911621094	2.590179443359375	-4.52423095703125	-1.796722412109375	
304	1.216	0.0	0.0	0.0	0.0	0.006	0.006	0.003	0.003	9.891644158935547	0.028131869506835935	-0.21248539733886718	2.422332763671875	-3.635406494140625	-1.01470947265625	9.687538467407226	-0.38187516479492184	0.010773907470703125	-0.11444091796875	-4.89044189453125	-3.314971923828125	9.813832604980469	-0.2663549346923828	-0.28012159423828126	2.63214111328125	-4.718780517578125	-1.674652099609375	
305	1.22	0.0	0.0	0.0	0.0	0.003	0.003	0.003	0.006	9.890447058105469	-0.08678981018066406	-0.07062894897460938	3.093719482421875	-3.8604736328125	-0.67901611328125	9.74200655517578	-0.3441664886474609	0.06883329772949218	-0.12969970703125	-4.756927490234375	-3.1280517578125	9.769539874267577	-0.3010708587646484	0.07841010437011718	2.552032470703125	-4.550933837890625	-1.54876708984375	
306	1.224	0.0	0.0	0.0	0.0	0.006	0.003	0.003	0.006	9.944915145874022	0.09217676391601562	-0.33518823242187495	3.154754638671875	-3.85284423828125	-0.86212158203125	9.700108026123047	-0.3190273712158203	-0.054468087768554684	-0.102996826171875	-4.993438720703125	-3.360748291015625	9.82460651245117	-0.3585316986083984	-0.054468087768554684	2.58636474609375	-4.688262939453125	-1.56402587890625	
