	time	dac1	dac2	dac3	dac4	adc1.3	adc2.3	adc3.3	adc4.3	imu1accx	imu1accy	imu1accz	imu1gyrox	imu1gyroy	imu1gyroz	imu2accx	imu2accy	imu2accz	imu2gyrox	imu2gyroy	imu2gyroz	imu3accx	imu3accy	imu3accz	imu3gyrox	imu3gyroy	imu3gyroz	log
0	0.0	0.0	0.0	0.0	0.0	0.003	0.003	0.003	0.006	9.861118087768554	0.5105635040283203	0.05746083984375	2.655029296875	-3.742218017578125	-0.762939453125	9.779116680908203	0.4070142822265625	0.15382745666503905	0.396728515625	-4.894256591796875	-2.93731689453125	10.018536846923828	0.033518823242187495	-0.23702596435546874	3.498077392578125	-4.6539306640625	-2.03704833984375	Gravidade
1	0.004	0.0	0.0	0.0	0.0	0.009000000000000001	0.003	0.003	0.006	9.86411083984375	0.49739539489746093	0.06284779357910156	2.826690673828125	-3.76129150390625	-0.782012939453125	9.783905084228515	0.40581718139648437	0.16519991455078123	0.55694580078125	-4.69970703125	-2.89154052734375	10.008361489868163	0.032920272827148434	-0.23044190979003906	3.53240966796875	-4.459381103515625	-2.254486083984375	Started
2	0.008	0.0	0.0	0.0	0.0	0.003	0.006	0.006	0.006	9.86291373901367	0.5099649536132812	0.061650692749023434	2.72369384765625	-3.574371337890625	-0.8392333984375	9.78629928588867	0.4112041351318359	0.15741875915527342	0.1983642578125	-4.87518310546875	-2.796173095703125	10.008960040283203	0.03531447448730469	-0.24061726684570311	3.73077392578125	-4.5928955078125	-2.193450927734375	IMU1|LSM6DS3|0x6A|I2C-1|±2g (±19,6m/s²)|±125º/s|400Hz
3	0.012	0.0	0.0	0.0	0.0	0.006	0.003	0.003	0.003	9.86351228942871	0.5105635040283203	0.06823474731445311	2.7618408203125	-3.8299560546875	-0.804901123046875	9.782109432983399	0.40761283264160153	0.1562216583251953	0.29754638671875	-5.046844482421875	-2.910614013671875	10.007762939453125	0.033518823242187495	-0.24061726684570311	3.787994384765625	-4.5623779296875	-2.017974853515625	IMU2|LSM6DS3|0x6B|I2C-1|±2g (±19,6m/s²)|±125º/s|400Hz
4	0.016	0.0	0.0	0.0	0.0	0.006	0.006	0.003	0.006	9.86351228942871	0.5069722015380859	0.0652419952392578	2.69317626953125	-3.2806396484375	-0.8087158203125	9.783905084228515	0.4082113830566406	0.15322890625	0.339508056640625	-4.985809326171875	-2.86865234375	10.008960040283203	0.040102877807617184	-0.23582886352539062	3.4637451171875	-4.66156005859375	-2.1209716796875	IMU3|LSM6DS3|0x6B|I2C-2|±2g (±19,6m/s²)|±125º/s|400Hz
5	0.02	0.0	0.0	0.0	0.0	0.003	0.003	0.003	0.003	9.86291373901367	0.5033808990478515	0.06703764648437499	2.552032470703125	-3.66973876953125	-0.7781982421875	9.784503634643555	0.4100070343017578	0.16460136413574217	0.3662109375	-4.909515380859375	-2.87628173828125	10.007762939453125	0.03950432739257812	-0.21787235107421873	3.658294677734375	-4.543304443359375	-1.9989013671875	ADC|ADS1015|0|0|1|0|±6,144 V|2400 SPS
6	0.024	0.0	0.0	0.0	0.0	0.006	0.003	0.006	0.003	9.871293444824218	0.5129577056884765	0.06763619689941405	2.513885498046875	-3.665924072265625	-0.84686279296875	9.783905084228515	0.40462008056640625	0.16759411621093748	0.30517578125	-4.863739013671875	-2.948760986328125	10.005967288208007	0.03172317199707031	-0.23523031311035156	3.7841796875	-4.63104248046875	-2.06756591796875	Gen1|Disabled
7	0.028	0.0	0.0	0.0	0.0	0.003	0.003	0.003	0.0	9.87069489440918	0.5111620544433594	0.06883329772949218	2.658843994140625	-3.902435302734375	-0.881195068359375	9.783905084228515	0.40402153015136716	0.16460136413574217	0.1373291015625	-4.9896240234375	-2.69317626953125	10.020332498168944	0.033518823242187495	-0.2232593048095703	3.955841064453125	-4.482269287109375	-2.346038818359375	Gen2|Enabled|Noise|0.0|10.0|1668
8	0.032	0.0	0.0	0.0	0.0	0.003	0.006	0.003	0.003	9.867702142333984	0.5141548065185546	0.05626373901367187	2.67791748046875	-3.833770751953125	-0.713348388671875	9.783905084228515	0.4052186309814453	0.1592144104003906	0.3509521484375	-4.52423095703125	-2.8228759765625	10.007762939453125	0.03591302490234375	-0.23582886352539062	3.658294677734375	-4.627227783203125	-2.086639404296875	Gen3|Enabled|Noise|0.0|10.0|128
9	0.036000000000000004	0.0	0.0	0.0	0.0	0.006	0.003	0.006	0.006	9.86351228942871	0.5105635040283203	0.047285482788085934	2.651214599609375	-3.72314453125	-1.010894775390625	9.784503634643555	0.4064157318115234	0.16041151123046873	0.240325927734375	-4.974365234375	-3.02886962890625	10.011354241943359	0.03531447448730469	-0.23523031311035156	3.696441650390625	-4.695892333984375	-2.185821533203125	Gen4|Enabled|Noise|0.0|10.0|128
10	0.04	0.0	0.0	0.0	0.0	0.003	0.006	0.003	0.006	9.864709390258788	0.5069722015380859	0.055066638183593745	2.655029296875	-3.650665283203125	-0.8697509765625	9.779116680908203	0.41060558471679687	0.1580173095703125	0.476837158203125	-5.008697509765625	-2.773284912109375	10.001178884887695	0.03531447448730469	-0.23822306518554687	3.65447998046875	-4.520416259765625	-2.25830078125	Ctrl|Disabled
11	0.044	0.0	0.0	0.0	0.0	0.003	0.003	0.003	0.006	9.867702142333984	0.4997895965576172	0.052073886108398436	2.55584716796875	-3.4637451171875	-0.820159912109375	9.782109432983399	0.411802685546875	0.1610100616455078	0.453948974609375	-5.04302978515625	-2.872467041015625	10.001777435302733	0.03591302490234375	-0.2346317626953125	3.604888916015625	-4.49371337890625	-2.15911865234375	
12	0.048	0.0	0.0	0.0	0.0	0.006	0.003	0.003	0.006	9.87668039855957	0.5135562561035156	0.04908113403320312	2.38037109375	-3.60107421875	-0.698089599609375	9.788693487548828	0.4052186309814453	0.15382745666503905	0.213623046875	-4.726409912109375	-2.780914306640625	10.01674119567871	0.04129997863769531	-0.24480711975097655	3.60107421875	-4.55474853515625	-2.1514892578125	
13	0.052000000000000005	0.0	0.0	0.0	0.0	0.006	0.003	0.003	0.003	9.874884747314452	0.51714755859375	0.05327098693847656	2.765655517578125	-3.498077392578125	-0.8697509765625	9.787496386718749	0.39803602600097654	0.1657984649658203	0.5035400390625	-5.0506591796875	-2.948760986328125	10.011354241943359	0.037110125732421874	-0.23044190979003906	3.299713134765625	-4.398345947265625	-1.88446044921875	
14	0.056	0.0	0.0	0.0	0.0	0.003	0.003	0.003	0.003	9.880271701049804	0.5207388610839844	0.05027823486328125	2.429962158203125	-3.6163330078125	-0.919342041015625	9.785102185058593	0.3962403747558593	0.17477672119140625	0.316619873046875	-4.917144775390625	-2.956390380859375	10.014346994018554	0.044891281127929686	-0.22864625854492185	3.5247802734375	-4.70733642578125	-2.208709716796875	
15	0.06	0.0	0.0	0.0	0.0	0.006	0.006	0.003	0.006	9.871891995239258	0.5195417602539062	0.04189852905273437	2.544403076171875	-3.57818603515625	-0.79345703125	9.785102185058593	0.4070142822265625	0.17477672119140625	0.270843505859375	-4.611968994140625	-2.8533935546875	10.01733974609375	0.04668693237304687	-0.22505495605468748	3.53240966796875	-4.543304443359375	-2.185821533203125	
16	0.064	0.0	0.0	0.0	0.0	0.003	0.006	0.003	0.003	9.86291373901367	0.5129577056884765	0.054468087768554684	2.620697021484375	-3.505706787109375	-0.972747802734375	9.785102185058593	0.4004302276611328	0.16639701538085935	0.1678466796875	-4.6234130859375	-2.899169921875	10.012551342773437	0.03172317199707031	-0.23403321228027343	3.53240966796875	-4.8065185546875	-2.109527587890625	
17	0.068	0.0	0.0	0.0	0.0	0.003	0.003	0.003	0.003	9.868899243164062	0.5147533569335937	0.05746083984375	2.75421142578125	-3.582000732421875	-0.701904296875	9.782707983398437	0.40581718139648437	0.16879121704101563	0.209808349609375	-4.917144775390625	-2.9144287109375	10.007762939453125	0.040102877807617184	-0.2292448089599609	3.536224365234375	-4.657745361328125	-2.0599365234375	
18	0.07200000000000001	0.0	0.0	0.0	0.0	0.006	0.003	0.003	0.006	9.8694977935791	0.5183446594238281	0.047285482788085934	2.5482177734375	-3.6773681640625	-0.6866455078125	9.781510882568359	0.40940848388671874	0.16160861206054686	0.54931640625	-5.046844482421875	-2.887725830078125	10.013149893188476	0.033518823242187495	-0.24181436767578124	3.559112548828125	-4.459381103515625	-2.197265625	
19	0.076	0.0	0.0	0.0	0.0	0.003	0.006	0.003	0.003	9.873089096069336	0.5135562561035156	0.05087678527832031	2.826690673828125	-3.528594970703125	-0.637054443359375	9.784503634643555	0.4052186309814453	0.15741875915527342	0.308990478515625	-4.985809326171875	-2.773284912109375	10.014346994018554	0.03411737365722656	-0.24001871643066405	3.74603271484375	-4.566192626953125	-2.254486083984375	
20	0.08	0.0	0.0	0.0	0.0	0.003	0.003	0.003	0.009000000000000001	9.871293444824218	0.5165490081787109	0.05985504150390625	2.513885498046875	-3.41796875	-0.934600830078125	9.784503634643555	0.4004302276611328	0.16699556579589842	0.1373291015625	-4.642486572265625	-2.834320068359375	10.020332498168944	0.03531447448730469	-0.23702596435546874	3.459930419921875	-4.718780517578125	-2.17437744140625	
21	0.084	0.0	0.0	0.0	0.0	0.003	0.006	0.003	0.003	9.879673150634765	0.5111620544433594	0.06105214233398437	2.593994140625	-3.910064697265625	-0.80108642578125	9.778518130493163	0.412401235961914	0.15382745666503905	0.60272216796875	-4.924774169921875	-2.87628173828125	10.018536846923828	0.03172317199707031	-0.24061726684570311	3.37982177734375	-4.688262939453125	-2.307891845703125	
22	0.088	0.0	0.0	0.0	0.0	0.003	0.003	0.003	0.009000000000000001	9.868300692749022	0.5153519073486328	0.047884033203124995	2.651214599609375	-3.692626953125	-0.858306884765625	9.779116680908203	0.4171896392822265	0.17178396911621094	0.25177001953125	-4.848480224609375	-2.92205810546875	10.00955859069824	0.037708676147460936	-0.22266075439453123	3.604888916015625	-4.45556640625	-2.03704833984375	
23	0.092	0.0	0.0	0.0	0.0	0.003	0.003	0.003	0.003	9.87069489440918	0.5135562561035156	0.05027823486328125	2.437591552734375	-3.59344482421875	-0.90789794921875	9.782707983398437	0.40880993347167965	0.17118541870117188	0.2899169921875	-4.695892333984375	-2.986907958984375	10.012551342773437	0.040102877807617184	-0.2262520568847656	3.314971923828125	-4.5928955078125	-2.254486083984375	
24	0.096	0.0	0.0	0.0	0.0	0.006	0.003	0.003	0.006	9.867702142333984	0.5033808990478515	0.051475335693359374	2.83050537109375	-3.63922119140625	-0.865936279296875	9.788693487548828	0.41060558471679687	0.16699556579589842	0.274658203125	-4.8980712890625	-2.918243408203125	10.008960040283203	0.033518823242187495	-0.229843359375	3.734588623046875	-4.344940185546875	-2.37274169921875	
25	0.1	0.0	0.0	0.0	0.0	0.006	0.003	0.003	0.009000000000000001	9.867103591918944	0.5033808990478515	0.054468087768554684	2.719879150390625	-3.574371337890625	-0.995635986328125	9.785102185058593	0.41419688720703124	0.16759411621093748	0.133514404296875	-4.810333251953125	-2.838134765625	10.016142645263672	0.03411737365722656	-0.23642741394042968	3.5400390625	-4.5928955078125	-2.15911865234375	
26	0.10400000000000001	0.0	0.0	0.0	0.0	0.006	0.006	0.003	0.003	9.867702142333984	0.5117606048583984	0.06584054565429687	2.742767333984375	-3.70025634765625	-0.804901123046875	9.789890588378906	0.4010287780761719	0.16041151123046873	0.17547607421875	-4.520416259765625	-2.811431884765625	10.014346994018554	0.034715924072265626	-0.2376245147705078	3.749847412109375	-4.627227783203125	-1.895904541015625	
27	0.108	0.0	0.0	0.0	0.0	0.003	0.006	0.003	0.003	9.86411083984375	0.5087678527832031	0.055066638183593745	2.54058837890625	-3.662109375	-0.64849853515625	9.782707983398437	0.40222587890625	0.15741875915527342	0.209808349609375	-4.69970703125	-2.902984619140625	10.013149893188476	0.028730419921875	-0.22266075439453123	3.62396240234375	-4.69970703125	-2.26593017578125	
28	0.112	0.0	0.0	0.0	0.0	0.003	0.003	0.003	0.006	9.87608184814453	0.5093664031982421	0.04908113403320312	2.52532958984375	-3.627777099609375	-0.820159912109375	9.783905084228515	0.4100070343017578	0.15861585998535155	0.6103515625	-5.05828857421875	-2.773284912109375	10.014945544433592	0.04189852905273437	-0.2292448089599609	3.734588623046875	-4.787445068359375	-2.101898193359375	
29	0.116	0.0	0.0	0.0	0.0	0.006	0.006	0.006	0.003	9.871293444824218	0.5105635040283203	0.059256491088867186	2.582550048828125	-3.41796875	-0.858306884765625	9.785102185058593	0.40880993347167965	0.17058686828613281	0.40435791015625	-4.734039306640625	-2.8076171875	10.013748443603514	0.032920272827148434	-0.2214636535644531	3.482818603515625	-4.467010498046875	-2.231597900390625	
30	0.12	0.0	0.0	0.0	0.0	0.0	0.006	0.003	0.006	9.861118087768554	0.5069722015380859	0.05746083984375	2.628326416015625	-3.60107421875	-0.7781982421875	9.78031378173828	0.40940848388671874	0.16460136413574217	0.30517578125	-4.878997802734375	-2.819061279296875	10.019733947753906	0.03651157531738281	-0.23223756103515625	3.57818603515625	-4.573822021484375	-2.056121826171875	
31	0.124	0.0	0.0	0.0	0.0	0.0	0.003	0.003	0.003	9.867702142333984	0.5069722015380859	0.05805939025878906	2.529144287109375	-3.7078857421875	-0.858306884765625	9.784503634643555	0.411802685546875	0.15861585998535155	0.392913818359375	-4.84466552734375	-3.063201904296875	10.00955859069824	0.03890577697753906	-0.2292448089599609	3.83758544921875	-4.550933837890625	-2.269744873046875	
32	0.128	0.0	0.0	0.0	0.0	0.006	0.003	0.003	0.006	9.868300692749022	0.5117606048583984	0.061650692749023434	2.532958984375	-3.631591796875	-0.72479248046875	9.783306533813477	0.4177881896972656	0.15981296081542967	0.17547607421875	-4.871368408203125	-2.9754638671875	9.996989031982421	0.03890577697753906	-0.23702596435546874	3.62396240234375	-4.547119140625	-2.15911865234375	
33	0.132	0.0	0.0	0.0	0.0	0.003	0.003	0.003	0.003	9.867702142333984	0.5111620544433594	0.059256491088867186	2.544403076171875	-3.421783447265625	-0.812530517578125	9.777919580078125	0.41539398803710936	0.15682020874023436	0.102996826171875	-4.8980712890625	-2.857208251953125	10.005368737792969	0.03890577697753906	-0.23882161560058593	3.47900390625	-4.505157470703125	-2.193450927734375	
34	0.136	0.0	0.0	0.0	0.0	0.003	0.003	0.003	0.006	9.865307940673828	0.5099649536132812	0.06105214233398437	2.719879150390625	-3.63922119140625	-0.99945068359375	9.78629928588867	0.40940848388671874	0.1640028137207031	0.55694580078125	-4.791259765625	-2.95257568359375	10.006565838623047	0.02693476867675781	-0.23104046020507812	3.60107421875	-4.52423095703125	-2.32696533203125	
35	0.14	0.0	0.0	0.0	0.0	0.003	0.006	0.003	0.003	9.873687646484374	0.5135562561035156	0.052073886108398436	2.61688232421875	-3.574371337890625	-0.9765625	9.781510882568359	0.4064157318115234	0.16759411621093748	0.25177001953125	-4.99725341796875	-2.765655517578125	10.008361489868163	0.03172317199707031	-0.2292448089599609	3.376007080078125	-4.67681884765625	-2.0599365234375	
36	0.14400000000000002	0.0	0.0	0.0	0.0	0.006	0.006	0.006	0.003	9.873687646484374	0.5129577056884765	0.06344634399414062	2.490997314453125	-3.72314453125	-0.83160400390625	9.78629928588867	0.40462008056640625	0.16220716247558592	0.29754638671875	-4.90570068359375	-2.765655517578125	10.007762939453125	0.032920272827148434	-0.23044190979003906	3.520965576171875	-4.566192626953125	-2.208709716796875	
37	0.148	0.0	0.0	0.0	0.0	0.003	0.003	0.003	0.009000000000000001	9.874884747314452	0.5111620544433594	0.06703764648437499	2.685546875	-3.57818603515625	-0.732421875	9.782707983398437	0.40880993347167965	0.14903905334472656	0.331878662109375	-5.046844482421875	-2.838134765625	10.014945544433592	0.03531447448730469	-0.2232593048095703	3.51715087890625	-4.581451416015625	-2.201080322265625	
38	0.152	0.0	0.0	0.0	0.0	0.006	0.006	0.003	0.0	9.868300692749022	0.5123591552734374	0.05805939025878906	2.567291259765625	-3.787994384765625	-0.885009765625	9.785102185058593	0.40940848388671874	0.16340426330566404	0.286102294921875	-4.589080810546875	-2.75421142578125	10.022128149414062	0.04189852905273437	-0.22445640563964842	3.627777099609375	-4.642486572265625	-2.300262451171875	
39	0.156	0.0	0.0	0.0	0.0	0.003	0.003	0.003	0.009000000000000001	9.87009634399414	0.5165490081787109	0.047884033203124995	2.61688232421875	-3.814697265625	-0.751495361328125	9.782109432983399	0.411802685546875	0.15981296081542967	0.400543212890625	-4.558563232421875	-3.002166748046875	10.014945544433592	0.040102877807617184	-0.22445640563964842	3.551483154296875	-4.695892333984375	-2.3193359375	
40	0.16	0.0	0.0	0.0	0.0	0.003	0.006	0.006	0.003	9.87009634399414	0.5195417602539062	0.044292730712890624	2.857208251953125	-3.5858154296875	-0.835418701171875	9.788693487548828	0.40581718139648437	0.16280571289062498	0.148773193359375	-4.70733642578125	-2.712249755859375	10.016142645263672	0.044891281127929686	-0.229843359375	3.51715087890625	-4.497528076171875	-2.227783203125	
41	0.164	0.0	0.0	0.0	0.0	0.003	0.006	0.003	0.003	9.87009634399414	0.5069722015380859	0.05686228942871093	2.567291259765625	-3.604888916015625	-0.614166259765625	9.785102185058593	0.40462008056640625	0.1592144104003906	0.377655029296875	-4.810333251953125	-2.75421142578125	10.006565838623047	0.029328970336914062	-0.229843359375	3.7689208984375	-4.70733642578125	-1.9683837890625	
42	0.168	0.0	0.0	0.0	0.0	0.003	0.003	0.006	0.003	9.868899243164062	0.5111620544433594	0.058657940673828124	2.521514892578125	-3.574371337890625	-0.919342041015625	9.780912332153319	0.40581718139648437	0.16460136413574217	0.087738037109375	-4.787445068359375	-2.872467041015625	10.000580334472655	0.028131869506835935	-0.23822306518554687	3.681182861328125	-4.695892333984375	-2.105712890625	
43	0.17200000000000001	0.0	0.0	0.0	0.0	0.003	0.003	0.003	0.003	9.872490545654296	0.51714755859375	0.054468087768554684	2.6397705078125	-3.437042236328125	-0.81634521484375	9.776123928833007	0.4034229797363281	0.1610100616455078	0.45013427734375	-5.077362060546875	-2.9296875	10.006565838623047	0.029328970336914062	-0.239420166015625	3.54766845703125	-4.558563232421875	-2.0904541015625	
44	0.176	0.0	0.0	0.0	0.0	0.006	0.003	0.006	0.006	9.865307940673828	0.5093664031982421	0.05327098693847656	2.429962158203125	-3.459930419921875	-0.732421875	9.785102185058593	0.4034229797363281	0.16041151123046873	0.08392333984375	-4.962921142578125	-2.780914306640625	10.01015714111328	0.029328970336914062	-0.22445640563964842	3.803253173828125	-4.75311279296875	-2.01416015625	
45	0.18	0.0	0.0	0.0	0.0	0.006	0.003	0.003	0.012	9.867702142333984	0.5099649536132812	0.06643909606933593	2.49481201171875	-3.4942626953125	-0.9307861328125	9.785102185058593	0.4052186309814453	0.1580173095703125	0.3814697265625	-4.63104248046875	-2.788543701171875	10.015544094848632	0.040102877807617184	-0.23882161560058593	3.7689208984375	-4.695892333984375	-2.193450927734375	
46	0.184	0.0	0.0	0.0	0.0	0.006	0.003	0.006	0.003	9.866505041503906	0.5057751007080078	0.05626373901367187	2.54058837890625	-3.82232666015625	-0.7171630859375	9.784503634643555	0.40940848388671874	0.1562216583251953	0.537872314453125	-4.772186279296875	-2.971649169921875	10.005967288208007	0.028131869506835935	-0.23343466186523437	3.429412841796875	-4.6844482421875	-2.025604248046875	
47	0.188	0.0	0.0	0.0	0.0	0.009000000000000001	0.003	0.003	0.003	9.872490545654296	0.5135562561035156	0.061650692749023434	2.593994140625	-3.753662109375	-0.881195068359375	9.785102185058593	0.40462008056640625	0.16879121704101563	0.213623046875	-4.82940673828125	-2.803802490234375	10.007762939453125	0.040701428222656245	-0.23642741394042968	3.5400390625	-4.505157470703125	-1.9683837890625	
48	0.192	0.0	0.0	0.0	0.0	0.003	0.006	0.003	0.003	9.868899243164062	0.5123591552734374	0.0652419952392578	2.43377685546875	-3.60107421875	-0.858306884765625	9.784503634643555	0.4070142822265625	0.1592144104003906	0.225067138671875	-4.825592041015625	-2.76947021484375	10.013748443603514	0.02454056701660156	-0.22685060729980466	3.65447998046875	-4.4097900390625	-1.93023681640625	
49	0.196	0.0	0.0	0.0	0.0	0.003	0.003	0.003	0.003	9.87668039855957	0.5147533569335937	0.04608838195800781	2.5634765625	-3.582000732421875	-0.736236572265625	9.784503634643555	0.40462008056640625	0.15263035583496093	0.48065185546875	-5.04302978515625	-2.834320068359375	10.007762939453125	0.03531447448730469	-0.23882161560058593	3.5400390625	-4.5166015625	-2.25830078125	
50	0.2	0.0	0.0	0.0	0.0	0.003	0.003	0.003	0.006	9.86291373901367	0.5183446594238281	0.058657940673828124	2.529144287109375	-3.4942626953125	-0.797271728515625	9.785102185058593	0.40581718139648437	0.16759411621093748	0.225067138671875	-5.02777099609375	-2.864837646484375	10.011952792358398	0.03531447448730469	-0.22266075439453123	3.6773681640625	-4.802703857421875	-2.13623046875	
51	0.20400000000000001	0.0	0.0	0.0	0.0	0.003	0.006	0.003	0.003	9.874286196899414	0.5123591552734374	0.044891281127929686	2.567291259765625	-3.63922119140625	-0.759124755859375	9.785102185058593	0.4070142822265625	0.16280571289062498	0.431060791015625	-4.638671875	-2.552032470703125	10.013149893188476	0.029328970336914062	-0.23403321228027343	3.726959228515625	-4.611968994140625	-2.170562744140625	
52	0.20800000000000002	0.0	0.0	0.0	0.0	0.006	0.003	0.003	0.006	9.879673150634765	0.508169302368164	0.05087678527832031	2.5634765625	-3.589630126953125	-0.762939453125	9.779116680908203	0.4064157318115234	0.1610100616455078	0.26702880859375	-4.94384765625	-2.95257568359375	10.013149893188476	0.03411737365722656	-0.22565350646972654	3.92913818359375	-4.52423095703125	-2.1514892578125	
53	0.212	0.0	0.0	0.0	0.0	0.006	0.006	0.003	0.003	9.875483297729492	0.5123591552734374	0.05027823486328125	2.685546875	-3.6163330078125	-1.01470947265625	9.785102185058593	0.4171896392822265	0.16340426330566404	0.3814697265625	-4.974365234375	-2.986907958984375	10.013748443603514	0.03172317199707031	-0.23642741394042968	3.60107421875	-4.52423095703125	-2.079010009765625	
54	0.216	0.0	0.0	0.0	0.0	0.003	0.003	0.006	0.003	9.874884747314452	0.5159504577636719	0.04848258361816406	2.513885498046875	-3.66973876953125	-0.904083251953125	9.776722479248047	0.4070142822265625	0.16041151123046873	0.23651123046875	-4.93621826171875	-2.86102294921875	10.005967288208007	0.032920272827148434	-0.229843359375	3.73077392578125	-4.64630126953125	-2.20489501953125	
55	0.22	0.0	0.0	0.0	0.0	0.003	0.006	0.003	0.006	9.86411083984375	0.517746109008789	0.0430956298828125	2.6092529296875	-3.66973876953125	-0.79345703125	9.771934075927733	0.4034229797363281	0.15382745666503905	0.186920166015625	-4.75311279296875	-2.704620361328125	10.014945544433592	0.0383072265625	-0.229843359375	3.692626953125	-4.566192626953125	-2.368927001953125	
56	0.224	0.0	0.0	0.0	0.0	0.003	0.003	0.003	0.003	9.879074600219726	0.5141548065185546	0.047285482788085934	2.777099609375	-3.57818603515625	-0.743865966796875	9.782707983398437	0.4129997863769531	0.16519991455078123	0.31280517578125	-4.974365234375	-2.841949462890625	10.007762939453125	0.032920272827148434	-0.23523031311035156	3.665924072265625	-4.52423095703125	-2.15911865234375	
57	0.228	0.0	0.0	0.0	0.0	0.006	0.006	0.003	0.006	9.883264453125	0.5105635040283203	0.0526724365234375	2.666473388671875	-3.34930419921875	-0.888824462890625	9.780912332153319	0.4034229797363281	0.16041151123046873	0.301361083984375	-4.566192626953125	-2.788543701171875	10.008361489868163	0.028131869506835935	-0.2316390106201172	3.871917724609375	-4.711151123046875	-2.185821533203125	
58	0.232	0.0	0.0	0.0	0.0	0.009000000000000001	0.006	0.003	0.003	9.874286196899414	0.5111620544433594	0.05985504150390625	2.5634765625	-3.7841796875	-0.751495361328125	9.78031378173828	0.41060558471679687	0.15741875915527342	0.31280517578125	-4.5013427734375	-3.05938720703125	10.015544094848632	0.032920272827148434	-0.22505495605468748	3.7078857421875	-4.703521728515625	-2.12860107421875	
59	0.23600000000000002	0.0	0.0	0.0	0.0	0.006	0.003	0.003	0.006	9.867702142333984	0.517746109008789	0.06703764648437499	2.307891845703125	-3.681182861328125	-0.972747802734375	9.785102185058593	0.4070142822265625	0.14604630126953125	0.583648681640625	-4.9285888671875	-2.803802490234375	10.012551342773437	0.044292730712890624	-0.22086510314941404	3.597259521484375	-4.58526611328125	-2.124786376953125	
60	0.24	0.0	0.0	0.0	0.0	0.003	0.003	0.006	0.003	9.873089096069336	0.5213374114990235	0.058657940673828124	2.8839111328125	-3.5400390625	-0.8087158203125	9.784503634643555	0.40462008056640625	0.14903905334472656	0.3204345703125	-4.894256591796875	-2.899169921875	10.012551342773437	0.033518823242187495	-0.2376245147705078	3.818511962890625	-4.589080810546875	-2.323150634765625	
61	0.244	0.0	0.0	0.0	0.0	0.003	0.003	0.006	0.006	9.87668039855957	0.5123591552734374	0.05985504150390625	2.6702880859375	-3.692626953125	-0.774383544921875	9.781510882568359	0.40761283264160153	0.1562216583251953	0.492095947265625	-4.92095947265625	-2.651214599609375	10.001777435302733	0.03651157531738281	-0.229843359375	3.509521484375	-4.6539306640625	-2.010345458984375	
62	0.248	0.0	0.0	0.0	0.0	0.006	0.006	0.003	0.003	9.871891995239258	0.507570751953125	0.054468087768554684	2.498626708984375	-3.635406494140625	-0.835418701171875	9.785102185058593	0.4100070343017578	0.16041151123046873	0.31280517578125	-4.856109619140625	-2.83050537109375	10.014945544433592	0.044891281127929686	-0.22744915771484372	3.60870361328125	-4.787445068359375	-2.140045166015625	
63	0.252	0.0	0.0	0.0	0.0	0.006	0.003	0.003	0.003	9.874884747314452	0.508169302368164	0.05985504150390625	2.468109130859375	-3.5858154296875	-0.858306884765625	9.777919580078125	0.4112041351318359	0.15502455749511718	0.54168701171875	-5.023956298828125	-2.857208251953125	10.01015714111328	0.03531447448730469	-0.23223756103515625	3.589630126953125	-4.611968994140625	-2.071380615234375	
64	0.256	0.0	0.0	0.0	0.0	0.003	0.003	0.006	0.003	9.8694977935791	0.507570751953125	0.05626373901367187	2.34222412109375	-3.59344482421875	-0.885009765625	9.782707983398437	0.412401235961914	0.16340426330566404	0.568389892578125	-5.01251220703125	-2.780914306640625	10.013748443603514	0.03651157531738281	-0.22744915771484372	3.704071044921875	-4.85992431640625	-2.216339111328125	
65	0.26	0.0	0.0	0.0	0.0	0.003	0.003	0.003	0.006	9.865906491088866	0.5195417602539062	0.05386953735351562	2.490997314453125	-3.509521484375	-0.63323974609375	9.782109432983399	0.40761283264160153	0.16519991455078123	0.48065185546875	-5.035400390625	-2.803802490234375	10.01015714111328	0.03172317199707031	-0.2424129180908203	3.704071044921875	-4.749298095703125	-2.20489501953125	
66	0.264	0.0	0.0	0.0	0.0	0.003	0.003	0.003	0.003	9.879074600219726	0.5195417602539062	0.05027823486328125	2.628326416015625	-3.59344482421875	-0.8544921875	9.783905084228515	0.4082113830566406	0.15382745666503905	0.247955322265625	-4.932403564453125	-2.811431884765625	10.008960040283203	0.03172317199707031	-0.2346317626953125	3.63922119140625	-4.45556640625	-2.044677734375	
67	0.268	0.0	0.0	0.0	0.0	0.003	0.006	0.006	0.006	9.865906491088866	0.5189432098388671	0.05327098693847656	2.704620361328125	-3.4332275390625	-0.789642333984375	9.78629928588867	0.4016273284912109	0.16041151123046873	0.30517578125	-4.856109619140625	-2.841949462890625	10.007762939453125	0.033518823242187495	-0.23822306518554687	3.4942626953125	-4.482269287109375	-2.307891845703125	
68	0.272	0.0	0.0	0.0	0.0	0.006	0.006	0.003	0.006	9.868899243164062	0.508169302368164	0.05746083984375	2.620697021484375	-3.795623779296875	-0.774383544921875	9.78031378173828	0.4082113830566406	0.1580173095703125	0.42724609375	-4.730224609375	-2.84576416015625	10.013748443603514	0.031124621582031248	-0.23642741394042968	3.772735595703125	-4.787445068359375	-2.14385986328125	
69	0.276	0.0	0.0	0.0	0.0	0.003	0.003	0.006	0.003	9.861118087768554	0.5021837982177734	0.055066638183593745	2.62451171875	-3.5400390625	-0.69427490234375	9.782707983398437	0.40940848388671874	0.16340426330566404	0.293731689453125	-5.19561767578125	-2.7923583984375	10.015544094848632	0.04189852905273437	-0.23882161560058593	3.589630126953125	-4.72259521484375	-2.323150634765625	
70	0.28	0.0	0.0	0.0	0.0	0.006	0.003	0.003	0.006	9.867702142333984	0.5135562561035156	0.0652419952392578	2.55584716796875	-3.910064697265625	-0.820159912109375	9.777919580078125	0.4082113830566406	0.17178396911621094	0.22125244140625	-4.9896240234375	-3.002166748046875	10.014945544433592	0.037708676147460936	-0.24361001892089842	3.612518310546875	-4.756927490234375	-2.25067138671875	
71	0.28400000000000003	0.0	0.0	0.0	0.0	0.003	0.003	0.003	0.006	9.859322436523437	0.5129577056884765	0.05746083984375	2.6702880859375	-3.631591796875	-0.583648681640625	9.784503634643555	0.4100070343017578	0.16220716247558592	0.293731689453125	-4.856109619140625	-3.002166748046875	10.011952792358398	0.037708676147460936	-0.23702596435546874	3.719329833984375	-4.75311279296875	-2.13623046875	
72	0.28800000000000003	0.0	0.0	0.0	0.0	0.0	0.003	0.003	0.003	9.861716638183593	0.5159504577636719	0.06464344482421874	2.57110595703125	-3.60107421875	-0.888824462890625	9.783905084228515	0.40761283264160153	0.15442600708007811	0.16021728515625	-4.802703857421875	-2.84576416015625	10.005967288208007	0.029328970336914062	-0.23882161560058593	3.83758544921875	-4.749298095703125	-2.300262451171875	
73	0.292	0.0	0.0	0.0	0.0	0.003	0.003	0.003	0.003	9.864709390258788	0.5135562561035156	0.04848258361816406	2.49481201171875	-3.6468505859375	-0.957489013671875	9.776722479248047	0.4100070343017578	0.1610100616455078	-0.05340576171875	-4.787445068359375	-2.6397705078125	10.007164389038085	0.029927520751953124	-0.22864625854492185	3.620147705078125	-4.657745361328125	-1.94549560546875	
74	0.296	0.0	0.0	0.0	0.0	0.003	0.003	0.006	0.003	9.86411083984375	0.5129577056884765	0.054468087768554684	2.712249755859375	-3.650665283203125	-0.774383544921875	9.776123928833007	0.4034229797363281	0.15682020874023436	0.331878662109375	-4.772186279296875	-2.872467041015625	10.012551342773437	0.02693476867675781	-0.2376245147705078	3.536224365234375	-4.64630126953125	-2.01416015625	
75	0.3	0.0	0.0	0.0	0.0	0.003	0.003	0.003	0.003	9.87608184814453	0.5225345123291015	0.05327098693847656	2.704620361328125	-3.810882568359375	-0.70953369140625	9.783905084228515	0.40940848388671874	0.16699556579589842	0.5035400390625	-4.932403564453125	-2.872467041015625	10.014945544433592	0.04967968444824218	-0.24301146850585936	3.7994384765625	-4.76837158203125	-2.170562744140625	
76	0.304	0.0	0.0	0.0	0.0	0.003	0.003	0.003	0.003	9.868300692749022	0.5225345123291015	0.05746083984375	2.651214599609375	-3.711700439453125	-0.7781982421875	9.783905084228515	0.39803602600097654	0.15682020874023436	0.301361083984375	-4.669189453125	-3.055572509765625	10.011952792358398	0.04608838195800781	-0.22445640563964842	3.997802734375	-4.6539306640625	-2.31170654296875	
77	0.308	0.0	0.0	0.0	0.0	0.006	0.003	0.003	0.003	9.879074600219726	0.5195417602539062	0.05027823486328125	2.410888671875	-3.6163330078125	-0.591278076171875	9.78031378173828	0.4100070343017578	0.1610100616455078	0.530242919921875	-5.08880615234375	-2.956390380859375	10.01075569152832	0.028131869506835935	-0.229843359375	3.6468505859375	-4.734039306640625	-1.949310302734375	
78	0.312	0.0	0.0	0.0	0.0	0.003	0.003	0.003	0.0	9.877877499389648	0.5129577056884765	0.06404489440917968	2.6702880859375	-3.570556640625	-0.78582763671875	9.776722479248047	0.41060558471679687	0.1693897674560547	0.202178955078125	-4.72259521484375	-2.98309326171875	10.005368737792969	0.032920272827148434	-0.23822306518554687	3.643035888671875	-4.459381103515625	-2.002716064453125	
79	0.316	0.0	0.0	0.0	0.0	0.006	0.003	0.003	0.003	9.873687646484374	0.5165490081787109	0.058657940673828124	2.777099609375	-3.7689208984375	-0.843048095703125	9.779116680908203	0.4100070343017578	0.17058686828613281	0.324249267578125	-4.89044189453125	-2.7923583984375	10.016142645263672	0.03890577697753906	-0.23702596435546874	3.8299560546875	-4.604339599609375	-1.995086669921875	
80	0.32	0.0	0.0	0.0	0.0	0.006	0.003	0.003	0.003	9.865307940673828	0.5207388610839844	0.04548983154296875	2.52532958984375	-3.48663330078125	-0.93841552734375	9.783905084228515	0.4112041351318359	0.16639701538085935	0.28228759765625	-4.8828125	-2.864837646484375	10.008361489868163	0.03890577697753906	-0.23223756103515625	3.448486328125	-4.642486572265625	-2.178192138671875	
81	0.324	0.0	0.0	0.0	0.0	0.003	0.003	0.003	0.006	9.875483297729492	0.5117606048583984	0.0652419952392578	2.613067626953125	-3.86810302734375	-0.98419189453125	9.784503634643555	0.4016273284912109	0.16220716247558592	0.12969970703125	-4.657745361328125	-2.910614013671875	10.018536846923828	0.0430956298828125	-0.22864625854492185	3.44085693359375	-4.6234130859375	-2.0294189453125	
82	0.328	0.0	0.0	0.0	0.0	0.006	0.003	0.003	0.009000000000000001	9.880870251464843	0.5099649536132812	0.05626373901367187	2.5482177734375	-3.57818603515625	-0.8087158203125	9.783905084228515	0.4010287780761719	0.16519991455078123	0.232696533203125	-4.89044189453125	-2.86865234375	10.016142645263672	0.051475335693359374	-0.2280477081298828	3.269195556640625	-4.33349609375	-2.056121826171875	
83	0.332	0.0	0.0	0.0	0.0	0.003	0.003	0.003	0.003	9.868300692749022	0.5111620544433594	0.05566518859863281	2.51007080078125	-3.62396240234375	-0.858306884765625	9.776722479248047	0.4070142822265625	0.1580173095703125	0.14495849609375	-4.970550537109375	-2.74658203125	10.014945544433592	0.044292730712890624	-0.2214636535644531	3.89862060546875	-4.772186279296875	-2.086639404296875	
84	0.336	0.0	0.0	0.0	0.0	0.003	0.003	0.006	0.003	9.873089096069336	0.5153519073486328	0.04548983154296875	2.7618408203125	-3.5247802734375	-0.736236572265625	9.769539874267577	0.4070142822265625	0.16041151123046873	0.476837158203125	-5.11932373046875	-3.025054931640625	10.01075569152832	0.04668693237304687	-0.22206220397949217	3.662109375	-4.73785400390625	-2.140045166015625	
85	0.34	0.0	0.0	0.0	0.0	0.006	0.003	0.003	0.006	9.86291373901367	0.5183446594238281	0.04548983154296875	2.529144287109375	-3.490447998046875	-0.69427490234375	9.770736975097655	0.40880993347167965	0.15442600708007811	0.270843505859375	-4.81414794921875	-3.90625	10.003573086547851	0.04189852905273437	-0.22744915771484372	3.54766845703125	-4.84466552734375	-2.140045166015625	
86	0.34400000000000003	0.0	0.0	0.0	0.0	0.003	0.003	0.003	0.009000000000000001	9.867702142333984	0.5099649536132812	0.06703764648437499	2.590179443359375	-3.44085693359375	-0.797271728515625	9.780912332153319	0.4129997863769531	0.15682020874023436	0.354766845703125	-4.7607421875	-2.834320068359375	10.029310754394531	0.03890577697753906	-0.22385785522460935	3.7384033203125	-4.64630126953125	-2.132415771484375	
87	0.34800000000000003	0.0	0.0	0.0	0.0	0.006	0.003	0.003	0.003	9.867702142333984	0.5057751007080078	0.04908113403320312	2.666473388671875	-3.444671630859375	-0.774383544921875	9.782707983398437	0.411802685546875	0.16220716247558592	0.25177001953125	-4.82940673828125	-2.834320068359375	10.021529598999022	0.03232172241210937	-0.2316390106201172	3.551483154296875	-4.505157470703125	-2.0751953125	
88	0.352	0.0	0.0	0.0	0.0	0.003	0.006	0.003	0.006	9.871891995239258	0.5057751007080078	0.047285482788085934	2.590179443359375	-3.551483154296875	-0.8697509765625	9.783905084228515	0.41539398803710936	0.16879121704101563	0.5035400390625	-4.913330078125	-2.948760986328125	10.01075569152832	0.03232172241210937	-0.23642741394042968	3.44085693359375	-4.360198974609375	-1.97601318359375	
89	0.356	0.0	0.0	0.0	0.0	0.006	0.003	0.003	0.006	9.866505041503906	0.5159504577636719	0.05686228942871093	2.46429443359375	-3.6773681640625	-0.63323974609375	9.784503634643555	0.411802685546875	0.17118541870117188	0.392913818359375	-4.90570068359375	-2.834320068359375	10.016142645263672	0.03411737365722656	-0.23044190979003906	3.765106201171875	-4.528045654296875	-2.140045166015625	
90	0.36	0.0	0.0	0.0	0.0	0.006	0.003	0.003	0.006	9.87009634399414	0.5111620544433594	0.058657940673828124	2.70843505859375	-3.7994384765625	-0.949859619140625	9.782707983398437	0.411802685546875	0.16759411621093748	0.19073486328125	-5.016326904296875	-2.788543701171875	10.012551342773437	0.03531447448730469	-0.24361001892089842	3.734588623046875	-4.60052490234375	-1.953125	
91	0.364	0.0	0.0	0.0	0.0	0.003	0.003	0.006	0.006	9.87009634399414	0.5069722015380859	0.05686228942871093	2.628326416015625	-3.4942626953125	-0.690460205078125	9.783306533813477	0.41419688720703124	0.17357962036132812	0.3662109375	-4.87518310546875	-2.838134765625	10.013748443603514	0.037110125732421874	-0.22685060729980466	3.4942626953125	-4.604339599609375	-2.1514892578125	
92	0.368	0.0	0.0	0.0	0.0	0.009000000000000001	0.003	0.003	0.003	9.871891995239258	0.5063736511230469	0.05327098693847656	2.5482177734375	-3.45611572265625	-0.713348388671875	9.783905084228515	0.4112041351318359	0.16819266662597654	0.32806396484375	-4.84466552734375	-2.8228759765625	10.016142645263672	0.047285482788085934	-0.23523031311035156	3.643035888671875	-4.47845458984375	-2.010345458984375	
93	0.372	0.0	0.0	0.0	0.0	0.006	0.006	0.003	0.006	9.87727894897461	0.5141548065185546	0.055066638183593745	2.6397705078125	-3.74603271484375	-0.797271728515625	9.785102185058593	0.40940848388671874	0.16340426330566404	0.263214111328125	-4.932403564453125	-2.910614013671875	10.000580334472655	0.03531447448730469	-0.23582886352539062	3.536224365234375	-4.57000732421875	-2.063751220703125	
94	0.376	0.0	0.0	0.0	0.0	0.006	0.003	0.006	0.003	9.87608184814453	0.5105635040283203	0.05805939025878906	2.559661865234375	-3.63922119140625	-0.79345703125	9.78629928588867	0.4100070343017578	0.14425065002441406	0.499725341796875	-4.749298095703125	-2.956390380859375	9.999383233642577	0.0383072265625	-0.23702596435546874	3.681182861328125	-4.638671875	-2.140045166015625	
95	0.38	0.0	0.0	0.0	0.0	0.003	0.003	0.006	0.006	9.874884747314452	0.5117606048583984	0.05746083984375	2.628326416015625	-3.70025634765625	-0.827789306640625	9.778518130493163	0.4129997863769531	0.14963760375976562	0.3509521484375	-4.894256591796875	-2.8839111328125	10.014346994018554	0.040102877807617184	-0.22266075439453123	3.520965576171875	-4.43267822265625	-2.086639404296875	
96	0.384	0.0	0.0	0.0	0.0	0.006	0.003	0.006	0.009000000000000001	9.872490545654296	0.5147533569335937	0.06344634399414062	2.593994140625	-3.71551513671875	-0.957489013671875	9.777919580078125	0.41539398803710936	0.1657984649658203	0.316619873046875	-4.8065185546875	-2.87628173828125	10.007762939453125	0.037708676147460936	-0.2328361114501953	3.658294677734375	-4.61578369140625	-2.00653076171875	
97	0.388	0.0	0.0	0.0	0.0	0.006	0.003	0.006	0.003	9.87668039855957	0.5063736511230469	0.05805939025878906	2.567291259765625	-3.72314453125	-0.87738037109375	9.783306533813477	0.40581718139648437	0.16340426330566404	0.217437744140625	-4.985809326171875	-2.685546875	10.01733974609375	0.04668693237304687	-0.2232593048095703	3.41796875	-4.7607421875	-2.0904541015625	
98	0.392	0.0	0.0	0.0	0.0	0.006	0.003	0.003	0.006	9.86291373901367	0.508169302368164	0.06763619689941405	2.506256103515625	-3.932952880859375	-0.74005126953125	9.785102185058593	0.40761283264160153	0.15682020874023436	0.42724609375	-4.89044189453125	-2.925872802734375	10.013149893188476	0.0383072265625	-0.23044190979003906	3.604888916015625	-4.390716552734375	-2.201080322265625	
99	0.396	0.0	0.0	0.0	0.0	0.003	0.006	0.003	0.0	9.874286196899414	0.5123591552734374	0.05985504150390625	2.5634765625	-3.6773681640625	-0.904083251953125	9.779116680908203	0.40761283264160153	0.16160861206054686	0.35858154296875	-4.76837158203125	-2.994537353515625	10.011354241943359	0.03531447448730469	-0.22685060729980466	3.612518310546875	-4.33349609375	-2.227783203125	
100	0.4	0.0	0.0	0.0	0.0	0.003	0.003	0.006	0.003	9.873687646484374	0.5165490081787109	0.05566518859863281	2.582550048828125	-3.41796875	-0.591278076171875	9.78031378173828	0.4147954376220703	0.15861585998535155	0.461578369140625	-4.79888916015625	-2.96783447265625	10.018536846923828	0.04189852905273437	-0.2316390106201172	3.482818603515625	-4.52423095703125	-2.223968505859375	
101	0.404	0.0	0.0	0.0	0.0	0.003	0.006	0.003	0.003	9.865307940673828	0.5147533569335937	0.055066638183593745	2.685546875	-3.8909912109375	-0.782012939453125	9.776722479248047	0.40462008056640625	0.15682020874023436	0.560760498046875	-5.07354736328125	-2.95257568359375	10.015544094848632	0.040701428222656245	-0.22266075439453123	3.51715087890625	-4.573822021484375	-2.071380615234375	
102	0.40800000000000003	0.0	0.0	0.0	0.0	0.003	0.003	0.003	0.006	9.861716638183593	0.5111620544433594	0.06703764648437499	2.3345947265625	-3.376007080078125	-0.789642333984375	9.78629928588867	0.40581718139648437	0.1580173095703125	0.492095947265625	-5.07354736328125	-2.78472900390625	10.01015714111328	0.034715924072265626	-0.23523031311035156	3.452301025390625	-4.589080810546875	-2.246856689453125	
103	0.41200000000000003	0.0	0.0	0.0	0.0	0.006	0.006	0.003	0.003	9.871293444824218	0.5135562561035156	0.05626373901367187	2.66265869140625	-3.4637451171875	-0.751495361328125	9.77492682800293	0.4082113830566406	0.1592144104003906	0.274658203125	-4.878997802734375	-2.9449462890625	10.005368737792969	0.03591302490234375	-0.2328361114501953	3.696441650390625	-4.79888916015625	-2.18963623046875	
104	0.41600000000000004	0.0	0.0	0.0	0.0	0.006	0.006	0.006	0.003	9.866505041503906	0.5099649536132812	0.06404489440917968	2.361297607421875	-3.509521484375	-0.713348388671875	9.783905084228515	0.4082113830566406	0.1610100616455078	0.377655029296875	-5.191802978515625	-2.918243408203125	10.011354241943359	0.033518823242187495	-0.22685060729980466	3.795623779296875	-4.76837158203125	-2.2430419921875	
105	0.42	0.0	0.0	0.0	0.0	0.0	0.003	0.003	0.006	9.861118087768554	0.5093664031982421	0.06045359191894531	2.590179443359375	-3.45611572265625	-0.6561279296875	9.773131176757811	0.40282442932128903	0.15382745666503905	0.308990478515625	-4.787445068359375	-2.681732177734375	10.016142645263672	0.0383072265625	-0.22026655273437498	3.726959228515625	-4.489898681640625	-2.254486083984375	
106	0.424	0.0	0.0	0.0	0.0	0.006	0.003	0.003	0.003	9.86411083984375	0.5159504577636719	0.05386953735351562	2.7618408203125	-3.4332275390625	-0.835418701171875	9.773131176757811	0.4082113830566406	0.1514332550048828	0.095367431640625	-5.157470703125	-2.8839111328125	10.005368737792969	0.03232172241210937	-0.23582886352539062	3.4637451171875	-4.45556640625	-1.964569091796875	
107	0.428	0.0	0.0	0.0	0.0	0.003	0.003	0.003	0.003	9.868300692749022	0.5093664031982421	0.06284779357910156	2.72369384765625	-3.551483154296875	-0.823974609375	9.78031378173828	0.4070142822265625	0.14784195251464843	0.301361083984375	-4.8370361328125	-2.719879150390625	10.011354241943359	0.037708676147460936	-0.2472013214111328	3.4637451171875	-4.558563232421875	-2.117156982421875	
108	0.432	0.0	0.0	0.0	0.0	0.003	0.006	0.003	0.006	9.8694977935791	0.5165490081787109	0.06703764648437499	2.689361572265625	-3.6163330078125	-0.705718994140625	9.776722479248047	0.41060558471679687	0.16041151123046873	0.0457763671875	-4.99725341796875	-2.872467041015625	10.01015714111328	0.025737667846679687	-0.23343466186523437	3.734588623046875	-4.680633544921875	-2.101898193359375	
109	0.436	0.0	0.0	0.0	0.0	0.006	0.003	0.003	0.003	9.862315188598632	0.5129577056884765	0.06045359191894531	2.44140625	-3.597259521484375	-0.713348388671875	9.784503634643555	0.4165910888671875	0.1610100616455078	0.385284423828125	-5.001068115234375	-2.895355224609375	10.01015714111328	0.028730419921875	-0.2292448089599609	3.520965576171875	-4.383087158203125	-2.18963623046875	
110	0.44	0.0	0.0	0.0	0.0	0.006	0.003	0.003	0.003	9.859920986938477	0.5057751007080078	0.05386953735351562	2.5177001953125	-3.692626953125	-0.820159912109375	9.78629928588867	0.4129997863769531	0.1657984649658203	0.278472900390625	-4.756927490234375	-2.765655517578125	10.00417163696289	0.03232172241210937	-0.2262520568847656	3.635406494140625	-4.573822021484375	-1.865386962890625	
111	0.444	0.0	0.0	0.0	0.0	0.006	0.003	0.006	0.003	9.86411083984375	0.5057751007080078	0.06284779357910156	2.437591552734375	-3.620147705078125	-0.72479248046875	9.788693487548828	0.40282442932128903	0.16879121704101563	0.263214111328125	-4.962921142578125	-2.93731689453125	10.007762939453125	0.037708676147460936	-0.2316390106201172	3.665924072265625	-4.596710205078125	-2.0599365234375	
112	0.448	0.0	0.0	0.0	0.0	0.009000000000000001	0.003	0.003	0.006	9.87608184814453	0.5099649536132812	0.0526724365234375	2.66265869140625	-3.414154052734375	-0.827789306640625	9.783306533813477	0.4016273284912109	0.1610100616455078	0.31280517578125	-4.901885986328125	-2.90679931640625	10.013149893188476	0.033518823242187495	-0.22266075439453123	3.528594970703125	-4.444122314453125	-2.0294189453125	
113	0.452	0.0	0.0	0.0	0.0	0.009000000000000001	0.003	0.003	0.003	9.868899243164062	0.5141548065185546	0.06105214233398437	2.55584716796875	-3.612518310546875	-0.81634521484375	9.785102185058593	0.40282442932128903	0.15442600708007811	0.446319580078125	-4.894256591796875	-2.834320068359375	9.999383233642577	0.03890577697753906	-0.24001871643066405	3.6163330078125	-4.802703857421875	-2.071380615234375	
114	0.456	0.0	0.0	0.0	0.0	0.006	0.003	0.006	0.003	9.865307940673828	0.5063736511230469	0.05087678527832031	2.681732177734375	-3.5552978515625	-0.83160400390625	9.784503634643555	0.4100070343017578	0.1657984649658203	0.324249267578125	-4.940032958984375	-2.857208251953125	10.012551342773437	0.028730419921875	-0.22565350646972654	3.643035888671875	-4.64630126953125	-2.124786376953125	
115	0.46	0.0	0.0	0.0	0.0	0.006	0.003	0.003	0.006	9.879673150634765	0.5123591552734374	0.05087678527832031	2.750396728515625	-3.86810302734375	-0.850677490234375	9.785102185058593	0.40402153015136716	0.16280571289062498	0.45013427734375	-5.252838134765625	-2.941131591796875	10.00417163696289	0.0383072265625	-0.2262520568847656	3.80706787109375	-4.52423095703125	-2.0294189453125	
116	0.464	0.0	0.0	0.0	0.0	0.006	0.003	0.003	0.003	9.873687646484374	0.5033808990478515	0.047884033203124995	2.47955322265625	-3.414154052734375	-1.007080078125	9.788693487548828	0.39863457641601563	0.16220716247558592	0.18310546875	-4.947662353515625	-2.899169921875	10.007762939453125	0.03172317199707031	-0.23403321228027343	3.566741943359375	-4.451751708984375	-2.31170654296875	
117	0.468	0.0	0.0	0.0	0.0	0.006	0.006	0.003	0.006	9.873089096069336	0.5117606048583984	0.05805939025878906	2.7008056640625	-3.612518310546875	-0.637054443359375	9.78031378173828	0.40402153015136716	0.17238251953125	0.31280517578125	-4.642486572265625	-2.758026123046875	10.002974536132811	0.022744915771484374	-0.23223756103515625	3.597259521484375	-4.7607421875	-2.086639404296875	
118	0.47200000000000003	0.0	0.0	0.0	0.0	0.006	0.003	0.006	0.006	9.87608184814453	0.5063736511230469	0.052073886108398436	2.384185791015625	-3.643035888671875	-0.8087158203125	9.787496386718749	0.4064157318115234	0.1640028137207031	0.308990478515625	-4.810333251953125	-2.780914306640625	10.004770187377929	0.032920272827148434	-0.23223756103515625	3.57818603515625	-4.55474853515625	-2.197265625	
119	0.47600000000000003	0.0	0.0	0.0	0.0	0.006	0.003	0.006	0.003	9.87668039855957	0.5105635040283203	0.0526724365234375	2.57110595703125	-3.734588623046875	-0.7171630859375	9.785700735473633	0.40402153015136716	0.16041151123046873	0.25177001953125	-5.008697509765625	-2.9296875	10.007164389038085	0.034715924072265626	-0.2376245147705078	3.650665283203125	-4.627227783203125	-1.96075439453125	
120	0.48	0.0	0.0	0.0	0.0	0.006	0.003	0.003	0.003	9.87727894897461	0.5189432098388671	0.05566518859863281	2.7923583984375	-3.60870361328125	-0.84686279296875	9.78629928588867	0.4034229797363281	0.15502455749511718	0.347137451171875	-5.023956298828125	-2.994537353515625	10.013149893188476	0.03950432739257812	-0.2280477081298828	3.79180908203125	-4.64630126953125	-2.31170654296875	
121	0.484	0.0	0.0	0.0	0.0	0.003	0.003	0.003	0.003	9.874286196899414	0.5099649536132812	0.06464344482421874	2.3956298828125	-3.3721923828125	-0.682830810546875	9.783306533813477	0.4147954376220703	0.1580173095703125	0.20599365234375	-4.92095947265625	-2.796173095703125	10.016142645263672	0.0430956298828125	-0.23403321228027343	3.604888916015625	-4.52423095703125	-2.1514892578125	
122	0.488	0.0	0.0	0.0	0.0	0.006	0.003	0.003	0.006	9.87009634399414	0.5123591552734374	0.06584054565429687	2.544403076171875	-3.5552978515625	-1.018524169921875	9.782109432983399	0.4100070343017578	0.15981296081542967	0.339508056640625	-4.970550537109375	-2.880096435546875	10.008960040283203	0.022744915771484374	-0.23343466186523437	3.63922119140625	-4.46319580078125	-2.201080322265625	
123	0.492	0.0	0.0	0.0	0.0	0.006	0.003	0.003	0.006	9.879074600219726	0.5069722015380859	0.05746083984375	2.605438232421875	-3.696441650390625	-0.713348388671875	9.783905084228515	0.40880993347167965	0.15203180541992187	0.247955322265625	-4.734039306640625	-2.689361572265625	10.008361489868163	0.031124621582031248	-0.2214636535644531	3.5552978515625	-4.47845458984375	-2.03704833984375	
124	0.496	0.0	0.0	0.0	0.0	0.006	0.006	0.003	0.003	9.87069489440918	0.5099649536132812	0.05626373901367187	2.513885498046875	-3.559112548828125	-0.835418701171875	9.783306533813477	0.4052186309814453	0.15981296081542967	0.377655029296875	-4.817962646484375	-2.773284912109375	10.015544094848632	0.029927520751953124	-0.22086510314941404	3.787994384765625	-4.76837158203125	-2.044677734375	
125	0.5	0.0	0.0	0.0	0.0	0.003	0.003	0.003	0.006	9.865307940673828	0.5105635040283203	0.06284779357910156	2.544403076171875	-3.749847412109375	-0.81634521484375	9.784503634643555	0.4100070343017578	0.16759411621093748	0.415802001953125	-4.913330078125	-2.651214599609375	10.006565838623047	0.037110125732421874	-0.2424129180908203	3.662109375	-4.657745361328125	-2.17437744140625	
126	0.504	0.0	0.0	0.0	0.0	0.003	0.003	0.003	0.003	9.87009634399414	0.5129577056884765	0.062249243164062495	2.567291259765625	-3.68499755859375	-0.949859619140625	9.781510882568359	0.4082113830566406	0.1580173095703125	0.54168701171875	-5.126953125	-2.92205810546875	10.002974536132811	0.032920272827148434	-0.23343466186523437	3.5247802734375	-4.82177734375	-2.05230712890625	
127	0.508	0.0	0.0	0.0	0.0	0.006	0.006	0.003	0.003	9.86291373901367	0.5087678527832031	0.04908113403320312	2.6702880859375	-3.6468505859375	-0.667572021484375	9.781510882568359	0.40282442932128903	0.14724340209960937	0.22125244140625	-4.619598388671875	-2.841949462890625	9.999383233642577	0.03232172241210937	-0.22565350646972654	3.650665283203125	-4.64630126953125	-2.03704833984375	
128	0.512	0.0	0.0	0.0	0.0	0.006	0.006	0.006	0.006	9.86411083984375	0.5087678527832031	0.062249243164062495	2.429962158203125	-3.76129150390625	-0.865936279296875	9.782707983398437	0.4100070343017578	0.15741875915527342	0.408172607421875	-5.126953125	-2.76947021484375	10.01733974609375	0.033518823242187495	-0.23044190979003906	3.376007080078125	-4.55474853515625	-2.11334228515625	
129	0.516	0.0	0.0	0.0	0.0	0.006	0.003	0.003	0.006	9.873687646484374	0.507570751953125	0.05027823486328125	2.834320068359375	-3.360748291015625	-0.6866455078125	9.783306533813477	0.40761283264160153	0.16340426330566404	0.591278076171875	-5.077362060546875	-2.99835205078125	10.007762939453125	0.03591302490234375	-0.23343466186523437	3.925323486328125	-4.7607421875	-1.903533935546875	
130	0.52	0.0	0.0	0.0	0.0	0.006	0.003	0.003	0.0	9.867103591918944	0.51714755859375	0.04548983154296875	2.559661865234375	-3.589630126953125	-0.78582763671875	9.78031378173828	0.40581718139648437	0.16041151123046873	0.48828125	-4.894256591796875	-2.74658203125	10.003573086547851	0.03591302490234375	-0.2292448089599609	3.62396240234375	-4.474639892578125	-2.017974853515625	
131	0.524	0.0	0.0	0.0	0.0	0.003	0.006	0.006	0.003	9.872490545654296	0.5123591552734374	0.05087678527832031	2.552032470703125	-3.45611572265625	-0.545501708984375	9.780912332153319	0.4052186309814453	0.14484920043945312	0.614166259765625	-4.90570068359375	-3.040313720703125	10.008960040283203	0.03651157531738281	-0.22206220397949217	3.6773681640625	-4.61578369140625	-2.193450927734375	
132	0.528	0.0	0.0	0.0	0.0	0.003	0.003	0.003	0.006	9.875483297729492	0.5129577056884765	0.0526724365234375	2.452850341796875	-3.536224365234375	-0.766754150390625	9.775525378417969	0.4082113830566406	0.15203180541992187	0.1983642578125	-4.7454833984375	-2.887725830078125	10.013149893188476	0.037110125732421874	-0.229843359375	3.56292724609375	-4.4097900390625	-2.002716064453125	
133	0.532	0.0	0.0	0.0	0.0	0.006	0.003	0.003	0.003	9.866505041503906	0.5153519073486328	0.06344634399414062	2.719879150390625	-3.551483154296875	-0.728607177734375	9.780912332153319	0.412401235961914	0.1693897674560547	0.202178955078125	-5.001068115234375	-2.93731689453125	10.012551342773437	0.03950432739257812	-0.22086510314941404	3.719329833984375	-4.886627197265625	-2.0751953125	
134	0.536	0.0	0.0	0.0	0.0	0.006	0.003	0.006	0.003	9.874286196899414	0.5039794494628906	0.05087678527832031	2.7008056640625	-3.59344482421875	-0.92315673828125	9.783905084228515	0.4165910888671875	0.16639701538085935	0.247955322265625	-4.917144775390625	-3.025054931640625	10.015544094848632	0.028730419921875	-0.23642741394042968	3.490447998046875	-4.5623779296875	-1.949310302734375	
135	0.54	0.0	0.0	0.0	0.0	0.006	0.003	0.003	0.006	9.868300692749022	0.517746109008789	0.052073886108398436	2.475738525390625	-3.757476806640625	-0.9613037109375	9.783905084228515	0.40761283264160153	0.16160861206054686	0.51116943359375	-4.718780517578125	-2.9144287109375	10.013748443603514	0.033518823242187495	-0.23044190979003906	3.509521484375	-4.638671875	-2.1514892578125	
136	0.544	0.0	0.0	0.0	0.0	0.003	0.003	0.006	0.003	9.873089096069336	0.5141548065185546	0.04908113403320312	2.613067626953125	-3.79180908203125	-0.896453857421875	9.787496386718749	0.4070142822265625	0.15861585998535155	0.423431396484375	-4.8675537109375	-2.6702880859375	10.015544094848632	0.03591302490234375	-0.2262520568847656	3.54766845703125	-4.67681884765625	-2.155303955078125	
137	0.548	0.0	0.0	0.0	0.0	0.003	0.006	0.006	0.003	9.877877499389648	0.5207388610839844	0.04189852905273437	2.613067626953125	-3.459930419921875	-0.766754150390625	9.782707983398437	0.4064157318115234	0.16460136413574217	0.568389892578125	-5.031585693359375	-3.1280517578125	10.007762939453125	0.030526071166992186	-0.23403321228027343	3.650665283203125	-4.69970703125	-1.842498779296875	
138	0.552	0.0	0.0	0.0	0.0	0.003	0.003	0.003	0.006	9.87608184814453	0.5237316131591797	0.051475335693359374	2.61688232421875	-3.482818603515625	-0.843048095703125	9.783306533813477	0.4016273284912109	0.17956512451171874	0.2899169921875	-4.791259765625	-2.81524658203125	10.006565838623047	0.032920272827148434	-0.2316390106201172	3.559112548828125	-4.474639892578125	-2.02178955078125	
139	0.556	0.0	0.0	0.0	0.0	0.003	0.006	0.003	0.003	9.871293444824218	0.5159504577636719	0.0526724365234375	2.78472900390625	-3.711700439453125	-0.823974609375	9.785102185058593	0.40402153015136716	0.16699556579589842	0.164031982421875	-5.031585693359375	-2.7923583984375	10.005368737792969	0.033518823242187495	-0.23223756103515625	3.650665283203125	-4.49371337890625	-2.101898193359375	
140	0.56	0.0	0.0	0.0	0.0	0.012	0.003	0.003	0.003	9.87727894897461	0.5141548065185546	0.051475335693359374	2.55584716796875	-3.90625	-0.8544921875	9.783905084228515	0.40761283264160153	0.15203180541992187	0.48828125	-4.894256591796875	-2.838134765625	10.012551342773437	0.03591302490234375	-0.23104046020507812	3.631591796875	-4.66156005859375	-2.2430419921875	
141	0.5640000000000001	0.0	0.0	0.0	0.0	0.006	0.006	0.003	0.003	9.87727894897461	0.5117606048583984	0.05386953735351562	2.719879150390625	-3.696441650390625	-0.942230224609375	9.78031378173828	0.41060558471679687	0.16460136413574217	0.408172607421875	-5.008697509765625	-2.8076171875	10.00955859069824	0.040102877807617184	-0.23104046020507812	3.71551513671875	-4.6234130859375	-2.216339111328125	
142	0.5680000000000001	0.0	0.0	0.0	0.0	0.006	0.003	0.006	0.006	9.874884747314452	0.5189432098388671	0.059256491088867186	2.422332763671875	-3.284454345703125	-0.5340576171875	9.779715231323241	0.40581718139648437	0.17058686828613281	0.316619873046875	-4.8065185546875	-3.063201904296875	9.999383233642577	0.04249707946777344	-0.21906945190429686	3.3721923828125	-4.5013427734375	-2.048492431640625	
143	0.5720000000000001	0.0	0.0	0.0	0.0	0.003	0.003	0.003	0.003	9.871891995239258	0.5189432098388671	0.05566518859863281	2.54058837890625	-3.45611572265625	-0.743865966796875	9.781510882568359	0.4070142822265625	0.1484405029296875	0.186920166015625	-4.92095947265625	-2.81524658203125	9.995791931152343	0.033518823242187495	-0.22565350646972654	3.459930419921875	-4.60052490234375	-2.09808349609375	
144	0.5760000000000001	0.0	0.0	0.0	0.0	0.003	0.006	0.003	0.003	9.86291373901367	0.5141548065185546	0.06045359191894531	2.7618408203125	-3.84521484375	-0.640869140625	9.783306533813477	0.4052186309814453	0.14724340209960937	0.55694580078125	-4.940032958984375	-3.07464599609375	10.01015714111328	0.028730419921875	-0.23403321228027343	3.4332275390625	-4.5166015625	-2.0294189453125	
145	0.58	0.0	0.0	0.0	0.0	0.003	0.003	0.003	0.003	9.871293444824218	0.5207388610839844	0.04369418029785156	2.559661865234375	-3.41796875	-0.66375732421875	9.785102185058593	0.4052186309814453	0.1484405029296875	0.274658203125	-4.92095947265625	-2.872467041015625	10.015544094848632	0.029328970336914062	-0.2328361114501953	3.627777099609375	-4.6844482421875	-1.91497802734375	
146	0.584	0.0	0.0	0.0	0.0	0.009000000000000001	0.006	0.003	0.003	9.875483297729492	0.5183446594238281	0.04249707946777344	2.552032470703125	-3.589630126953125	-0.6561279296875	9.785102185058593	0.4034229797363281	0.15382745666503905	0.301361083984375	-4.9285888671875	-2.9449462890625	10.024522351074218	0.032920272827148434	-0.23104046020507812	3.74603271484375	-4.810333251953125	-2.063751220703125	
147	0.588	0.0	0.0	0.0	0.0	0.003	0.003	0.003	0.006	9.877877499389648	0.5159504577636719	0.054468087768554684	2.796173095703125	-3.597259521484375	-0.934600830078125	9.771934075927733	0.4112041351318359	0.1640028137207031	0.18310546875	-4.72259521484375	-2.727508544921875	10.013748443603514	0.033518823242187495	-0.2376245147705078	3.734588623046875	-4.543304443359375	-1.995086669921875	
148	0.592	0.0	0.0	0.0	0.0	0.006	0.003	0.003	0.006	9.879673150634765	0.5141548065185546	0.04668693237304687	2.628326416015625	-3.570556640625	-1.01470947265625	9.779715231323241	0.4034229797363281	0.15263035583496093	0.2899169921875	-5.16510009765625	-2.8839111328125	10.01674119567871	0.03591302490234375	-0.24181436767578124	3.9215087890625	-4.726409912109375	-2.0294189453125	
149	0.596	0.0	0.0	0.0	0.0	0.003	0.003	0.006	0.006	9.864709390258788	0.5111620544433594	0.04608838195800781	2.58636474609375	-3.696441650390625	-0.782012939453125	9.781510882568359	0.4064157318115234	0.15981296081542967	0.278472900390625	-4.791259765625	-2.81524658203125	10.015544094848632	0.03651157531738281	-0.22685060729980466	3.68499755859375	-4.688262939453125	-1.987457275390625	
150	0.6	0.0	0.0	0.0	0.0	0.006	0.003	0.003	0.003	9.867702142333984	0.517746109008789	0.054468087768554684	2.3651123046875	-3.7078857421875	-0.881195068359375	9.77432827758789	0.4129997863769531	0.1562216583251953	0.179290771484375	-4.7454833984375	-2.8228759765625	10.011952792358398	0.04129997863769531	-0.2346317626953125	3.803253173828125	-4.8065185546875	-1.995086669921875	
151	0.604	0.0	0.0	0.0	0.0	0.003	0.006	0.003	0.006	9.867103591918944	0.5159504577636719	0.03950432739257812	2.7313232421875	-3.383636474609375	-0.89263916015625	9.776722479248047	0.4129997863769531	0.15502455749511718	0.18310546875	-4.85992431640625	-2.92205810546875	10.007762939453125	0.03232172241210937	-0.23343466186523437	3.559112548828125	-4.58526611328125	-2.048492431640625	
152	0.608	0.0	0.0	0.0	0.0	0.0	0.003	0.006	0.006	9.871293444824218	0.5117606048583984	0.047884033203124995	2.7923583984375	-3.673553466796875	-0.736236572265625	9.779116680908203	0.4171896392822265	0.15502455749511718	0.42724609375	-4.913330078125	-2.92205810546875	10.008960040283203	0.034715924072265626	-0.23223756103515625	3.597259521484375	-4.596710205078125	-2.0294189453125	
153	0.612	0.0	0.0	0.0	0.0	0.006	0.006	0.003	0.006	9.872490545654296	0.5159504577636719	0.06045359191894531	2.750396728515625	-3.696441650390625	-0.804901123046875	9.78031378173828	0.4225765930175781	0.16041151123046873	0.244140625	-4.82940673828125	-3.025054931640625	10.001178884887695	0.044891281127929686	-0.22086510314941404	3.528594970703125	-4.61578369140625	-1.9378662109375	
154	0.616	0.0	0.0	0.0	0.0	0.006	0.006	0.003	0.003	9.867103591918944	0.5147533569335937	0.044891281127929686	2.498626708984375	-3.635406494140625	-0.5950927734375	9.784503634643555	0.40402153015136716	0.1592144104003906	0.335693359375	-4.962921142578125	-2.899169921875	10.005967288208007	0.04129997863769531	-0.21428104858398436	3.4027099609375	-4.63104248046875	-2.1514892578125	
155	0.62	0.0	0.0	0.0	0.0	0.003	0.006	0.003	0.003	9.867702142333984	0.5057751007080078	0.047285482788085934	2.445220947265625	-3.50189208984375	-1.09100341796875	9.785700735473633	0.412401235961914	0.15382745666503905	-0.16021728515625	-4.76837158203125	-2.9144287109375	10.007164389038085	0.03411737365722656	-0.2292448089599609	3.620147705078125	-4.608154296875	-2.086639404296875	
156	0.624	0.0	0.0	0.0	0.0	0.003	0.003	0.006	0.003	9.87727894897461	0.5051765502929687	0.047285482788085934	2.69317626953125	-3.662109375	-0.75531005859375	9.783905084228515	0.40880993347167965	0.16160861206054686	0.522613525390625	-5.062103271484375	-2.895355224609375	10.013748443603514	0.033518823242187495	-0.2328361114501953	3.62396240234375	-4.589080810546875	-2.1514892578125	
157	0.628	0.0	0.0	0.0	0.0	0.003	0.003	0.006	0.006	9.880870251464843	0.5111620544433594	0.05566518859863281	2.643585205078125	-3.753662109375	-0.89263916015625	9.781510882568359	0.4100070343017578	0.15562310791015624	0.396728515625	-5.04302978515625	-2.960205078125	10.00955859069824	0.03172317199707031	-0.23702596435546874	3.66973876953125	-4.665374755859375	-2.140045166015625	
158	0.632	0.0	0.0	0.0	0.0	0.003	0.003	0.003	0.006	9.873687646484374	0.5141548065185546	0.04848258361816406	2.75421142578125	-3.57818603515625	-0.827789306640625	9.781510882568359	0.4100070343017578	0.15741875915527342	0.4730224609375	-4.756927490234375	-2.95257568359375	10.007762939453125	0.029927520751953124	-0.23582886352539062	3.79180908203125	-4.596710205078125	-2.185821533203125	
159	0.636	0.0	0.0	0.0	0.0	0.003	0.003	0.003	0.003	9.867702142333984	0.5015852478027344	0.06105214233398437	2.47955322265625	-3.692626953125	-0.888824462890625	9.783306533813477	0.40761283264160153	0.15442600708007811	0.5035400390625	-4.96673583984375	-2.90679931640625	10.012551342773437	0.03411737365722656	-0.23044190979003906	3.757476806640625	-4.6234130859375	-2.17437744140625	
160	0.64	0.0	0.0	0.0	0.0	0.0	0.003	0.003	0.003	9.8694977935791	0.5093664031982421	0.05626373901367187	2.704620361328125	-3.77655029296875	-0.919342041015625	9.781510882568359	0.39923312683105466	0.15203180541992187	0.31280517578125	-4.940032958984375	-2.7313232421875	10.01015714111328	0.03890577697753906	-0.2346317626953125	3.780364990234375	-4.7607421875	-2.300262451171875	
161	0.644	0.0	0.0	0.0	0.0	0.003	0.003	0.003	0.006	9.873089096069336	0.5099649536132812	0.061650692749023434	2.3956298828125	-3.726959228515625	-0.652313232421875	9.773131176757811	0.4100070343017578	0.15442600708007811	0.286102294921875	-4.772186279296875	-2.834320068359375	10.019733947753906	0.04189852905273437	-0.22505495605468748	3.74603271484375	-4.596710205078125	-2.048492431640625	
162	0.648	0.0	0.0	0.0	0.0	0.003	0.006	0.003	0.006	9.871293444824218	0.508169302368164	0.05386953735351562	2.5787353515625	-3.719329833984375	-0.7171630859375	9.780912332153319	0.4064157318115234	0.1562216583251953	0.34332275390625	-4.852294921875	-2.964019775390625	10.014945544433592	0.040102877807617184	-0.21727380065917967	3.4942626953125	-4.45556640625	-2.071380615234375	
163	0.652	0.0	0.0	0.0	0.0	0.006	0.003	0.003	0.003	9.87608184814453	0.5147533569335937	0.055066638183593745	2.445220947265625	-3.902435302734375	-0.9613037109375	9.779715231323241	0.4100070343017578	0.16160861206054686	0.293731689453125	-4.871368408203125	-2.86102294921875	10.01075569152832	0.03651157531738281	-0.22206220397949217	3.662109375	-4.64630126953125	-1.953125	
164	0.656	0.0	0.0	0.0	0.0	0.003	0.003	0.003	0.003	9.85752678527832	0.5063736511230469	0.0526724365234375	2.765655517578125	-3.6468505859375	-0.736236572265625	9.782707983398437	0.41539398803710936	0.16759411621093748	0.461578369140625	-4.89044189453125	-2.83050537109375	10.008960040283203	0.03950432739257812	-0.2346317626953125	3.772735595703125	-4.619598388671875	-2.1514892578125	
165	0.66	0.0	0.0	0.0	0.0	0.003	0.003	0.003	0.003	9.867103591918944	0.5189432098388671	0.047884033203124995	2.7618408203125	-3.88336181640625	-0.873565673828125	9.781510882568359	0.421978042602539	0.1657984649658203	0.26702880859375	-5.107879638671875	-2.780914306640625	10.01015714111328	0.03651157531738281	-0.21966800231933592	3.6468505859375	-4.5166015625	-2.14385986328125	
166	0.664	0.0	0.0	0.0	0.0	0.003	0.003	0.003	0.003	9.867103591918944	0.5087678527832031	0.047285482788085934	2.620697021484375	-3.39508056640625	-0.8087158203125	9.78031378173828	0.4100070343017578	0.15981296081542967	0.1220703125	-4.94384765625	-2.910614013671875	10.008361489868163	0.037708676147460936	-0.2262520568847656	3.6468505859375	-4.78363037109375	-2.040863037109375	
167	0.668	0.0	0.0	0.0	0.0	0.006	0.006	0.003	0.003	9.864709390258788	0.5153519073486328	0.05985504150390625	2.727508544921875	-3.566741943359375	-0.8392333984375	9.783905084228515	0.40940848388671874	0.1514332550048828	0.14495849609375	-4.665374755859375	-2.696990966796875	10.007762939453125	0.023942016601562498	-0.22864625854492185	3.734588623046875	-4.46319580078125	-2.1209716796875	
168	0.672	0.0	0.0	0.0	0.0	0.003	0.006	0.006	0.006	9.868899243164062	0.5147533569335937	0.05566518859863281	2.685546875	-3.749847412109375	-0.79345703125	9.78629928588867	0.40462008056640625	0.15682020874023436	0.3662109375	-4.85992431640625	-3.74603271484375	10.006565838623047	0.029328970336914062	-0.21787235107421873	3.604888916015625	-4.5928955078125	-2.162933349609375	
169	0.676	0.0	0.0	0.0	0.0	0.003	0.003	0.006	0.003	9.867702142333984	0.5051765502929687	0.052073886108398436	2.552032470703125	-3.360748291015625	-0.9765625	9.788693487548828	0.40222587890625	0.15442600708007811	0.38909912109375	-4.63104248046875	-2.69317626953125	10.014945544433592	0.04189852905273437	-0.22445640563964842	3.73077392578125	-4.69207763671875	-2.044677734375	
170	0.68	0.0	0.0	0.0	0.0	0.006	0.003	0.003	0.003	9.86411083984375	0.5093664031982421	0.059256491088867186	2.5787353515625	-3.566741943359375	-0.66375732421875	9.783905084228515	0.39923312683105466	0.1657984649658203	0.20599365234375	-4.64630126953125	-2.880096435546875	10.008361489868163	0.029328970336914062	-0.2292448089599609	3.780364990234375	-4.69207763671875	-1.987457275390625	
171	0.684	0.0	0.0	0.0	0.0	0.003	0.003	0.003	0.003	9.868899243164062	0.5051765502929687	0.06584054565429687	2.643585205078125	-3.475189208984375	-0.705718994140625	9.783306533813477	0.4070142822265625	0.17477672119140625	0.568389892578125	-4.87518310546875	-2.964019775390625	10.001178884887695	0.029328970336914062	-0.23582886352539062	3.566741943359375	-4.451751708984375	-2.1209716796875	
172	0.6880000000000001	0.0	0.0	0.0	0.0	0.006	0.003	0.003	0.006	9.868899243164062	0.5039794494628906	0.05746083984375	2.643585205078125	-3.59344482421875	-0.743865966796875	9.783306533813477	0.411802685546875	0.17298106994628906	0.293731689453125	-4.7760009765625	-2.964019775390625	10.01075569152832	0.030526071166992186	-0.2346317626953125	3.681182861328125	-4.41741943359375	-2.29644775390625	
173	0.6920000000000001	0.0	0.0	0.0	0.0	0.003	0.003	0.003	0.003	9.879673150634765	0.5027823486328125	0.05746083984375	2.58636474609375	-3.63922119140625	-0.713348388671875	9.782109432983399	0.4100070343017578	0.16879121704101563	0.354766845703125	-4.76837158203125	-2.948760986328125	10.013748443603514	0.03232172241210937	-0.22864625854492185	3.6773681640625	-4.657745361328125	-2.0904541015625	
174	0.6960000000000001	0.0	0.0	0.0	0.0	0.003	0.003	0.003	0.003	9.868300692749022	0.5093664031982421	0.044292730712890624	2.620697021484375	-3.7384033203125	-0.896453857421875	9.776123928833007	0.4112041351318359	0.16041151123046873	0.431060791015625	-4.730224609375	-2.826690673828125	10.01733974609375	0.04249707946777344	-0.21607669982910155	3.597259521484375	-4.627227783203125	-2.124786376953125	
175	0.7000000000000001	0.0	0.0	0.0	0.0	0.0	0.006	0.003	0.003	9.861716638183593	0.5123591552734374	0.04608838195800781	2.61688232421875	-3.662109375	-1.01470947265625	9.785102185058593	0.40761283264160153	0.1592144104003906	0.377655029296875	-5.0506591796875	-2.811431884765625	10.014945544433592	0.03651157531738281	-0.2262520568847656	3.6163330078125	-4.5318603515625	-1.911163330078125	
176	0.704	0.0	0.0	0.0	0.0	0.006	0.003	0.003	0.003	9.87009634399414	0.5087678527832031	0.047285482788085934	2.593994140625	-3.566741943359375	-0.8087158203125	9.780912332153319	0.40402153015136716	0.15741875915527342	0.1983642578125	-4.94384765625	-2.93731689453125	10.01075569152832	0.031124621582031248	-0.23702596435546874	3.513336181640625	-4.489898681640625	-2.00653076171875	
177	0.708	0.0	0.0	0.0	0.0	0.009000000000000001	0.003	0.003	0.006	9.872490545654296	0.5147533569335937	0.05027823486328125	2.67791748046875	-3.692626953125	-0.84686279296875	9.78629928588867	0.4082113830566406	0.16519991455078123	0.6561279296875	-5.016326904296875	-2.92205810546875	10.016142645263672	0.04369418029785156	-0.2292448089599609	3.582000732421875	-4.5928955078125	-2.25830078125	
178	0.712	0.0	0.0	0.0	0.0	0.006	0.003	0.003	0.006	9.874884747314452	0.5135562561035156	0.054468087768554684	2.689361572265625	-3.665924072265625	-0.873565673828125	9.781510882568359	0.4070142822265625	0.15322890625	0.08392333984375	-4.8980712890625	-2.76947021484375	10.014346994018554	0.04189852905273437	-0.22026655273437498	3.59344482421875	-4.489898681640625	-2.010345458984375	
179	0.716	0.0	0.0	0.0	0.0	0.003	0.003	0.003	0.003	9.873687646484374	0.5159504577636719	0.04369418029785156	2.681732177734375	-3.570556640625	-0.8087158203125	9.782707983398437	0.40581718139648437	0.15442600708007811	0.55694580078125	-4.61578369140625	-2.933502197265625	10.01075569152832	0.0383072265625	-0.23104046020507812	3.82232666015625	-4.61578369140625	-2.12860107421875	
180	0.72	0.0	0.0	0.0	0.0	0.0	0.003	0.006	0.003	9.873089096069336	0.5093664031982421	0.04908113403320312	2.666473388671875	-3.749847412109375	-0.7476806640625	9.785700735473633	0.4100070343017578	0.15861585998535155	0.217437744140625	-4.924774169921875	-2.87628173828125	10.01015714111328	0.03890577697753906	-0.23822306518554687	3.475189208984375	-4.619598388671875	-2.00653076171875	
181	0.724	0.0	0.0	0.0	0.0	0.006	0.003	0.003	0.003	9.881468801879882	0.5207388610839844	0.05327098693847656	2.6397705078125	-3.505706787109375	-0.92315673828125	9.785700735473633	0.40761283264160153	0.15382745666503905	0.25177001953125	-5.146026611328125	-2.83050537109375	10.008361489868163	0.031124621582031248	-0.239420166015625	3.82232666015625	-4.69207763671875	-1.9989013671875	
182	0.728	0.0	0.0	0.0	0.0	0.003	0.003	0.003	0.009000000000000001	9.883264453125	0.5135562561035156	0.04668693237304687	2.521514892578125	-3.993988037109375	-0.67138671875	9.791087689208984	0.41419688720703124	0.16340426330566404	0.270843505859375	-4.940032958984375	-2.704620361328125	10.00417163696289	0.03591302490234375	-0.229843359375	3.7689208984375	-4.398345947265625	-1.956939697265625	
183	0.732	0.0	0.0	0.0	0.0	0.003	0.003	0.003	0.003	9.879074600219726	0.5153519073486328	0.0526724365234375	2.529144287109375	-3.7689208984375	-0.576019287109375	9.776722479248047	0.40462008056640625	0.16280571289062498	0.42724609375	-4.772186279296875	-3.093719482421875	10.011952792358398	0.037110125732421874	-0.229843359375	3.4942626953125	-4.550933837890625	-2.03704833984375	
184	0.736	0.0	0.0	0.0	0.0	0.003	0.003	0.006	0.006	9.881468801879882	0.5111620544433594	0.06284779357910156	2.597808837890625	-3.80706787109375	-0.89263916015625	9.785102185058593	0.4159925384521484	0.15741875915527342	0.270843505859375	-4.75311279296875	-2.864837646484375	10.014945544433592	0.032920272827148434	-0.22206220397949217	3.627777099609375	-4.53948974609375	-2.178192138671875	
185	0.74	0.0	0.0	0.0	0.0	0.006	0.006	0.003	0.003	9.867702142333984	0.507570751953125	0.05686228942871093	2.5787353515625	-3.74603271484375	-0.87738037109375	9.78629928588867	0.40282442932128903	0.1640028137207031	0.41961669921875	-4.8065185546875	-2.880096435546875	10.02332525024414	0.03411737365722656	-0.229843359375	3.509521484375	-4.52423095703125	-2.048492431640625	
186	0.744	0.0	0.0	0.0	0.0	0.006	0.006	0.003	0.006	9.87009634399414	0.5033808990478515	0.04548983154296875	2.7923583984375	-3.421783447265625	-0.698089599609375	9.78629928588867	0.4064157318115234	0.16041151123046873	0.28228759765625	-4.985809326171875	-2.83050537109375	10.00955859069824	0.028131869506835935	-0.23642741394042968	3.4637451171875	-4.53948974609375	-2.239227294921875	
187	0.748	0.0	0.0	0.0	0.0	0.003	0.003	0.006	0.003	9.868899243164062	0.5111620544433594	0.051475335693359374	2.613067626953125	-3.520965576171875	-0.66375732421875	9.785102185058593	0.4070142822265625	0.15981296081542967	0.377655029296875	-4.8828125	-2.76947021484375	10.013748443603514	0.040102877807617184	-0.24181436767578124	3.51715087890625	-4.703521728515625	-1.949310302734375	
188	0.752	0.0	0.0	0.0	0.0	0.003	0.006	0.003	0.0	9.875483297729492	0.5141548065185546	0.044292730712890624	2.38800048828125	-3.528594970703125	-0.873565673828125	9.783905084228515	0.40880993347167965	0.15502455749511718	0.43487548828125	-4.901885986328125	-3.08990478515625	10.008960040283203	0.031124621582031248	-0.23523031311035156	3.620147705078125	-4.52423095703125	-1.99127197265625	
189	0.756	0.0	0.0	0.0	0.0	0.003	0.003	0.003	0.006	9.867702142333984	0.5123591552734374	0.0526724365234375	2.735137939453125	-3.787994384765625	-0.797271728515625	9.776722479248047	0.412401235961914	0.16280571289062498	0.316619873046875	-4.573822021484375	-2.7923583984375	10.01015714111328	0.025139117431640625	-0.22744915771484372	3.63922119140625	-4.650115966796875	-2.1820068359375	
190	0.76	0.0	0.0	0.0	0.0	0.006	0.006	0.003	0.003	9.880870251464843	0.5105635040283203	0.05087678527832031	2.483367919921875	-3.6773681640625	-0.843048095703125	9.78031378173828	0.41419688720703124	0.1640028137207031	0.03814697265625	-4.8065185546875	-2.674102783203125	10.006565838623047	0.03172317199707031	-0.2328361114501953	3.444671630859375	-4.5623779296875	-2.2125244140625	
191	0.764	0.0	0.0	0.0	0.0	0.006	0.003	0.006	0.009000000000000001	9.87608184814453	0.5147533569335937	0.0526724365234375	2.685546875	-3.6163330078125	-0.835418701171875	9.783905084228515	0.40462008056640625	0.15083470458984374	0.4730224609375	-4.985809326171875	-2.9754638671875	10.013149893188476	0.03950432739257812	-0.23642741394042968	3.726959228515625	-4.7760009765625	-2.20489501953125	
192	0.768	0.0	0.0	0.0	0.0	0.009000000000000001	0.003	0.003	0.006	9.87727894897461	0.5147533569335937	0.05386953735351562	2.62451171875	-3.665924072265625	-0.873565673828125	9.78629928588867	0.4010287780761719	0.14484920043945312	0.4119873046875	-4.8980712890625	-2.8533935546875	10.011354241943359	0.04548983154296875	-0.229843359375	3.6773681640625	-4.421234130859375	-2.1209716796875	
193	0.772	0.0	0.0	0.0	0.0	0.003	0.006	0.006	0.006	9.862315188598632	0.5129577056884765	0.040102877807617184	2.765655517578125	-3.658294677734375	-0.92315673828125	9.782707983398437	0.39923312683105466	0.15682020874023436	0.18310546875	-5.008697509765625	-2.8839111328125	10.011354241943359	0.04369418029785156	-0.22266075439453123	3.57818603515625	-4.50897216796875	-2.26593017578125	
194	0.776	0.0	0.0	0.0	0.0	0.003	0.003	0.003	0.003	9.871891995239258	0.5105635040283203	0.04848258361816406	2.666473388671875	-3.5858154296875	-0.66375732421875	9.783905084228515	0.4052186309814453	0.15023615417480468	0.29754638671875	-5.046844482421875	-2.87628173828125	10.016142645263672	0.037708676147460936	-0.22086510314941404	3.45611572265625	-4.489898681640625	-2.017974853515625	
195	0.78	0.0	0.0	0.0	0.0	0.006	0.006	0.006	0.006	9.861118087768554	0.5129577056884765	0.06404489440917968	2.31170654296875	-3.681182861328125	-0.835418701171875	9.787496386718749	0.4070142822265625	0.16280571289062498	0.308990478515625	-4.962921142578125	-2.81524658203125	10.01733974609375	0.037708676147460936	-0.22685060729980466	3.6773681640625	-4.680633544921875	-2.140045166015625	
196	0.784	0.0	0.0	0.0	0.0	0.003	0.003	0.006	0.003	9.864709390258788	0.5117606048583984	0.0652419952392578	2.5634765625	-3.90625	-0.83160400390625	9.781510882568359	0.4070142822265625	0.1580173095703125	0.274658203125	-4.8370361328125	-2.910614013671875	10.011952792358398	0.040102877807617184	-0.21308394775390624	3.56292724609375	-4.734039306640625	-2.185821533203125	
197	0.788	0.0	0.0	0.0	0.0	0.006	0.003	0.006	0.003	9.87009634399414	0.5129577056884765	0.06105214233398437	2.6702880859375	-3.4027099609375	-0.77056884765625	9.785102185058593	0.39983167724609375	0.16041151123046873	0.20599365234375	-4.82940673828125	-2.8839111328125	10.012551342773437	0.03591302490234375	-0.2316390106201172	3.452301025390625	-4.50897216796875	-2.166748046875	
198	0.792	0.0	0.0	0.0	0.0	0.003	0.003	0.003	0.003	9.87009634399414	0.5111620544433594	0.05566518859863281	2.7313232421875	-3.6468505859375	-0.8697509765625	9.78031378173828	0.41060558471679687	0.16280571289062498	0.377655029296875	-4.993438720703125	-2.933502197265625	10.008361489868163	0.034715924072265626	-0.24660277099609373	3.47900390625	-4.66156005859375	-2.1209716796875	
199	0.796	0.0	0.0	0.0	0.0	0.006	0.006	0.003	0.006	9.873687646484374	0.5189432098388671	0.05985504150390625	2.60162353515625	-3.452301025390625	-0.732421875	9.784503634643555	0.411802685546875	0.16819266662597654	0.484466552734375	-4.974365234375	-2.87628173828125	10.001178884887695	0.03531447448730469	-0.24181436767578124	3.88336181640625	-4.44793701171875	-2.1514892578125	
200	0.8	0.0	0.0	0.0	0.0	0.003	0.003	0.003	0.006	9.86351228942871	0.5015852478027344	0.06823474731445311	2.552032470703125	-3.871917724609375	-0.72479248046875	9.781510882568359	0.4100070343017578	0.15981296081542967	0.26702880859375	-4.82940673828125	-2.67791748046875	10.006565838623047	0.032920272827148434	-0.24061726684570311	3.597259521484375	-4.638671875	-2.193450927734375	
201	0.804	0.0	0.0	0.0	0.0	0.003	0.006	0.003	0.003	9.86291373901367	0.5141548065185546	0.047884033203124995	2.521514892578125	-3.7384033203125	-0.701904296875	9.785102185058593	0.4064157318115234	0.15263035583496093	0.370025634765625	-4.711151123046875	-3.002166748046875	10.012551342773437	0.028131869506835935	-0.24121581726074218	3.57818603515625	-4.467010498046875	-2.0904541015625	
202	0.808	0.0	0.0	0.0	0.0	0.003	0.003	0.003	0.003	9.858723886108399	0.507570751953125	0.05386953735351562	2.651214599609375	-3.57818603515625	-0.66375732421875	9.782707983398437	0.4129997863769531	0.1640028137207031	0.42724609375	-4.974365234375	-2.872467041015625	10.01015714111328	0.03232172241210937	-0.239420166015625	3.8299560546875	-4.802703857421875	-2.0599365234375	
203	0.812	0.0	0.0	0.0	0.0	0.003	0.003	0.003	0.003	9.858125335693359	0.5159504577636719	0.06404489440917968	2.54058837890625	-3.459930419921875	-0.759124755859375	9.785102185058593	0.40761283264160153	0.15562310791015624	0.499725341796875	-4.764556884765625	-2.819061279296875	10.01733974609375	0.02633621826171875	-0.24301146850585936	3.627777099609375	-4.550933837890625	-2.00653076171875	
204	0.8160000000000001	0.0	0.0	0.0	0.0	0.003	0.003	0.003	0.003	9.862315188598632	0.5069722015380859	0.054468087768554684	2.651214599609375	-3.688812255859375	-0.7781982421875	9.784503634643555	0.4100070343017578	0.15502455749511718	0.45013427734375	-5.18798828125	-2.86102294921875	10.020332498168944	0.040701428222656245	-0.24181436767578124	3.620147705078125	-4.47845458984375	-1.953125	
205	0.8200000000000001	0.0	0.0	0.0	0.0	0.003	0.006	0.006	0.006	9.868899243164062	0.5111620544433594	0.058657940673828124	2.574920654296875	-3.292083740234375	-0.79345703125	9.782707983398437	0.4064157318115234	0.15861585998535155	0.217437744140625	-4.917144775390625	-2.956390380859375	10.002974536132811	0.03172317199707031	-0.23523031311035156	3.780364990234375	-4.49371337890625	-2.117156982421875	
206	0.8240000000000001	0.0	0.0	0.0	0.0	0.006	0.003	0.006	0.006	9.864709390258788	0.5069722015380859	0.05686228942871093	2.7008056640625	-3.85284423828125	-0.652313232421875	9.782109432983399	0.40282442932128903	0.15442600708007811	0.324249267578125	-4.7149658203125	-2.941131591796875	10.013748443603514	0.033518823242187495	-0.23044190979003906	3.490447998046875	-4.81414794921875	-2.34222412109375	
207	0.8280000000000001	0.0	0.0	0.0	0.0	0.006	0.003	0.003	0.006	9.867702142333984	0.5027823486328125	0.06105214233398437	2.552032470703125	-3.6468505859375	-0.774383544921875	9.785102185058593	0.40761283264160153	0.1562216583251953	0.3814697265625	-4.90570068359375	-2.7008056640625	10.014945544433592	0.04189852905273437	-0.22206220397949217	3.60107421875	-4.8065185546875	-2.162933349609375	
208	0.8320000000000001	0.0	0.0	0.0	0.0	0.009000000000000001	0.006	0.003	0.006	9.87009634399414	0.5123591552734374	0.06584054565429687	2.655029296875	-3.44085693359375	-0.84686279296875	9.785102185058593	0.40462008056640625	0.1610100616455078	0.28228759765625	-4.886627197265625	-2.765655517578125	10.01015714111328	0.03950432739257812	-0.22505495605468748	3.597259521484375	-4.53948974609375	-1.987457275390625	
209	0.836	0.0	0.0	0.0	0.0	0.0	0.006	0.003	0.003	9.87069489440918	0.5117606048583984	0.05746083984375	2.559661865234375	-3.44085693359375	-0.774383544921875	9.777321029663085	0.4064157318115234	0.1592144104003906	0.38909912109375	-4.901885986328125	-2.895355224609375	10.019733947753906	0.040701428222656245	-0.2292448089599609	3.3416748046875	-4.57763671875	-1.9378662109375	
210	0.84	0.0	0.0	0.0	0.0	0.006	0.003	0.006	0.003	9.875483297729492	0.5189432098388671	0.051475335693359374	2.47955322265625	-3.6468505859375	-0.949859619140625	9.78689783630371	0.4112041351318359	0.1610100616455078	0.18310546875	-4.756927490234375	-2.910614013671875	10.008361489868163	0.03950432739257812	-0.22026655273437498	3.79180908203125	-4.608154296875	-2.101898193359375	
211	0.844	0.0	0.0	0.0	0.0	0.003	0.003	0.006	0.006	9.87009634399414	0.5117606048583984	0.061650692749023434	2.712249755859375	-3.47900390625	-0.843048095703125	9.785102185058593	0.4064157318115234	0.16340426330566404	0.614166259765625	-4.8980712890625	-2.86865234375	10.005967288208007	0.0383072265625	-0.21906945190429686	3.6163330078125	-4.581451416015625	-2.170562744140625	
212	0.848	0.0	0.0	0.0	0.0	0.006	0.006	0.003	0.003	9.86291373901367	0.5087678527832031	0.05626373901367187	2.5482177734375	-3.566741943359375	-0.96893310546875	9.783905084228515	0.40581718139648437	0.14784195251464843	0.3814697265625	-4.756927490234375	-2.8839111328125	10.013748443603514	0.040102877807617184	-0.22445640563964842	3.932952880859375	-4.69207763671875	-2.223968505859375	
213	0.852	0.0	0.0	0.0	0.0	0.003	0.003	0.003	0.003	9.86351228942871	0.5051765502929687	0.05327098693847656	2.52532958984375	-3.66973876953125	-0.69427490234375	9.776722479248047	0.40402153015136716	0.15083470458984374	0.2288818359375	-4.764556884765625	-2.864837646484375	10.013748443603514	0.03232172241210937	-0.22505495605468748	3.528594970703125	-4.5013427734375	-2.01416015625	
214	0.856	0.0	0.0	0.0	0.0	0.006	0.003	0.003	0.006	9.865307940673828	0.5051765502929687	0.047884033203124995	2.674102783203125	-3.50189208984375	-0.78582763671875	9.777919580078125	0.40402153015136716	0.1580173095703125	0.232696533203125	-4.550933837890625	-2.666473388671875	10.006565838623047	0.032920272827148434	-0.23044190979003906	3.528594970703125	-4.46319580078125	-2.025604248046875	
215	0.86	0.0	0.0	0.0	0.0	0.0	0.003	0.003	0.003	9.871293444824218	0.5165490081787109	0.04249707946777344	2.780914306640625	-3.810882568359375	-0.67901611328125	9.791686239624022	0.40761283264160153	0.16639701538085935	0.415802001953125	-4.856109619140625	-2.8228759765625	10.01015714111328	0.0383072265625	-0.2232593048095703	3.719329833984375	-4.528045654296875	-2.08282470703125	
216	0.864	0.0	0.0	0.0	0.0	0.009000000000000001	0.006	0.003	0.006	9.867702142333984	0.5141548065185546	0.04548983154296875	2.716064453125	-3.47900390625	-0.804901123046875	9.785102185058593	0.39743747558593745	0.16519991455078123	0.324249267578125	-4.95147705078125	-2.9144287109375	10.014945544433592	0.0430956298828125	-0.23523031311035156	3.879547119140625	-4.69207763671875	-2.05230712890625	
217	0.868	0.0	0.0	0.0	0.0	0.006	0.003	0.003	0.003	9.8694977935791	0.5141548065185546	0.05027823486328125	2.513885498046875	-3.72314453125	-0.67138671875	9.785102185058593	0.40222587890625	0.15981296081542967	0.247955322265625	-5.01251220703125	-2.87628173828125	10.007164389038085	0.031124621582031248	-0.22685060729980466	3.765106201171875	-4.512786865234375	-2.101898193359375	
218	0.872	0.0	0.0	0.0	0.0	0.009000000000000001	0.006	0.006	0.003	9.864709390258788	0.5135562561035156	0.04848258361816406	2.46429443359375	-3.574371337890625	-0.74005126953125	9.785102185058593	0.40581718139648437	0.16220716247558592	0.2593994140625	-4.703521728515625	-2.75421142578125	10.00955859069824	0.037110125732421874	-0.22744915771484372	3.582000732421875	-4.61578369140625	-2.31170654296875	
219	0.876	0.0	0.0	0.0	0.0	0.003	0.003	0.003	0.003	9.868899243164062	0.5105635040283203	0.059256491088867186	2.613067626953125	-3.597259521484375	-0.858306884765625	9.782707983398437	0.4064157318115234	0.1640028137207031	0.152587890625	-4.901885986328125	-2.941131591796875	9.999383233642577	0.040701428222656245	-0.2328361114501953	3.620147705078125	-4.66156005859375	-2.094268798828125	
220	0.88	0.0	0.0	0.0	0.0	0.003	0.003	0.003	0.003	9.873089096069336	0.5135562561035156	0.05566518859863281	2.61688232421875	-3.47900390625	-0.8544921875	9.782707983398437	0.4064157318115234	0.15322890625	0.35858154296875	-4.825592041015625	-2.758026123046875	10.001777435302733	0.037708676147460936	-0.23044190979003906	3.66973876953125	-4.703521728515625	-2.094268798828125	
221	0.884	0.0	0.0	0.0	0.0	0.0	0.003	0.006	0.003	9.867702142333984	0.5159504577636719	0.058657940673828124	2.460479736328125	-3.5858154296875	-0.827789306640625	9.783905084228515	0.40940848388671874	0.16160861206054686	0.446319580078125	-4.749298095703125	-2.96783447265625	10.013748443603514	0.04369418029785156	-0.22565350646972654	3.6468505859375	-4.749298095703125	-2.044677734375	
222	0.888	0.0	0.0	0.0	0.0	0.003	0.003	0.003	0.003	9.877877499389648	0.5165490081787109	0.054468087768554684	2.796173095703125	-3.71551513671875	-0.9765625	9.783905084228515	0.40581718139648437	0.15981296081542967	0.244140625	-4.85992431640625	-2.7008056640625	10.008960040283203	0.040701428222656245	-0.21787235107421873	3.520965576171875	-4.489898681640625	-1.987457275390625	
223	0.892	0.0	0.0	0.0	0.0	0.003	0.006	0.003	0.009000000000000001	9.874884747314452	0.5237316131591797	0.05327098693847656	2.62451171875	-3.597259521484375	-0.70953369140625	9.788693487548828	0.40462008056640625	0.14903905334472656	0.415802001953125	-4.795074462890625	-2.918243408203125	10.005368737792969	0.030526071166992186	-0.229843359375	3.345489501953125	-4.63104248046875	-2.216339111328125	
224	0.896	0.0	0.0	0.0	0.0	0.003	0.003	0.006	0.006	9.87069489440918	0.5099649536132812	0.04967968444824218	2.4261474609375	-3.6468505859375	-0.6103515625	9.789890588378906	0.4112041351318359	0.16998831787109375	0.507354736328125	-5.146026611328125	-3.0975341796875	10.01015714111328	0.025737667846679687	-0.22565350646972654	3.749847412109375	-4.45556640625	-2.14385986328125	
225	0.9	0.0	0.0	0.0	0.0	0.006	0.003	0.003	0.003	9.868300692749022	0.5147533569335937	0.055066638183593745	2.6702880859375	-3.719329833984375	-0.8087158203125	9.784503634643555	0.4070142822265625	0.15083470458984374	0.1220703125	-4.63104248046875	-2.716064453125	10.01733974609375	0.03651157531738281	-0.2214636535644531	3.60870361328125	-4.6539306640625	-2.300262451171875	
226	0.904	0.0	0.0	0.0	0.0	0.003	0.003	0.003	0.006	9.864709390258788	0.5159504577636719	0.05327098693847656	2.658843994140625	-3.528594970703125	-0.885009765625	9.782707983398437	0.4100070343017578	0.15263035583496093	0.61798095703125	-4.535675048828125	-2.902984619140625	10.011354241943359	0.03950432739257812	-0.21487959899902342	3.711700439453125	-4.459381103515625	-2.09808349609375	
227	0.908	0.0	0.0	0.0	0.0	0.003	0.003	0.006	0.003	9.879074600219726	0.5207388610839844	0.04668693237304687	2.78472900390625	-3.7384033203125	-0.823974609375	9.785102185058593	0.40880993347167965	0.15502455749511718	0.45013427734375	-4.8370361328125	-2.857208251953125	10.004770187377929	0.028730419921875	-0.22086510314941404	3.871917724609375	-4.589080810546875	-2.25067138671875	
228	0.912	0.0	0.0	0.0	0.0	0.003	0.003	0.006	0.003	9.864709390258788	0.51714755859375	0.04189852905273437	2.620697021484375	-3.63922119140625	-0.667572021484375	9.785102185058593	0.40222587890625	0.16280571289062498	0.1678466796875	-4.84466552734375	-2.86102294921875	10.006565838623047	0.03651157531738281	-0.2292448089599609	3.6163330078125	-4.840850830078125	-2.02178955078125	
229	0.916	0.0	0.0	0.0	0.0	0.006	0.003	0.003	0.0	9.86351228942871	0.5159504577636719	0.04967968444824218	2.777099609375	-3.612518310546875	-0.926971435546875	9.783306533813477	0.4082113830566406	0.15861585998535155	0.423431396484375	-4.78363037109375	-2.9754638671875	9.999383233642577	0.03890577697753906	-0.23582886352539062	3.643035888671875	-4.58526611328125	-2.06756591796875	
230	0.92	0.0	0.0	0.0	0.0	0.0	0.006	0.003	0.009000000000000001	9.879673150634765	0.5165490081787109	0.055066638183593745	2.7618408203125	-3.60107421875	-0.759124755859375	9.781510882568359	0.40402153015136716	0.15981296081542967	0.354766845703125	-4.985809326171875	-2.971649169921875	10.01075569152832	0.03591302490234375	-0.2346317626953125	3.498077392578125	-4.69970703125	-2.105712890625	
231	0.924	0.0	0.0	0.0	0.0	0.003	0.003	0.003	0.006	9.868300692749022	0.5069722015380859	0.0526724365234375	2.7313232421875	-3.5858154296875	-0.766754150390625	9.781510882568359	0.4082113830566406	0.15981296081542967	0.48065185546875	-4.82177734375	-3.1280517578125	10.01015714111328	0.04249707946777344	-0.22206220397949217	3.570556640625	-4.791259765625	-2.071380615234375	
232	0.928	0.0	0.0	0.0	0.0	0.003	0.006	0.003	0.006	9.87069489440918	0.5141548065185546	0.047285482788085934	2.6702880859375	-3.631591796875	-0.782012939453125	9.783905084228515	0.4052186309814453	0.16220716247558592	0.347137451171875	-5.01251220703125	-2.933502197265625	10.013748443603514	0.040102877807617184	-0.22565350646972654	3.582000732421875	-4.49371337890625	-2.32696533203125	
233	0.932	0.0	0.0	0.0	0.0	0.006	0.003	0.003	0.009000000000000001	9.87069489440918	0.5123591552734374	0.05626373901367187	2.7008056640625	-3.814697265625	-0.865936279296875	9.782707983398437	0.4100070343017578	0.16340426330566404	0.4425048828125	-4.886627197265625	-2.880096435546875	10.014945544433592	0.040701428222656245	-0.22385785522460935	3.795623779296875	-4.57000732421875	-2.056121826171875	
234	0.936	0.0	0.0	0.0	0.0	0.006	0.006	0.003	0.003	9.868899243164062	0.5159504577636719	0.05985504150390625	2.704620361328125	-3.513336181640625	-0.77056884765625	9.785102185058593	0.40581718139648437	0.1640028137207031	0.3662109375	-4.711151123046875	-2.933502197265625	10.007164389038085	0.04608838195800781	-0.22266075439453123	3.726959228515625	-4.558563232421875	-2.147674560546875	
235	0.9400000000000001	0.0	0.0	0.0	0.0	0.006	0.003	0.003	0.006	9.867702142333984	0.5129577056884765	0.04848258361816406	2.712249755859375	-3.520965576171875	-0.865936279296875	9.785102185058593	0.40940848388671874	0.15981296081542967	0.30517578125	-4.894256591796875	-2.8228759765625	10.020931048583984	0.05027823486328125	-0.22685060729980466	3.60870361328125	-4.512786865234375	-1.964569091796875	
236	0.9440000000000001	0.0	0.0	0.0	0.0	0.003	0.003	0.003	0.006	9.865906491088866	0.5129577056884765	0.05027823486328125	2.635955810546875	-3.41796875	-0.881195068359375	9.787496386718749	0.40402153015136716	0.1693897674560547	0.54168701171875	-5.157470703125	-2.918243408203125	10.014346994018554	0.030526071166992186	-0.22026655273437498	3.543853759765625	-4.581451416015625	-2.239227294921875	
237	0.9480000000000001	0.0	0.0	0.0	0.0	0.003	0.006	0.003	0.006	9.881468801879882	0.507570751953125	0.04967968444824218	2.582550048828125	-3.513336181640625	-0.77056884765625	9.787496386718749	0.40462008056640625	0.14903905334472656	0.2288818359375	-4.85992431640625	-2.910614013671875	10.006565838623047	0.033518823242187495	-0.22864625854492185	3.62396240234375	-4.57763671875	-2.101898193359375	
238	0.9520000000000001	0.0	0.0	0.0	0.0	0.003	0.006	0.003	0.006	9.865307940673828	0.5117606048583984	0.04608838195800781	2.590179443359375	-3.696441650390625	-0.980377197265625	9.783905084228515	0.41060558471679687	0.15023615417480468	0.28228759765625	-4.711151123046875	-2.86865234375	10.014945544433592	0.028730419921875	-0.23403321228027343	3.662109375	-4.550933837890625	-2.208709716796875	
239	0.9560000000000001	0.0	0.0	0.0	0.0	0.006	0.003	0.003	0.003	9.87069489440918	0.5129577056884765	0.052073886108398436	2.532958984375	-3.5400390625	-0.881195068359375	9.78629928588867	0.40880993347167965	0.14963760375976562	0.2899169921875	-4.94384765625	-2.902984619140625	10.025120901489258	0.03651157531738281	-0.22445640563964842	3.47137451171875	-4.482269287109375	-1.972198486328125	
240	0.96	0.0	0.0	0.0	0.0	0.003	0.003	0.003	0.006	9.861716638183593	0.5123591552734374	0.06045359191894531	2.574920654296875	-3.749847412109375	-0.766754150390625	9.772532626342773	0.40880993347167965	0.15562310791015624	0.274658203125	-4.5013427734375	-2.689361572265625	10.020931048583984	0.03950432739257812	-0.22206220397949217	3.406524658203125	-4.589080810546875	-2.040863037109375	
241	0.964	0.0	0.0	0.0	0.0	0.006	0.003	0.003	0.003	9.866505041503906	0.5147533569335937	0.05985504150390625	2.574920654296875	-3.536224365234375	-0.789642333984375	9.777919580078125	0.4100070343017578	0.15442600708007811	0.35858154296875	-4.63104248046875	-2.90679931640625	10.022726699829102	0.04189852905273437	-0.22206220397949217	3.574371337890625	-4.688262939453125	-2.117156982421875	
242	0.968	0.0	0.0	0.0	0.0	0.006	0.003	0.003	0.003	9.87009634399414	0.5159504577636719	0.04967968444824218	2.61688232421875	-3.604888916015625	-0.6256103515625	9.781510882568359	0.41898529052734373	0.15861585998535155	0.3204345703125	-4.9591064453125	-2.86102294921875	10.005368737792969	0.03950432739257812	-0.2136824981689453	3.543853759765625	-4.550933837890625	-2.140045166015625	
243	0.972	0.0	0.0	0.0	0.0	0.003	0.003	0.003	0.003	9.87608184814453	0.5165490081787109	0.05566518859863281	2.32696533203125	-3.48663330078125	-0.7781982421875	9.780912332153319	0.4082113830566406	0.16041151123046873	0.331878662109375	-5.1116943359375	-2.696990966796875	10.007762939453125	0.03411737365722656	-0.2280477081298828	3.6163330078125	-4.512786865234375	-2.231597900390625	
244	0.976	0.0	0.0	0.0	0.0	0.009000000000000001	0.003	0.006	0.006	9.866505041503906	0.5105635040283203	0.04189852905273437	2.613067626953125	-3.387451171875	-0.782012939453125	9.779116680908203	0.4112041351318359	0.16220716247558592	0.05340576171875	-4.8370361328125	-2.620697021484375	10.01015714111328	0.03531447448730469	-0.24660277099609373	3.658294677734375	-4.695892333984375	-2.124786376953125	
245	0.98	0.0	0.0	0.0	0.0	0.006	0.006	0.006	0.003	9.873687646484374	0.5129577056884765	0.054468087768554684	2.471923828125	-3.559112548828125	-0.72479248046875	9.78031378173828	0.4112041351318359	0.16280571289062498	0.3814697265625	-4.9591064453125	-2.819061279296875	10.014945544433592	0.032920272827148434	-0.24001871643066405	3.5552978515625	-4.589080810546875	-2.292633056640625	
246	0.984	0.0	0.0	0.0	0.0	0.003	0.006	0.006	0.003	9.868300692749022	0.5123591552734374	0.047285482788085934	2.758026123046875	-3.509521484375	-0.827789306640625	9.781510882568359	0.4070142822265625	0.16340426330566404	0.331878662109375	-4.817962646484375	-2.960205078125	10.011354241943359	0.03890577697753906	-0.2316390106201172	3.719329833984375	-4.627227783203125	-2.03704833984375	
247	0.988	0.0	0.0	0.0	0.0	0.003	0.003	0.003	0.003	9.871293444824218	0.51714755859375	0.04848258361816406	2.5482177734375	-3.719329833984375	-0.89263916015625	9.775525378417969	0.40940848388671874	0.16759411621093748	0.48065185546875	-4.772186279296875	-2.8533935546875	10.006565838623047	0.040701428222656245	-0.24301146850585936	3.513336181640625	-4.764556884765625	-2.079010009765625	
248	0.992	0.0	0.0	0.0	0.0	0.006	0.006	0.003	0.006	9.874286196899414	0.517746109008789	0.047884033203124995	2.5787353515625	-3.459930419921875	-0.873565673828125	9.785102185058593	0.4064157318115234	0.15502455749511718	0.461578369140625	-4.7760009765625	-2.780914306640625	10.004770187377929	0.03651157531738281	-0.2346317626953125	3.7078857421875	-4.634857177734375	-1.972198486328125	
249	0.996	0.0	0.0	0.0	0.0	0.006	0.006	0.006	0.006	9.873089096069336	0.5069722015380859	0.055066638183593745	2.62451171875	-3.337860107421875	-0.8392333984375	9.781510882568359	0.41359833679199215	0.1514332550048828	0.171661376953125	-4.779815673828125	-2.811431884765625	10.007762939453125	0.033518823242187495	-0.2316390106201172	3.6773681640625	-4.596710205078125	-2.101898193359375	
250	1.0	0.0	0.0	0.0	0.0	0.003	0.006	0.003	0.003	9.871293444824218	0.5207388610839844	0.04249707946777344	2.727508544921875	-3.5858154296875	-0.6866455078125	9.783905084228515	0.41419688720703124	0.1592144104003906	0.286102294921875	-5.04302978515625	-2.86865234375	10.002375985717773	0.03411737365722656	-0.23822306518554687	3.7078857421875	-4.383087158203125	-1.93023681640625	
251	1.004	0.0	0.0	0.0	0.0	0.003	0.003	0.003	0.003	9.875483297729492	0.5201403106689453	0.05087678527832031	2.635955810546875	-3.650665283203125	-0.873565673828125	9.782707983398437	0.41838674011230464	0.1640028137207031	0.4425048828125	-5.67626953125	-2.696990966796875	10.00417163696289	0.028131869506835935	-0.23642741394042968	3.7384033203125	-4.53948974609375	-2.201080322265625	
252	1.008	0.0	0.0	0.0	0.0	0.003	0.006	0.003	0.003	9.8694977935791	0.51714755859375	0.05327098693847656	2.40325927734375	-3.65447998046875	-0.8697509765625	9.779116680908203	0.4129997863769531	0.15861585998535155	0.18310546875	-5.016326904296875	-2.864837646484375	10.00955859069824	0.03232172241210937	-0.22565350646972654	3.604888916015625	-4.60052490234375	-2.132415771484375	
253	1.012	0.0	0.0	0.0	0.0	0.003	0.003	0.003	0.003	9.872490545654296	0.5225345123291015	0.04967968444824218	2.635955810546875	-3.48663330078125	-0.9002685546875	9.782707983398437	0.41958384094238277	0.1610100616455078	0.38909912109375	-5.08880615234375	-2.8533935546875	10.012551342773437	0.04608838195800781	-0.22445640563964842	3.696441650390625	-4.619598388671875	-1.953125	
254	1.016	0.0	0.0	0.0	0.0	0.003	0.003	0.003	0.003	9.871293444824218	0.5243301635742187	0.04369418029785156	2.7008056640625	-3.753662109375	-0.96893310546875	9.780912332153319	0.41539398803710936	0.16280571289062498	0.3662109375	-5.069732666015625	-3.082275390625	10.006565838623047	0.04848258361816406	-0.22266075439453123	3.566741943359375	-4.528045654296875	-2.28118896484375	
255	1.02	0.0	0.0	0.0	0.0	0.009000000000000001	0.003	0.003	0.003	9.865307940673828	0.5105635040283203	0.05327098693847656	2.773284912109375	-3.70025634765625	-0.87738037109375	9.78629928588867	0.4147954376220703	0.1657984649658203	0.339508056640625	-4.909515380859375	-2.819061279296875	10.012551342773437	0.034715924072265626	-0.24001871643066405	3.620147705078125	-4.657745361328125	-1.987457275390625	
256	1.024	0.0	0.0	0.0	0.0	0.003	0.003	0.006	0.006	9.875483297729492	0.5201403106689453	0.03890577697753906	2.529144287109375	-3.589630126953125	-0.988006591796875	9.783905084228515	0.4100070343017578	0.15741875915527342	0.12969970703125	-5.168914794921875	-2.90679931640625	10.004770187377929	0.03890577697753906	-0.21906945190429686	3.6163330078125	-4.596710205078125	-1.934051513671875	
257	1.028	0.0	0.0	0.0	0.0	0.006	0.003	0.006	0.006	9.861716638183593	0.5153519073486328	0.04369418029785156	2.574920654296875	-3.780364990234375	-0.797271728515625	9.776722479248047	0.4159925384521484	0.16160861206054686	0.499725341796875	-4.85992431640625	-2.98309326171875	10.005967288208007	0.03651157531738281	-0.23223756103515625	3.665924072265625	-4.49371337890625	-2.044677734375	
258	1.032	0.0	0.0	0.0	0.0	0.003	0.006	0.003	0.006	9.868300692749022	0.5153519073486328	0.05566518859863281	2.6702880859375	-3.452301025390625	-0.659942626953125	9.776722479248047	0.40581718139648437	0.15741875915527342	0.29754638671875	-5.008697509765625	-2.735137939453125	10.015544094848632	0.034715924072265626	-0.2262520568847656	3.543853759765625	-4.665374755859375	-2.13623046875	
259	1.036	0.0	0.0	0.0	0.0	0.0	0.003	0.006	0.006	9.866505041503906	0.5039794494628906	0.05746083984375	2.758026123046875	-3.7841796875	-0.789642333984375	9.783905084228515	0.4064157318115234	0.15322890625	0.4730224609375	-4.8828125	-2.910614013671875	10.014945544433592	0.03591302490234375	-0.229843359375	3.7384033203125	-4.444122314453125	-2.14385986328125	
260	1.04	0.0	0.0	0.0	0.0	0.006	0.006	0.003	0.006	9.868300692749022	0.5105635040283203	0.054468087768554684	2.597808837890625	-3.566741943359375	-0.5950927734375	9.779116680908203	0.4070142822265625	0.16041151123046873	0.598907470703125	-4.87518310546875	-2.84576416015625	10.013149893188476	0.044891281127929686	-0.2154781494140625	3.536224365234375	-4.749298095703125	-2.08282470703125	
261	1.044	0.0	0.0	0.0	0.0	0.003	0.003	0.006	0.003	9.87608184814453	0.5159504577636719	0.058657940673828124	2.410888671875	-3.53240966796875	-0.690460205078125	9.778518130493163	0.4129997863769531	0.15442600708007811	0.461578369140625	-4.962921142578125	-2.8076171875	10.013748443603514	0.04249707946777344	-0.21487959899902342	3.597259521484375	-4.35638427734375	-1.995086669921875	
262	1.048	0.0	0.0	0.0	0.0	0.006	0.006	0.003	0.003	9.877877499389648	0.5135562561035156	0.059256491088867186	2.4871826171875	-3.57818603515625	-0.95367431640625	9.773729727172851	0.4213794921875	0.1610100616455078	0.469207763671875	-4.52423095703125	-2.8839111328125	10.01015714111328	0.03172317199707031	-0.22685060729980466	3.704071044921875	-4.352569580078125	-2.109527587890625	
263	1.052	0.0	0.0	0.0	0.0	0.006	0.006	0.003	0.006	9.878476049804688	0.5213374114990235	0.061650692749023434	2.67791748046875	-3.4332275390625	-0.78582763671875	9.783905084228515	0.4082113830566406	0.15502455749511718	0.202178955078125	-4.642486572265625	-2.788543701171875	10.014346994018554	0.032920272827148434	-0.2316390106201172	3.421783447265625	-4.5013427734375	-2.29644775390625	
264	1.056	0.0	0.0	0.0	0.0	0.003	0.003	0.003	0.006	9.87727894897461	0.5159504577636719	0.0526724365234375	2.696990966796875	-3.57818603515625	-0.75531005859375	9.783905084228515	0.40940848388671874	0.14903905334472656	0.2899169921875	-4.7760009765625	-2.7313232421875	10.018536846923828	0.034715924072265626	-0.23223756103515625	3.692626953125	-4.5318603515625	-2.01416015625	
265	1.06	0.0	0.0	0.0	0.0	0.003	0.006	0.003	0.006	9.885060104370117	0.5111620544433594	0.05626373901367187	2.60162353515625	-3.749847412109375	-0.95367431640625	9.779116680908203	0.4159925384521484	0.15741875915527342	0.2899169921875	-4.9285888671875	-2.933502197265625	10.014346994018554	0.04369418029785156	-0.23044190979003906	3.5552978515625	-4.44793701171875	-1.987457275390625	
266	1.064	0.0	0.0	0.0	0.0	0.006	0.003	0.003	0.003	9.87009634399414	0.507570751953125	0.054468087768554684	2.6702880859375	-3.51715087890625	-0.888824462890625	9.779715231323241	0.4147954376220703	0.15203180541992187	0.40435791015625	-4.98199462890625	-2.742767333984375	10.01075569152832	0.037708676147460936	-0.21428104858398436	3.6773681640625	-4.566192626953125	-2.0294189453125	
267	1.068	0.0	0.0	0.0	0.0	0.003	0.003	0.003	0.006	9.873687646484374	0.507570751953125	0.05027823486328125	2.43377685546875	-3.66973876953125	-0.70953369140625	9.783306533813477	0.4100070343017578	0.1580173095703125	0.446319580078125	-5.008697509765625	-2.857208251953125	9.999981784057617	0.037110125732421874	-0.21906945190429686	3.56292724609375	-4.665374755859375	-2.109527587890625	
268	1.072	0.0	0.0	0.0	0.0	0.006	0.006	0.003	0.006	9.868899243164062	0.5183446594238281	0.051475335693359374	2.628326416015625	-3.5400390625	-0.904083251953125	9.785102185058593	0.411802685546875	0.30406361083984373	0.324249267578125	-4.764556884765625	-2.819061279296875	10.00417163696289	0.034715924072265626	-0.229843359375	3.54766845703125	-4.63104248046875	-2.323150634765625	
269	1.076	0.0	0.0	0.0	0.0	0.003	0.003	0.003	0.003	9.878476049804688	0.5201403106689453	0.05087678527832031	2.74658203125	-3.60870361328125	-0.95367431640625	9.785102185058593	0.41419688720703124	0.1657984649658203	0.156402587890625	-4.825592041015625	-3.002166748046875	10.006565838623047	0.03950432739257812	-0.2184709014892578	3.841400146484375	-4.70733642578125	-2.1209716796875	
270	1.08	0.0	0.0	0.0	0.0	0.003	0.003	0.003	0.003	9.87069489440918	0.5165490081787109	0.06284779357910156	2.41851806640625	-3.62396240234375	-0.7781982421875	9.78629928588867	0.40761283264160153	0.15861585998535155	0.3509521484375	-4.85992431640625	-2.895355224609375	10.008960040283203	0.029328970336914062	-0.22266075439453123	3.520965576171875	-4.550933837890625	-2.162933349609375	
271	1.084	0.0	0.0	0.0	0.0	0.006	0.003	0.003	0.006	9.868899243164062	0.5117606048583984	0.06105214233398437	2.468109130859375	-3.71551513671875	-0.7781982421875	9.779715231323241	0.41539398803710936	0.16340426330566404	0.37384033203125	-4.75311279296875	-2.777099609375	10.008960040283203	0.028131869506835935	-0.22445640563964842	3.780364990234375	-4.57763671875	-2.079010009765625	
272	1.088	0.0	0.0	0.0	0.0	0.006	0.006	0.006	0.006	9.87069489440918	0.5069722015380859	0.05566518859863281	2.529144287109375	-3.57818603515625	-0.774383544921875	9.785102185058593	0.4052186309814453	0.15083470458984374	0.3814697265625	-4.825592041015625	-2.86865234375	10.006565838623047	0.031124621582031248	-0.23343466186523437	3.681182861328125	-4.6234130859375	-2.288818359375	
273	1.092	0.0	0.0	0.0	0.0	0.009000000000000001	0.003	0.003	0.003	9.874884747314452	0.517746109008789	0.06105214233398437	2.620697021484375	-3.62396240234375	-0.766754150390625	9.785102185058593	0.39863457641601563	0.15861585998535155	0.476837158203125	-4.9896240234375	-2.841949462890625	10.011952792358398	0.033518823242187495	-0.23343466186523437	3.54766845703125	-4.4097900390625	-2.0294189453125	
274	1.096	0.0	0.0	0.0	0.0	0.003	0.003	0.006	0.003	9.87608184814453	0.5087678527832031	0.05805939025878906	2.552032470703125	-3.498077392578125	-0.728607177734375	9.783306533813477	0.40880993347167965	0.15741875915527342	0.347137451171875	-4.76837158203125	-2.712249755859375	10.007762939453125	0.03232172241210937	-0.2292448089599609	3.60870361328125	-4.6539306640625	-2.208709716796875	
275	1.1	0.0	0.0	0.0	0.0	0.003	0.003	0.003	0.006	9.86411083984375	0.5147533569335937	0.05686228942871093	2.674102783203125	-3.589630126953125	-0.701904296875	9.775525378417969	0.40581718139648437	0.1592144104003906	0.3662109375	-5.0201416015625	-2.933502197265625	10.001777435302733	0.037110125732421874	-0.22505495605468748	3.551483154296875	-4.619598388671875	-2.033233642578125	
276	1.104	0.0	0.0	0.0	0.0	0.003	0.006	0.003	0.003	9.874884747314452	0.5105635040283203	0.05626373901367187	2.7008056640625	-3.734588623046875	-0.63323974609375	9.781510882568359	0.4064157318115234	0.15263035583496093	0.301361083984375	-4.5928955078125	-2.79998779296875	10.019733947753906	0.037110125732421874	-0.22206220397949217	3.59344482421875	-4.63104248046875	-2.239227294921875	
277	1.108	0.0	0.0	0.0	0.0	0.003	0.006	0.006	0.003	9.87608184814453	0.5147533569335937	0.04908113403320312	2.4261474609375	-3.6468505859375	-0.74005126953125	9.771934075927733	0.40402153015136716	0.15682020874023436	0.240325927734375	-4.8065185546875	-2.910614013671875	10.013748443603514	0.04668693237304687	-0.2262520568847656	3.665924072265625	-4.547119140625	-1.83868408203125	
278	1.112	0.0	0.0	0.0	0.0	0.009000000000000001	0.003	0.006	0.003	9.868300692749022	0.517746109008789	0.05626373901367187	2.4261474609375	-3.475189208984375	-0.64849853515625	9.78629928588867	0.4147954376220703	0.1562216583251953	0.32806396484375	-4.608154296875	-2.70843505859375	10.012551342773437	0.0383072265625	-0.22864625854492185	3.719329833984375	-4.611968994140625	-1.94549560546875	
279	1.116	0.0	0.0	0.0	0.0	0.006	0.003	0.003	0.003	9.867702142333984	0.5117606048583984	0.0526724365234375	2.422332763671875	-3.62396240234375	-0.827789306640625	9.783905084228515	0.40940848388671874	0.15981296081542967	0.35858154296875	-4.64630126953125	-2.81524658203125	10.01733974609375	0.040701428222656245	-0.2328361114501953	3.74603271484375	-4.73785400390625	-2.162933349609375	
280	1.12	0.0	0.0	0.0	0.0	0.009000000000000001	0.003	0.003	0.003	9.865307940673828	0.5111620544433594	0.06045359191894531	2.410888671875	-3.726959228515625	-0.728607177734375	9.784503634643555	0.40222587890625	0.15981296081542967	0.3814697265625	-4.840850830078125	-2.98309326171875	10.014945544433592	0.044891281127929686	-0.22744915771484372	3.513336181640625	-4.39453125	-2.086639404296875	
281	1.124	0.0	0.0	0.0	0.0	0.003	0.003	0.003	0.0	9.86411083984375	0.5153519073486328	0.06643909606933593	2.6397705078125	-3.509521484375	-0.865936279296875	9.781510882568359	0.4070142822265625	0.1693897674560547	0.57220458984375	-5.069732666015625	-2.986907958984375	10.007762939453125	0.040102877807617184	-0.2214636535644531	3.56292724609375	-4.63104248046875	-2.124786376953125	
282	1.1280000000000001	0.0	0.0	0.0	0.0	0.003	0.006	0.003	0.006	9.868899243164062	0.5129577056884765	0.05686228942871093	2.593994140625	-3.536224365234375	-0.84686279296875	9.783905084228515	0.4004302276611328	0.16519991455078123	0.568389892578125	-5.04302978515625	-2.79998779296875	10.011354241943359	0.03411737365722656	-0.23702596435546874	3.54766845703125	-4.680633544921875	-2.349853515625	
283	1.1320000000000001	0.0	0.0	0.0	0.0	0.006	0.006	0.006	0.003	9.868300692749022	0.5135562561035156	0.06105214233398437	2.5787353515625	-3.51715087890625	-0.92315673828125	9.779116680908203	0.4070142822265625	0.15263035583496093	0.3814697265625	-4.8675537109375	-2.979278564453125	10.005967288208007	0.032920272827148434	-0.23104046020507812	3.612518310546875	-4.375457763671875	-2.06756591796875	
284	1.1360000000000001	0.0	0.0	0.0	0.0	0.0	0.003	0.006	0.006	9.874884747314452	0.5147533569335937	0.06045359191894531	2.7008056640625	-3.60870361328125	-0.79345703125	9.782707983398437	0.411802685546875	0.17178396911621094	0.26702880859375	-4.75311279296875	-2.7313232421875	10.001777435302733	0.03651157531738281	-0.23044190979003906	3.772735595703125	-4.550933837890625	-2.15911865234375	
285	1.1400000000000001	0.0	0.0	0.0	0.0	0.006	0.003	0.003	0.006	9.878476049804688	0.51714755859375	0.051475335693359374	2.651214599609375	-3.391265869140625	-0.762939453125	9.784503634643555	0.4034229797363281	0.16460136413574217	0.640869140625	-4.8065185546875	-2.994537353515625	10.002375985717773	0.03651157531738281	-0.2376245147705078	3.692626953125	-4.57763671875	-2.25067138671875	
286	1.1440000000000001	0.0	0.0	0.0	0.0	0.0	0.006	0.003	0.006	9.867103591918944	0.5117606048583984	0.059256491088867186	2.6397705078125	-3.742218017578125	-0.705718994140625	9.779116680908203	0.4052186309814453	0.15203180541992187	0.2288818359375	-4.58526611328125	-2.7313232421875	10.001178884887695	0.03651157531738281	-0.23104046020507812	3.7078857421875	-4.665374755859375	-2.117156982421875	
287	1.1480000000000001	0.0	0.0	0.0	0.0	0.006	0.006	0.006	0.003	9.880870251464843	0.5123591552734374	0.05386953735351562	2.529144287109375	-3.650665283203125	-0.949859619140625	9.779116680908203	0.40282442932128903	0.15981296081542967	0.102996826171875	-5.062103271484375	-2.9144287109375	10.012551342773437	0.03411737365722656	-0.22505495605468748	3.6468505859375	-4.61578369140625	-2.315521240234375	
288	1.1520000000000001	0.0	0.0	0.0	0.0	0.003	0.006	0.006	0.006	9.872490545654296	0.507570751953125	0.0526724365234375	2.72369384765625	-3.662109375	-0.79345703125	9.783905084228515	0.4171896392822265	0.1640028137207031	0.57220458984375	-4.825592041015625	-3.08990478515625	10.013748443603514	0.03651157531738281	-0.23104046020507812	3.627777099609375	-4.604339599609375	-2.178192138671875	
289	1.156	0.0	0.0	0.0	0.0	0.003	0.003	0.003	0.003	9.866505041503906	0.5111620544433594	0.05686228942871093	2.689361572265625	-3.879547119140625	-0.705718994140625	9.777919580078125	0.412401235961914	0.16220716247558592	0.48828125	-4.730224609375	-2.788543701171875	10.011354241943359	0.032920272827148434	-0.2316390106201172	3.45611572265625	-4.360198974609375	-1.934051513671875	
290	1.16	0.0	0.0	0.0	0.0	0.006	0.003	0.003	0.003	9.879673150634765	0.5093664031982421	0.051475335693359374	2.5482177734375	-3.53240966796875	-0.896453857421875	9.778518130493163	0.41359833679199215	0.16460136413574217	0.438690185546875	-4.993438720703125	-3.002166748046875	10.007762939453125	0.03172317199707031	-0.23582886352539062	3.814697265625	-4.55474853515625	-2.094268798828125	
291	1.164	0.0	0.0	0.0	0.0	0.006	0.006	0.003	0.012	9.879673150634765	0.5051765502929687	0.04668693237304687	2.74658203125	-3.551483154296875	-0.873565673828125	9.784503634643555	0.40462008056640625	0.16220716247558592	0.362396240234375	-4.726409912109375	-2.895355224609375	10.016142645263672	0.034715924072265626	-0.24480711975097655	3.406524658203125	-4.57763671875	-2.25067138671875	
292	1.168	0.0	0.0	0.0	0.0	0.003	0.003	0.003	0.003	9.874884747314452	0.5153519073486328	0.052073886108398436	2.696990966796875	-3.635406494140625	-0.77056884765625	9.784503634643555	0.4034229797363281	0.1610100616455078	0.16021728515625	-4.75311279296875	-2.72369384765625	10.020931048583984	0.037708676147460936	-0.239420166015625	3.57818603515625	-4.5013427734375	-2.056121826171875	
293	1.172	0.0	0.0	0.0	0.0	0.003	0.003	0.003	0.006	9.888052856445311	0.5159504577636719	0.04967968444824218	2.50244140625	-3.33404541015625	-0.69427490234375	9.787496386718749	0.40462008056640625	0.15322890625	0.22125244140625	-4.734039306640625	-2.796173095703125	10.013149893188476	0.029328970336914062	-0.2346317626953125	3.60870361328125	-4.703521728515625	-1.956939697265625	
294	1.176	0.0	0.0	0.0	0.0	0.006	0.003	0.003	0.003	9.878476049804688	0.5153519073486328	0.05327098693847656	2.38800048828125	-3.643035888671875	-0.90789794921875	9.785700735473633	0.4052186309814453	0.15083470458984374	0.232696533203125	-4.69970703125	-2.66265869140625	10.011354241943359	0.03950432739257812	-0.22864625854492185	3.53240966796875	-4.73785400390625	-2.288818359375	
295	1.18	0.0	0.0	0.0	0.0	0.003	0.003	0.006	0.003	9.8694977935791	0.508169302368164	0.05686228942871093	2.54058837890625	-3.459930419921875	-0.782012939453125	9.785102185058593	0.40402153015136716	0.14724340209960937	0.202178955078125	-4.64630126953125	-2.8533935546875	10.007762939453125	0.034715924072265626	-0.2280477081298828	3.635406494140625	-4.688262939453125	-2.288818359375	
296	1.184	0.0	0.0	0.0	0.0	0.003	0.003	0.003	0.003	9.859322436523437	0.5135562561035156	0.055066638183593745	2.6397705078125	-3.574371337890625	-0.885009765625	9.785102185058593	0.40282442932128903	0.14963760375976562	-0.003814697265625	-4.76837158203125	-3.032684326171875	10.020332498168944	0.037110125732421874	-0.2280477081298828	3.391265869140625	-4.53948974609375	-2.25830078125	
297	1.188	0.0	0.0	0.0	0.0	0.006	0.003	0.003	0.003	9.866505041503906	0.5135562561035156	0.06344634399414062	2.422332763671875	-3.520965576171875	-0.820159912109375	9.782707983398437	0.39743747558593745	0.1514332550048828	0.461578369140625	-5.08880615234375	-2.872467041015625	10.018536846923828	0.03890577697753906	-0.23104046020507812	3.60870361328125	-4.543304443359375	-1.953125	
298	1.192	0.0	0.0	0.0	0.0	0.003	0.006	0.006	0.003	9.859920986938477	0.5105635040283203	0.062249243164062495	2.544403076171875	-3.604888916015625	-0.789642333984375	9.779116680908203	0.4052186309814453	0.15562310791015624	0.40435791015625	-4.9896240234375	-2.86102294921875	10.007762939453125	0.04369418029785156	-0.23523031311035156	3.57818603515625	-4.5623779296875	-2.05230712890625	
299	1.196	0.0	0.0	0.0	0.0	0.003	0.003	0.003	0.003	9.868300692749022	0.5069722015380859	0.044891281127929686	2.429962158203125	-3.284454345703125	-0.80108642578125	9.779116680908203	0.4112041351318359	0.14963760375976562	0.537872314453125	-4.970550537109375	-2.986907958984375	9.9981861328125	0.0383072265625	-0.23104046020507812	3.734588623046875	-4.67681884765625	-2.155303955078125	
300	1.2	0.0	0.0	0.0	0.0	0.003	0.006	0.003	0.006	9.871891995239258	0.5057751007080078	0.05087678527832031	2.651214599609375	-3.437042236328125	-0.728607177734375	9.776722479248047	0.4147954376220703	0.17178396911621094	0.54931640625	-5.146026611328125	-3.040313720703125	10.007762939453125	0.029927520751953124	-0.22744915771484372	3.56292724609375	-4.474639892578125	-2.017974853515625	
301	1.204	0.0	0.0	0.0	0.0	0.006	0.006	0.006	0.003	9.867103591918944	0.5045779998779296	0.04608838195800781	2.5177001953125	-3.62396240234375	-0.72479248046875	9.784503634643555	0.40880993347167965	0.15861585998535155	0.331878662109375	-5.07354736328125	-2.849578857421875	10.01733974609375	0.03232172241210937	-0.22744915771484372	3.391265869140625	-4.695892333984375	-2.208709716796875	
302	1.208	0.0	0.0	0.0	0.0	0.003	0.003	0.003	0.006	9.881468801879882	0.5201403106689453	0.052073886108398436	2.4871826171875	-3.513336181640625	-0.67901611328125	9.776722479248047	0.39983167724609375	0.15502455749511718	0.518798828125	-5.06591796875	-2.7313232421875	10.000580334472655	0.031124621582031248	-0.2292448089599609	3.72314453125	-4.49371337890625	-1.99127197265625	
303	1.212	0.0	0.0	0.0	0.0	0.006	0.003	0.006	0.003	9.878476049804688	0.5093664031982421	0.054468087768554684	2.674102783203125	-3.719329833984375	-0.774383544921875	9.78629928588867	0.40282442932128903	0.1592144104003906	0.438690185546875	-4.7607421875	-2.964019775390625	10.01015714111328	0.03591302490234375	-0.2232593048095703	3.818511962890625	-4.669189453125	-2.147674560546875	
304	1.216	0.0	0.0	0.0	0.0	0.003	0.003	0.006	0.006	9.87069489440918	0.5111620544433594	0.06105214233398437	2.605438232421875	-3.536224365234375	-0.81634521484375	9.785102185058593	0.4004302276611328	0.1592144104003906	0.335693359375	-5.04302978515625	-2.986907958984375	10.025120901489258	0.037708676147460936	-0.22744915771484372	3.734588623046875	-4.489898681640625	-2.101898193359375	
305	1.22	0.0	0.0	0.0	0.0	0.009000000000000001	0.006	0.003	0.006	9.87009634399414	0.5111620544433594	0.04967968444824218	2.31170654296875	-3.513336181640625	-0.823974609375	9.779116680908203	0.4082113830566406	0.1592144104003906	0.240325927734375	-5.069732666015625	-2.948760986328125	10.013748443603514	0.037110125732421874	-0.22565350646972654	3.673553466796875	-4.78363037109375	-2.185821533203125	
306	1.224	0.0	0.0	0.0	0.0	0.003	0.006	0.003	0.003	9.87069489440918	0.5141548065185546	0.04668693237304687	2.567291259765625	-3.726959228515625	-0.89263916015625	9.776722479248047	0.4159925384521484	0.16460136413574217	0.232696533203125	-5.02777099609375	-3.02886962890625	10.01015714111328	0.031124621582031248	-0.21787235107421873	3.406524658203125	-4.810333251953125	-2.2125244140625	
307	1.228	0.0	0.0	0.0	0.0	0.006	0.003	0.006	0.006	9.871891995239258	0.508169302368164	0.047285482788085934	2.834320068359375	-3.8299560546875	-0.667572021484375	9.783306533813477	0.41539398803710936	0.1640028137207031	0.335693359375	-4.7607421875	-2.777099609375	10.006565838623047	0.027533319091796873	-0.22266075439453123	3.765106201171875	-4.608154296875	-2.227783203125	
308	1.232	0.0	0.0	0.0	0.0	0.006	0.006	0.003	0.003	9.8694977935791	0.507570751953125	0.054468087768554684	2.597808837890625	-3.688812255859375	-0.74005126953125	9.788693487548828	0.4147954376220703	0.1657984649658203	0.274658203125	-4.673004150390625	-2.8839111328125	10.01075569152832	0.033518823242187495	-0.22864625854492185	3.574371337890625	-4.489898681640625	-1.964569091796875	
