	time	dac1	dac2	dac3	dac4	adc1.3	adc2.3	adc3.3	adc4.3	imu1accx	imu1accy	imu1accz	imu1gyrox	imu1gyroy	imu1gyroz	imu2accx	imu2accy	imu2accz	imu2gyrox	imu2gyroy	imu2gyroz	imu3accx	imu3accy	imu3accz	imu3gyrox	imu3gyroy	imu3gyroz	log
0	0.0	0.0	0.0	0.0	0.0	0.006	0.006	0.006	0.006	9.83837317199707	0.10295067138671875	0.10235212097167969	2.475738525390625	-3.51715087890625	-0.835418701171875	9.777919580078125	0.47764323120117186	0.1322796417236328	0.728607177734375	-4.89044189453125	-2.76947021484375	10.008361489868163	0.06943184814453125	-0.28490999755859375	3.643035888671875	-4.650115966796875	-1.842498779296875	Estabilizou em 4s, 631 rpm
1	0.004	0.0	0.0	0.0	0.0	0.003	0.006	0.006	0.003	9.847351428222655	0.19692308654785154	0.10295067138671875	3.643035888671875	-4.2877197265625	-0.90789794921875	9.821613760375977	0.3908534210205078	0.09457096557617187	0.93841552734375	-4.894256591796875	-2.96783447265625	10.034697708129881	-0.044292730712890624	-0.2561795776367187	3.719329833984375	-4.32586669921875	-2.323150634765625	Started
2	0.008	0.0	0.0	0.0	0.0	0.003	0.003	0.003	0.003	9.852738381958007	0.12689268798828124	0.11252747802734374	2.513885498046875	-3.780364990234375	-0.789642333984375	9.787496386718749	0.5488707305908203	0.13108254089355467	0.957489013671875	-4.856109619140625	-2.7923583984375	10.043675964355469	0.14963760375976562	-0.27892449340820313	3.643035888671875	-4.741668701171875	-2.086639404296875	IMU1|LSM6DS3|0x6A|I2C-1|±2g (±19,6m/s²)|±125º/s|400Hz
3	0.012	0.0	0.0	0.0	0.0	0.003	0.003	0.003	0.003	9.89523546142578	-0.06763619689941405	-0.003591302490234375	1.544952392578125	-3.15093994140625	-0.87738037109375	9.822212310791015	0.3920505218505859	0.09696516723632811	0.81634521484375	-4.848480224609375	-2.92205810546875	10.012551342773437	-0.03531447448730469	-0.2603694305419922	3.814697265625	-4.497528076171875	-2.017974853515625	IMU2|LSM6DS3|0x6B|I2C-1|±2g (±19,6m/s²)|±125º/s|400Hz
4	0.016	0.0	0.0	0.0	0.0	0.003	0.003	0.006	0.006	9.823409411621093	0.1274912384033203	0.17597382202148437	2.513885498046875	-3.73077392578125	-0.629425048828125	9.777321029663085	0.5500678314208984	0.17477672119140625	0.92315673828125	-5.084991455078125	-2.750396728515625	10.041281762695311	0.14484920043945312	-0.2555810272216797	3.475189208984375	-4.604339599609375	-2.17437744140625	IMU3|LSM6DS3|0x6B|I2C-2|±2g (±19,6m/s²)|±125º/s|400Hz
5	0.02	0.0	0.0	0.0	0.0	0.003	0.003	0.003	0.006	9.904213717651366	-0.12449848632812499	0.0005985504150390625	1.13677978515625	-2.74658203125	-1.049041748046875	9.853935482788085	0.3848679168701172	0.086191259765625	0.812530517578125	-4.96673583984375	-2.90679931640625	10.110115060424803	-0.1406593475341797	-0.3238157745361328	3.387451171875	-4.489898681640625	-2.147674560546875	ADC|ADS1015|0|0|1|0|±6,144 V|2400 SPS
6	0.024	0.0	0.0	0.0	0.0	0.006	0.003	0.006	0.003	9.81862100830078	0.15322890625	0.20949264526367187	2.010345458984375	-3.18145751953125	-0.736236572265625	9.708487731933593	0.6482300994873047	0.2861070983886719	0.60272216796875	-4.8370361328125	-2.780914306640625	10.017938296508788	0.17956512451171874	-0.2424129180908203	3.635406494140625	-4.627227783203125	-2.03704833984375	Gen1|Disabled
7	0.028	0.0	0.0	0.0	0.0	0.003	0.003	0.003	0.003	9.885658654785155	-0.1466448516845703	0.0143652099609375	0.81634521484375	-2.521514892578125	-0.8544921875	9.85094273071289	0.3962403747558593	0.11671733093261719	1.071929931640625	-4.92095947265625	-3.108978271484375	10.101136804199218	-0.14484920043945312	-0.32082302246093747	3.34930419921875	-4.474639892578125	-2.117156982421875	Gen2|Enabled|Noise|0.0|10.0|1668
8	0.032	0.0	0.0	0.0	0.0	0.006	0.003	0.003	0.006	9.807847100830077	0.1466448516845703	0.15023615417480468	1.667022705078125	-3.021240234375	-0.81634521484375	9.721057290649414	0.6410474945068358	0.31663316955566406	0.77056884765625	-4.96673583984375	-2.872467041015625	10.064625228881836	0.1484405029296875	-0.17776947326660156	3.368377685546875	-4.64630126953125	-2.03704833984375	Gen3|Enabled|Noise|0.0|10.0|128
9	0.036000000000000004	0.0	0.0	0.0	0.0	0.003	0.003	0.003	0.006	9.903615167236328	-0.22026655273437498	0.00239420166015625	0.8392333984375	-2.28118896484375	-0.7781982421875	9.860519537353515	0.2759317413330078	0.10953472595214843	1.06048583984375	-4.840850830078125	-2.89154052734375	10.105925207519531	-0.18375497741699218	-0.3136404174804687	3.662109375	-4.734039306640625	-2.315521240234375	Gen4|Enabled|Noise|0.0|10.0|128
10	0.04	0.0	0.0	0.0	0.0	0.006	0.006	0.006	0.003	9.816825357055663	0.15263035583496093	0.14784195251464843	1.6937255859375	-3.021240234375	-0.705718994140625	9.683348614501952	0.6913257293701172	0.35134909362792965	0.92315673828125	-4.993438720703125	-2.925872802734375	10.038887561035155	0.19632453613281248	-0.15382745666503905	3.444671630859375	-4.76837158203125	-1.953125	Ctrl|Disabled
11	0.044	0.0	0.0	0.0	0.0	0.003	0.003	0.003	0.003	9.873089096069336	0.20769699401855468	0.19093758239746092	2.628326416015625	-3.509521484375	-0.640869140625	9.847949978637695	0.24660277099609373	0.1149216796875	0.926971435546875	-4.9285888671875	-2.7923583984375	10.053851321411132	-0.10953472595214843	-0.2998737579345703	3.79180908203125	-4.917144775390625	-2.201080322265625	
12	0.048	0.0	0.0	0.0	0.0	0.003	0.006	0.003	0.003	9.84435867614746	0.10175357055664062	0.12389993591308593	1.789093017578125	-3.19671630859375	-0.8544921875	9.767145672607422	0.5943605621337891	0.1945288848876953	1.129150390625	-4.8675537109375	-3.16619873046875	10.053252770996092	0.1406593475341797	-0.1640028137207031	3.63922119140625	-4.634857177734375	-2.162933349609375	
13	0.052000000000000005	0.0	0.0	0.0	0.0	0.003	0.003	0.003	0.003	9.860519537353515	0.26396073303222656	0.17417817077636719	2.66265869140625	-3.5552978515625	-0.41961669921875	9.855731134033203	0.27293898925781246	0.09576806640624999	0.732421875	-5.084991455078125	-2.933502197265625	10.035894808959961	-0.08918401184082031	-0.31543606872558594	3.810882568359375	-4.749298095703125	-1.8768310546875	
14	0.056	0.0	0.0	0.0	0.0	0.006	0.003	0.003	0.006	9.837176071166992	0.10115502014160156	0.10175357055664062	1.598358154296875	-2.86865234375	-0.823974609375	9.743203656005859	0.6344634399414062	0.21188684692382811	1.190185546875	-4.924774169921875	-2.899169921875	10.03050785522461	0.1897404815673828	-0.14425065002441406	3.8299560546875	-4.5623779296875	-2.38800048828125	
15	0.06	0.0	0.0	0.0	0.0	0.006	0.006	0.003	0.006	9.880271701049804	0.24660277099609373	0.14484920043945312	2.864837646484375	-3.681182861328125	-0.54168701171875	9.720458740234374	0.38247371520996093	0.27174188842773433	0.457763671875	-4.734039306640625	-2.506256103515625	10.069413632202147	-0.181959326171875	-0.32441432495117184	3.60107421875	-4.550933837890625	-1.93023681640625	
16	0.064	0.0	0.0	0.0	0.0	0.003	0.006	0.003	0.006	9.847949978637695	0.3938461730957031	0.09696516723632811	4.34112548828125	-4.764556884765625	-0.934600830078125	9.746196408081055	0.63206923828125	0.20949264526367187	1.232147216796875	-4.852294921875	-3.063201904296875	9.926360083007811	0.086191259765625	-0.1562216583251953	3.765106201171875	-4.7607421875	-2.475738525390625	
17	0.068	0.0	0.0	0.0	0.0	0.006	0.003	0.006	0.003	9.886855755615233	0.32142157287597656	0.12449848632812499	3.093719482421875	-3.875732421875	-0.759124755859375	9.700108026123047	0.4207809417724609	0.28730419921875	0.79345703125	-4.791259765625	-2.74658203125	10.04846436767578	-0.11791443176269531	-0.34835634155273437	3.4637451171875	-4.581451416015625	-1.7852783203125	
18	0.07200000000000001	0.0	0.0	0.0	0.0	0.003	0.003	0.003	0.006	9.83897172241211	0.4267664459228515	0.11731588134765625	4.5318603515625	-4.924774169921875	-0.751495361328125	9.749189160156249	0.5099649536132812	0.1849520782470703	1.04522705078125	-4.87518310546875	-3.34930419921875	9.9078050201416	0.07481880187988281	-0.15861585998535155	3.826141357421875	-4.57763671875	-2.25830078125	
19	0.076	0.0	0.0	0.0	0.0	0.006	0.006	0.006	0.006	9.896432562255859	0.30047230834960936	0.08678981018066406	4.15802001953125	-4.749298095703125	-0.8544921875	9.69831237487793	0.3585316986083984	0.28909985046386716	0.415802001953125	-4.96673583984375	-2.590179443359375	9.89523546142578	0.0430956298828125	-0.1005564697265625	3.429412841796875	-4.741668701171875	-1.94549560546875	
20	0.08	0.0	0.0	0.0	0.0	0.006	0.003	0.003	0.003	9.847949978637695	0.44592005920410155	0.13646949462890623	5.062103271484375	-5.30242919921875	-1.0986328125	9.737816702270507	0.5183446594238281	0.1975216369628906	0.9918212890625	-4.833221435546875	-3.589630126953125	9.907206469726562	0.07003039855957031	-0.17417817077636719	3.711700439453125	-4.547119140625	-2.593994140625	
21	0.084	0.0	0.0	0.0	0.0	0.006	0.003	0.003	0.003	9.911994873046874	0.28490999755859375	-0.08319850769042968	4.001617431640625	-4.67681884765625	-0.934600830078125	9.718064538574218	0.6147112762451171	0.12090718383789062	0.850677490234375	-5.199432373046875	-2.4566650390625	9.853336932373047	0.10474632263183593	-0.10295067138671875	3.498077392578125	-4.57000732421875	-1.861572265625	
22	0.088	0.0	0.0	0.0	0.0	0.003	0.006	0.003	0.006	9.828197814941406	0.4560954162597656	0.143652099609375	5.2490234375	-5.0506591796875	-0.9918212890625	9.740809454345703	0.507570751953125	0.1975216369628906	1.251220703125	-4.680633544921875	-3.387451171875	10.063428128051758	-0.18555062866210936	-0.2537853759765625	3.742218017578125	-4.3792724609375	-2.50244140625	
23	0.092	0.0	0.0	0.0	0.0	0.006	0.006	0.003	0.006	9.891045608520507	0.2316390106201172	-0.07242460021972656	3.89862060546875	-4.75311279296875	-1.094818115234375	9.740210903930663	0.5626373901367188	0.07841010437011718	0.774383544921875	-5.199432373046875	-2.471923828125	9.867702142333984	0.05805939025878906	-0.10175357055664062	3.65447998046875	-4.528045654296875	-1.880645751953125	
24	0.096	0.0	0.0	0.0	0.0	0.006	0.003	0.006	0.006	9.854534033203125	-0.18315642700195311	-0.012569558715820313	2.994537353515625	-3.9520263671875	-0.9613037109375	9.715670336914062	0.5093664031982421	0.21966800231933592	0.865936279296875	-4.848480224609375	-3.009796142578125	10.050858569335936	-0.19931728820800781	-0.23702596435546874	3.955841064453125	-4.596710205078125	-2.67791748046875	
25	0.1	0.0	0.0	0.0	0.0	0.003	0.003	0.003	0.003	9.900023864746093	0.17178396911621094	-0.07362170104980469	3.757476806640625	-4.852294921875	-0.888824462890625	9.752780462646484	0.575206948852539	0.07541735229492187	1.0223388671875	-4.92095947265625	-2.66265869140625	9.847351428222655	0.10474632263183593	-0.0796072052001953	3.5858154296875	-4.741668701171875	-1.956939697265625	
26	0.10400000000000001	0.0	0.0	0.0	0.0	0.006	0.003	0.003	0.006	9.874884747314452	-0.2980781066894531	-0.051475335693359374	2.628326416015625	-3.8299560546875	-1.018524169921875	9.916184725952148	0.26874913635253905	0.017357962036132813	0.89263916015625	-5.283355712890625	-3.12042236328125	10.08078609008789	-0.22565350646972654	-0.2699462371826172	3.742218017578125	-4.627227783203125	-2.429962158203125	
27	0.108	0.0	0.0	0.0	0.0	0.0	0.003	0.003	0.006	9.890447058105469	0.105344873046875	-0.0526724365234375	3.719329833984375	-4.810333251953125	-1.15203857421875	9.747393508911133	0.527322915649414	0.05566518859863281	0.213623046875	-5.71441650390625	-2.536773681640625	10.096348400878906	0.1801636749267578	-0.2537853759765625	3.60870361328125	-4.734039306640625	-1.903533935546875	
28	0.112	0.0	0.0	0.0	0.0	0.003	0.003	0.003	0.003	9.864709390258788	-0.36152445068359373	-0.08978256225585937	2.38800048828125	-3.57818603515625	-1.3427734375	9.90241806640625	0.2603694305419922	0.016759411621093748	0.9918212890625	-5.023956298828125	-2.941131591796875	10.076596237182617	-0.2280477081298828	-0.25917232971191406	3.818511962890625	-4.66156005859375	-2.62451171875	
29	0.116	0.0	0.0	0.0	0.0	0.009000000000000001	0.003	0.003	0.003	9.707889181518555	-0.17896657409667968	0.36750995483398435	0.774383544921875	-2.72369384765625	-0.579833984375	9.73602105102539	0.6548141540527344	0.316034619140625	0.6103515625	-4.955291748046875	-2.727508544921875	10.09993970336914	0.239420166015625	-0.2603694305419922	3.662109375	-4.67681884765625	-1.934051513671875	
30	0.12	0.0	0.0	0.0	0.0	0.006	0.003	0.003	0.003	9.883264453125	-0.4626794708251953	-0.1227028350830078	1.972198486328125	-3.65447998046875	-1.07574462890625	9.907206469726562	0.23523031311035156	0.00718260498046875	0.67901611328125	-4.985809326171875	-2.925872802734375	10.192116467285155	-0.5189432098388671	-0.43574470214843747	3.490447998046875	-4.28009033203125	-1.97601318359375	
31	0.124	0.0	0.0	0.0	0.0	0.003	0.003	0.003	0.006	9.700108026123047	-0.21607669982910155	0.3477577911376953	0.690460205078125	-2.506256103515625	-0.438690185546875	9.76235726928711	0.6003460662841796	0.29089550170898437	0.80108642578125	-5.11932373046875	-2.7923583984375	10.096946951293944	0.21068974609375	-0.2807201446533203	3.894805908203125	-4.638671875	-1.865386962890625	
32	0.128	0.0	0.0	0.0	0.0	0.009000000000000001	0.006	0.003	0.003	9.911396322631836	-0.5201403106689453	-0.14784195251464843	-0.6561279296875	-1.68609619140625	-0.5950927734375	9.912593423461914	0.11791443176269531	-0.030526071166992186	1.0528564453125	-4.886627197265625	-2.880096435546875	10.205883126831054	-0.5189432098388671	-0.44532150878906246	3.53240966796875	-4.642486572265625	-2.048492431640625	
33	0.132	0.0	0.0	0.0	0.0	0.009000000000000001	0.003	0.006	0.003	9.689334118652344	-0.1945288848876953	0.34656069030761716	0.530242919921875	-2.353668212890625	-0.377655029296875	9.760561618041992	0.632667788696289	0.28012159423828126	0.640869140625	-4.833221435546875	-2.895355224609375	9.989806427001952	0.2442085693359375	-0.10714052429199218	3.30352783203125	-4.5623779296875	-2.044677734375	
34	0.136	0.0	0.0	0.0	0.0	0.003	0.003	0.003	0.003	9.821015209960937	-0.18076222534179687	0.16819266662597654	-0.514984130859375	-1.361846923828125	-0.4425048828125	9.906607919311522	0.11252747802734374	-0.029328970336914062	1.03759765625	-4.669189453125	-3.11279296875	10.20887587890625	-0.5692214447021484	-0.47704468078613277	3.2501220703125	-4.810333251953125	-2.178192138671875	
35	0.14	0.0	0.0	0.0	0.0	0.006	0.003	0.003	0.003	9.696516723632811	-0.1897404815673828	0.33039982910156246	0.492095947265625	-2.32696533203125	-0.54168701171875	9.733028298950195	0.7733271362304687	0.1562216583251953	1.285552978515625	-4.787445068359375	-3.238677978515625	10.013748443603514	0.24001871643066405	-0.09636661682128905	3.162384033203125	-4.695892333984375	-1.926422119140625	
36	0.14400000000000002	0.0	0.0	0.0	0.0	0.006	0.003	0.003	0.006	9.81263550415039	-0.07721300354003906	0.1693897674560547	-0.431060791015625	-1.483917236328125	-0.5035400390625	9.905410818481444	0.18734627990722655	-0.020350714111328123	1.071929931640625	-5.191802978515625	-2.750396728515625	10.212467181396484	-0.536899722290039	-0.4722562774658203	3.448486328125	-4.810333251953125	-1.6937255859375	
37	0.148	0.0	0.0	0.0	0.0	0.009000000000000001	0.003	0.003	0.003	9.94730934753418	0.5716156463623047	-0.030526071166992186	2.353668212890625	-3.505706787109375	-1.003265380859375	9.737816702270507	0.7888894470214843	0.16519991455078123	1.2359619140625	-4.9591064453125	-2.964019775390625	10.016142645263672	0.2184709014892578	-0.10474632263183593	3.1585693359375	-4.50897216796875	-1.766204833984375	
38	0.152	0.0	0.0	0.0	0.0	0.003	0.006	0.003	0.003	9.81263550415039	-0.020949264526367185	0.1640028137207031	-0.247955322265625	-1.60980224609375	-0.774383544921875	9.726444244384766	0.39983167724609375	0.31543606872558594	0.576019287109375	-5.001068115234375	-2.593994140625	10.034099157714843	-0.17956512451171874	-0.37708676147460934	3.566741943359375	-4.82940673828125	-1.743316650390625	
39	0.156	0.0	0.0	0.0	0.0	0.003	0.006	0.003	0.006	9.952097750854492	0.6254851837158203	-0.01975216369628906	2.5482177734375	-3.57818603515625	-1.190185546875	9.72345149230957	0.8481459381103515	0.18614917907714842	1.453399658203125	-4.9896240234375	-3.27301025390625	10.008960040283203	0.27892449340820313	-0.1083376251220703	3.208160400390625	-4.730224609375	-1.9378662109375	
40	0.16	0.0	0.0	0.0	0.0	0.006	0.006	0.003	0.006	9.810241302490233	0.028730419921875	0.1771709228515625	-0.370025634765625	-1.65557861328125	-0.553131103515625	9.719860189819336	0.3890577697753906	0.3112462158203125	0.67901611328125	-4.978179931640625	-2.532958984375	10.018536846923828	-0.17597382202148437	-0.38247371520996093	3.536224365234375	-4.955291748046875	-1.827239990234375	
41	0.164	0.0	0.0	0.0	0.0	0.0	0.003	0.003	0.009000000000000001	9.955090502929687	0.6368576416015624	-0.008379705810546874	2.910614013671875	-3.589630126953125	-1.010894775390625	9.709086282348633	0.5087678527832031	0.24839842224121092	0.644683837890625	-4.669189453125	-3.452301025390625	9.83837317199707	0.32561142578124996	-0.13407529296874998	3.936767578125	-4.322052001953125	-3.12042236328125	
42	0.168	0.0	0.0	0.0	0.0	0.006	0.006	0.003	0.003	9.938331091308592	0.8170213165283202	-0.10354922180175781	5.542755126953125	-5.489349365234375	-1.068115234375	9.730035546875	0.46686932373046874	0.2980781066894531	0.308990478515625	-4.8828125	-2.349853515625	10.029310754394531	-0.08738836059570312	-0.38187516479492184	3.662109375	-4.802703857421875	-1.979827880859375	
43	0.17200000000000001	0.0	0.0	0.0	0.0	0.009000000000000001	0.003	0.003	0.003	9.95389340209961	0.6631938598632812	-0.016759411621093748	3.101348876953125	-3.875732421875	-0.98419189453125	9.707290631103515	0.5207388610839844	0.23104046020507812	0.823974609375	-4.70733642578125	-3.23486328125	9.789292037963866	0.4016273284912109	-0.0652419952392578	4.21142578125	-4.367828369140625	-2.838134765625	
44	0.176	0.0	0.0	0.0	0.0	0.003	0.003	0.003	0.003	9.9215716796875	0.7852981445312499	-0.076614453125	5.6610107421875	-5.45501708984375	-0.957489013671875	9.738415252685547	0.39983167724609375	0.4129997863769531	0.87738037109375	-5.229949951171875	-2.429962158203125	9.8311905670166	0.16280571289062498	-0.05686228942871093	3.391265869140625	-4.634857177734375	-2.147674560546875	
45	0.18	0.0	0.0	0.0	0.0	0.003	0.006	0.003	0.003	9.970652813720703	0.737414111328125	-0.03531447448730469	6.252288818359375	-5.79071044921875	-1.1138916015625	9.743203656005859	0.536899722290039	0.25917232971191406	0.579833984375	-4.67681884765625	-3.246307373046875	9.80724855041504	0.42317514343261714	-0.029328970336914062	4.4097900390625	-4.47845458984375	-3.185272216796875	
46	0.184	0.0	0.0	0.0	0.0	0.003	0.003	0.003	0.006	9.937133990478515	0.881664761352539	-0.11372457885742186	6.0272216796875	-5.950927734375	-1.110076904296875	9.702502227783203	0.4147954376220703	0.12330138549804687	0.5950927734375	-4.901885986328125	-2.31170654296875	9.813832604980469	0.2609679809570312	-0.032920272827148434	3.6468505859375	-4.726409912109375	-2.105712890625	
47	0.188	0.0	0.0	0.0	0.0	0.003	0.006	0.003	0.003	9.89463691101074	0.21607669982910155	0.08319850769042968	6.18743896484375	-5.985260009765625	-1.018524169921875	9.757568865966796	0.43155484924316406	0.258573779296875	1.01470947265625	-4.825592041015625	-3.711700439453125	9.76116016845703	0.37828386230468747	-0.10893617553710937	3.566741943359375	-4.47845458984375	-2.49481201171875	
48	0.192	0.0	0.0	0.0	0.0	0.0	0.003	0.006	0.006	9.920973129272461	0.7846995941162109	-0.09277531433105468	6.26373291015625	-6.14166259765625	-0.911712646484375	9.724050042724608	0.23882161560058593	0.08978256225585937	0.69427490234375	-5.168914794921875	-2.124786376953125	9.868300692749022	0.061650692749023434	-0.08678981018066406	3.719329833984375	-4.878997802734375	-2.02178955078125	
49	0.196	0.0	0.0	0.0	0.0	0.003	0.003	0.003	0.003	9.917381826782226	0.16699556579589842	0.03591302490234375	5.7830810546875	-5.89752197265625	-1.377105712890625	9.813234054565429	0.22565350646972654	-0.027533319091796873	1.277923583984375	-5.0201416015625	-3.24249267578125	10.152612139892577	-0.32620997619628905	-0.373495458984375	3.734588623046875	-4.482269287109375	-2.971649169921875	
50	0.2	0.0	0.0	0.0	0.0	0.009000000000000001	0.006	0.003	0.003	9.850344180297851	-0.4010287780761719	0.16460136413574217	1.861572265625	-3.536224365234375	-0.6256103515625	9.666589202880859	0.364517202758789	0.12689268798828124	0.7476806640625	-5.207061767578125	-2.193450927734375	9.811438403320311	0.32441432495117184	-0.037708676147460936	3.662109375	-4.69207763671875	-1.995086669921875	
51	0.20400000000000001	0.0	0.0	0.0	0.0	0.003	0.003	0.003	0.006	9.90900212097168	0.013766659545898436	0.02693476867675781	5.443572998046875	-5.542755126953125	-1.24359130859375	9.820416659545899	0.143652099609375	0.020949264526367185	0.972747802734375	-5.062103271484375	-2.895355224609375	10.141239682006836	-0.39803602600097654	-0.3441664886474609	3.597259521484375	-4.46319580078125	-2.63214111328125	
52	0.20800000000000002	0.0	0.0	0.0	0.0	0.003	0.003	0.003	0.003	9.86291373901367	-0.4734533782958984	0.17836802368164062	1.873016357421875	-3.391265869140625	-0.553131103515625	9.810839852905273	0.5680243438720702	0.21607669982910155	0.93841552734375	-4.63104248046875	-2.69317626953125	10.101136804199218	0.05327098693847656	-0.17956512451171874	3.627777099609375	-4.669189453125	-1.949310302734375	
53	0.212	0.0	0.0	0.0	0.0	0.003	0.003	0.006	0.003	9.909600671386718	0.10115502014160156	0.009576806640625	5.672454833984375	-5.71441650390625	-1.270294189453125	9.804255798339844	0.20829554443359374	0.004189852905273437	1.1444091796875	-4.7760009765625	-3.063201904296875	10.127473022460936	-0.2920926025390625	-0.3327940307617187	4.047393798828125	-4.3792724609375	-3.002166748046875	
54	0.216	0.0	0.0	0.0	0.0	0.003	0.003	0.003	0.003	9.83777462158203	-0.40402153015136716	0.2041056915283203	1.895904541015625	-3.200531005859375	-0.583648681640625	9.756970315551758	0.6817489227294922	0.2280477081298828	1.094818115234375	-4.955291748046875	-2.60162353515625	10.066420880126952	0.23223756103515625	-0.14784195251464843	3.70025634765625	-4.78363037109375	-1.9378662109375	
55	0.22	0.0	0.0	0.0	0.0	0.009000000000000001	0.003	0.006	0.006	9.830592016601562	-0.8182184173583984	0.05626373901367187	-1.247406005859375	-1.3885498046875	-0.72479248046875	9.907206469726562	0.354940396118164	0.047884033203124995	1.4495849609375	-5.123138427734375	-2.933502197265625	10.237606298828124	-0.7799111907958984	-0.45549686584472654	3.093719482421875	-4.50897216796875	-1.71661376953125	
56	0.224	0.0	0.0	0.0	0.0	0.006	0.003	0.003	0.003	9.83837317199707	-0.4495113616943359	0.2214636535644531	1.903533935546875	-3.19671630859375	-0.782012939453125	9.780912332153319	0.6236895324707031	0.23822306518554687	1.19781494140625	-4.974365234375	-2.651214599609375	10.091559997558592	0.12868833923339842	-0.1484405029296875	3.612518310546875	-4.703521728515625	-1.956939697265625	
57	0.228	0.0	0.0	0.0	0.0	0.006	0.003	0.003	0.006	9.820416659545899	-0.5572504364013672	0.07422025146484375	-0.701904296875	-1.33514404296875	-0.873565673828125	9.889848507690429	0.4560954162597656	0.04908113403320312	1.708984375	-4.92095947265625	-3.0364990234375	10.228029492187499	-0.6751648681640625	-0.4632780212402344	3.063201904296875	-4.650115966796875	-1.46484375	
58	0.232	0.0	0.0	0.0	0.0	0.006	0.003	0.006	0.003	9.813832604980469	-0.5991489654541016	0.2561795776367187	0.6256103515625	-2.231597900390625	-0.52642822265625	9.687538467407226	0.9056067779541015	0.26815058593749996	1.41143798828125	-5.130767822265625	-3.299713134765625	10.022128149414062	0.23523031311035156	-0.1292868896484375	3.4637451171875	-4.852294921875	-1.636505126953125	
59	0.23600000000000002	0.0	0.0	0.0	0.0	0.003	0.003	0.003	0.006	9.812036953735351	0.09277531433105468	0.105344873046875	1.003265380859375	-2.22015380859375	-1.071929931640625	9.919177478027343	0.3842693664550781	0.06045359191894531	1.6937255859375	-5.016326904296875	-3.0975341796875	10.288483084106444	-0.3806780639648437	-0.4896142395019531	3.0975341796875	-4.63104248046875	-1.728057861328125	
60	0.24	0.0	0.0	0.0	0.0	0.003	0.006	0.003	0.003	9.685742816162108	0.15682020874023436	0.36092590026855464	0.6256103515625	-2.288818359375	-1.2054443359375	9.664793551635741	1.0199299072265624	0.2759317413330078	1.2359619140625	-4.665374755859375	-3.21197509765625	10.03050785522461	0.44113165588378905	-0.10953472595214843	3.51715087890625	-4.5928955078125	-2.17437744140625	
61	0.244	0.0	0.0	0.0	0.0	0.006	0.003	0.003	0.006	9.756371765136718	-0.10115502014160156	0.25258827514648435	-0.14495849609375	-1.941680908203125	-1.068115234375	9.753379013061522	0.5919663604736328	0.30526071166992186	0.12969970703125	-4.75311279296875	-3.02886962890625	10.210671530151366	-0.38786066894531246	-0.47884033203125	3.734588623046875	-4.451751708984375	-1.911163330078125	
62	0.248	0.0	0.0	0.0	0.0	0.006	0.003	0.006	0.0	9.72943699645996	0.14125789794921875	0.3142389678955078	-1.1444091796875	-1.2359619140625	-0.72479248046875	9.660603698730467	1.054047280883789	0.2980781066894531	1.949310302734375	-4.85992431640625	-3.3721923828125	10.096348400878906	0.3082534637451172	-0.19033903198242186	3.253936767578125	-4.72259521484375	-2.12860107421875	
63	0.252	0.0	0.0	0.0	0.0	0.0	0.006	0.006	0.003	9.938929641723632	0.44412440795898434	-0.14125789794921875	2.422332763671875	-3.41033935546875	-1.16729736328125	9.810241302490233	0.6763619689941406	0.2699462371826172	0.377655029296875	-4.932403564453125	-3.025054931640625	10.078391888427733	-0.26276363220214843	-0.5189432098388671	3.528594970703125	-4.779815673828125	-1.995086669921875	
64	0.256	0.0	0.0	0.0	0.0	0.003	0.003	0.003	0.006	9.765350021362304	0.34835634155273437	0.24899697265624998	0.156402587890625	-1.8463134765625	-0.9765625	9.636063131713867	0.718260498046875	0.23403321228027343	0.232696533203125	-4.69207763671875	-3.009796142578125	10.049661468505859	0.2819172454833984	-0.19033903198242186	3.35693359375	-4.95147705078125	-2.18963623046875	
65	0.26	0.0	0.0	0.0	0.0	0.006	0.003	0.003	0.006	9.945513696289062	0.3268085266113281	-0.18435352783203124	2.620697021484375	-3.5552978515625	-0.80108642578125	9.794678991699218	0.5704185455322265	0.2214636535644531	0.011444091796875	-4.543304443359375	-2.857208251953125	10.052055670166014	-0.20171148986816406	-0.5243301635742187	3.54766845703125	-5.008697509765625	-1.8768310546875	
66	0.264	0.0	0.0	0.0	0.0	0.006	0.003	0.003	0.006	9.836577520751952	0.2998737579345703	0.1352723937988281	0.423431396484375	-2.315521240234375	-0.98419189453125	9.866505041503906	0.6907271789550781	0.1406593475341797	0.4119873046875	-4.852294921875	-3.437042236328125	9.868300692749022	0.028131869506835935	-0.13467384338378904	3.681182861328125	-4.512786865234375	-2.498626708984375	
67	0.268	0.0	0.0	0.0	0.0	0.003	0.003	0.006	0.0	9.957484704589843	0.36092590026855464	-0.22744915771484372	3.520965576171875	-4.08172607421875	-0.8087158203125	9.755773214721678	0.7020996368408202	0.20290859069824219	0.6256103515625	-5.252838134765625	-2.788543701171875	10.003573086547851	-0.12808978881835936	-0.5398924743652344	3.5552978515625	-4.72259521484375	-1.834869384765625	
68	0.272	0.0	0.0	0.0	0.0	0.006	0.003	0.003	0.003	9.888052856445311	0.20051438903808594	-0.05386953735351562	5.59234619140625	-5.3253173828125	-0.54168701171875	9.76235726928711	1.2054805358886718	0.17956512451171874	0.896453857421875	-4.940032958984375	-2.727508544921875	9.798270294189452	0.030526071166992186	-0.14125789794921875	3.936767578125	-4.70733642578125	-2.5634765625	
69	0.276	0.0	0.0	0.0	0.0	0.003	0.003	0.006	0.006	9.975441217041014	0.32082302246093747	-0.24839842224121092	4.302978515625	-4.940032958984375	-0.965118408203125	9.76894132385254	-0.3591302490234375	0.016759411621093748	0.125885009765625	-4.9591064453125	-1.6937255859375	9.846154327392577	0.0	-0.09157821350097656	3.528594970703125	-4.58526611328125	-1.911163330078125	
70	0.28	0.0	0.0	0.0	0.0	0.0	0.003	0.003	0.003	9.887454306030273	0.23702596435546874	-0.028730419921875	6.1187744140625	-5.931854248046875	-0.90789794921875	9.72943699645996	1.0235212097167967	0.12629413757324218	0.762939453125	-4.718780517578125	-2.49481201171875	9.80605144958496	0.07242460021972656	-0.08798691101074219	3.742218017578125	-4.520416259765625	-2.506256103515625	
71	0.28400000000000003	0.0	0.0	0.0	0.0	0.003	0.006	0.003	0.003	9.969455712890625	0.36152445068359373	-0.24660277099609373	4.611968994140625	-5.222320556640625	-0.823974609375	9.74200655517578	-0.16639701538085935	0.010175357055664061	0.766754150390625	-4.99725341796875	-2.872467041015625	9.840168823242188	0.010773907470703125	-0.05985504150390625	3.63922119140625	-4.76837158203125	-1.987457275390625	
72	0.28800000000000003	0.0	0.0	0.0	0.0	0.006	0.003	0.006	0.006	9.84555577697754	0.14903905334472656	0.03591302490234375	5.56182861328125	-6.015777587890625	-0.774383544921875	9.712079034423828	0.928950244140625	0.03591302490234375	1.556396484375	-4.810333251953125	-3.170013427734375	9.83238766784668	0.09816226806640624	-0.09816226806640624	3.54766845703125	-4.28009033203125	-2.323150634765625	
73	0.292	0.0	0.0	0.0	0.0	0.003	0.003	0.006	0.003	9.834781869506836	-0.1879448303222656	0.09935936889648436	3.2806396484375	-4.38690185546875	-0.885009765625	9.71028338317871	0.23702596435546874	0.020949264526367185	1.0986328125	-5.222320556640625	-3.24249267578125	9.843760125732421	-0.06584054565429687	-0.018555062866210937	3.658294677734375	-4.82940673828125	-2.079010009765625	
74	0.296	0.0	0.0	0.0	0.0	0.006	0.006	0.006	0.0	9.803058697509766	0.03172317199707031	0.12629413757324218	4.947662353515625	-5.283355712890625	-0.75531005859375	9.743203656005859	0.5231330627441406	0.08319850769042968	1.720428466796875	-4.98199462890625	-2.758026123046875	10.0748005859375	-0.08978256225585937	-0.20530279235839843	3.71551513671875	-4.070281982421875	-2.37274169921875	
75	0.3	0.0	0.0	0.0	0.0	0.0	0.003	0.003	0.006	9.832986218261718	-0.18914193115234373	0.17058686828613281	2.66265869140625	-3.73077392578125	-1.01470947265625	9.789292037963866	0.37289690856933594	0.36391865234375	0.579833984375	-4.940032958984375	-3.53240966796875	9.87727894897461	-0.04548983154296875	-0.01915361328125	3.631591796875	-4.589080810546875	-1.972198486328125	
76	0.304	0.0	0.0	0.0	0.0	0.003	0.006	0.006	0.003	9.874286196899414	-0.11791443176269531	0.06823474731445311	0.5340576171875	-1.8768310546875	-0.885009765625	9.76894132385254	0.13646949462890623	0.1352723937988281	1.6326904296875	-4.9591064453125	-3.009796142578125	10.073004934692381	-0.086191259765625	-0.17657237243652343	3.72314453125	-4.413604736328125	-2.277374267578125	
77	0.308	0.0	0.0	0.0	0.0	0.0	0.003	0.003	0.0	9.837176071166992	-0.2747346405029297	0.20350714111328125	1.125335693359375	-2.8076171875	-0.812530517578125	9.73602105102539	0.718260498046875	0.40222587890625	1.049041748046875	-5.0811767578125	-3.2958984375	10.05564697265625	0.011372457885742187	-0.09038111267089843	3.520965576171875	-4.72259521484375	-1.956939697265625	
78	0.312	0.0	0.0	0.0	0.0	0.0	0.003	0.003	0.003	9.878476049804688	0.016759411621093748	0.07422025146484375	0.51116943359375	-2.12860107421875	-0.896453857421875	9.95987890625	0.22565350646972654	0.14604630126953125	1.041412353515625	-5.0201416015625	-2.872467041015625	10.058041174316406	-0.07003039855957031	-0.14425065002441406	3.757476806640625	-4.28009033203125	-2.41851806640625	
79	0.316	0.0	0.0	0.0	0.0	0.003	0.006	0.003	0.006	9.891045608520507	-0.30346506042480464	0.19393033447265623	0.70953369140625	-2.64739990234375	-0.8392333984375	9.744400756835937	0.6410474945068358	0.4070142822265625	0.553131103515625	-4.99725341796875	-2.834320068359375	10.096946951293944	0.04967968444824218	-0.08319850769042968	3.688812255859375	-4.467010498046875	-1.8768310546875	
80	0.32	0.0	0.0	0.0	0.0	0.009000000000000001	0.006	0.006	0.006	9.888052856445311	0.19213468322753904	0.05805939025878906	1.19781494140625	-2.750396728515625	-0.850677490234375	9.970054263305663	0.3142389678955078	0.08259995727539061	1.35040283203125	-5.123138427734375	-3.12042236328125	10.207080227661132	-0.1083376251220703	-0.6242880828857421	3.37982177734375	-4.360198974609375	-2.01416015625	
81	0.324	0.0	0.0	0.0	0.0	0.006	0.003	0.003	0.006	9.727641345214844	0.5410895751953124	0.3327940307617187	3.753662109375	-4.184722900390625	-0.621795654296875	9.620500820922851	0.7607575775146483	0.3591302490234375	0.40435791015625	-5.0811767578125	-2.105712890625	10.064625228881836	0.07781155395507812	-0.13766659545898435	3.66973876953125	-4.58526611328125	-1.819610595703125	
82	0.328	0.0	0.0	0.0	0.0	0.006	0.003	0.003	0.003	9.90241806640625	0.2885013000488281	0.0053869537353515625	1.89208984375	-3.21197509765625	-0.9918212890625	9.9461122467041	0.5638344909667968	0.06703764648437499	1.125335693359375	-4.81414794921875	-2.811431884765625	10.263942517089843	-0.11731588134765625	-0.6829460235595702	3.726959228515625	-4.63104248046875	-2.254486083984375	
83	0.332	0.0	0.0	0.0	0.0	0.006	0.006	0.006	0.003	9.750386260986328	0.4267664459228515	0.30466216125488277	3.95965576171875	-4.421234130859375	-0.77056884765625	9.64025298461914	0.508169302368164	0.3860650177001953	0.60272216796875	-4.802703857421875	-2.14385986328125	10.085574493408203	0.031124621582031248	-0.11791443176269531	3.360748291015625	-4.589080810546875	-1.9073486328125	
84	0.336	0.0	0.0	0.0	0.0	0.006	0.003	0.003	0.006	9.884461553955077	0.4267664459228515	-0.03531447448730469	2.376556396484375	-3.810882568359375	-0.7476806640625	9.842563024902343	0.5386953735351562	0.0017956512451171875	0.92315673828125	-5.0201416015625	-3.147125244140625	10.178948358154296	-0.0383072265625	-0.6452373474121094	3.631591796875	-4.543304443359375	-2.1820068359375	
85	0.34	0.0	0.0	0.0	0.0	0.006	0.003	0.003	0.003	9.705494979858399	0.4740519287109375	0.3136404174804687	4.638671875	-4.8980712890625	-0.980377197265625	9.666589202880859	0.34835634155273437	0.36810850524902344	0.34332275390625	-5.084991455078125	-2.4261474609375	10.031704956054687	0.2705447875976562	-0.16460136413574217	3.41796875	-4.8675537109375	-2.0294189453125	
86	0.34400000000000003	0.0	0.0	0.0	0.0	0.003	0.003	0.006	0.006	9.87727894897461	0.13766659545898435	0.023942016601562498	1.461029052734375	-2.9754638671875	-0.736236572265625	9.89463691101074	0.7009025360107421	-0.040701428222656245	1.346588134765625	-5.084991455078125	-3.23486328125	10.295067138671874	-0.14544775085449219	-0.6691793640136718	3.780364990234375	-4.41741943359375	-2.246856689453125	
87	0.34800000000000003	0.0	0.0	0.0	0.0	0.003	0.003	0.006	0.006	9.662399349975585	0.4608838195800781	0.36571430358886714	4.08935546875	-4.6844482421875	-0.972747802734375	9.623493572998047	0.373495458984375	0.3848679168701172	1.140594482421875	-4.962921142578125	-2.849578857421875	10.01075569152832	0.2693476867675781	-0.22206220397949217	3.25775146484375	-4.604339599609375	-1.857757568359375	
88	0.352	0.0	0.0	0.0	0.0	0.009000000000000001	0.006	0.003	0.003	9.81263550415039	0.034715924072265626	0.15382745666503905	0.698089599609375	-2.811431884765625	-0.89263916015625	9.807847100830077	0.7158662963867187	0.03172317199707031	1.129150390625	-5.062103271484375	-2.9449462890625	9.947907897949218	-0.14784195251464843	-0.3447650390625	3.35693359375	-5.001068115234375	-2.002716064453125	
89	0.356	0.0	0.0	0.0	0.0	0.006	0.006	0.003	0.003	9.923367330932617	-0.015562310791015624	-0.03890577697753906	1.27410888671875	-2.899169921875	-0.90789794921875	9.80066449584961	0.30885201416015623	0.2166752502441406	1.064300537109375	-5.0811767578125	-3.173828125	10.116699114990233	0.18136077575683593	-0.20949264526367187	3.505706787109375	-4.85992431640625	-1.82342529296875	
90	0.36	0.0	0.0	0.0	0.0	0.009000000000000001	0.006	0.003	0.003	9.829394915771484	0.0987608184814453	0.13946224670410157	0.904083251953125	-2.49481201171875	-1.02996826171875	9.906009368896484	0.5410895751953124	-0.02633621826171875	1.605987548828125	-5.130767822265625	-2.7618408203125	10.035296258544921	-0.2328361114501953	-0.4082113830566406	3.314971923828125	-4.734039306640625	-2.18963623046875	
91	0.364	0.0	0.0	0.0	0.0	0.003	0.003	0.003	0.003	9.890447058105469	-0.058657940673828124	-0.0796072052001953	1.277923583984375	-2.75421142578125	-0.90789794921875	9.665392102050781	0.47165772705078124	0.3124433166503906	0.690460205078125	-4.89044189453125	-3.0059814453125	9.769539874267577	0.13108254089355467	-0.02633621826171875	3.734588623046875	-4.589080810546875	-2.47955322265625	
92	0.368	0.0	0.0	0.0	0.0	0.003	0.003	0.003	0.006	9.841365924072266	0.2932897033691406	0.14903905334472656	1.125335693359375	-2.819061279296875	-0.751495361328125	9.735422500610351	0.43035774841308594	0.12150573425292968	0.67901611328125	-4.970550537109375	-2.643585205078125	10.063428128051758	-0.17776947326660156	-0.4333505004882812	3.36456298828125	-4.8980712890625	-2.071380615234375	
93	0.372	0.0	0.0	0.0	0.0	0.006	0.003	0.006	0.003	9.926360083007811	-0.21727380065917967	-0.1197100830078125	1.888275146484375	-3.337860107421875	-1.117706298828125	9.73661960144043	0.48243163452148435	0.2184709014892578	1.018524169921875	-4.9285888671875	-3.078460693359375	9.917980377197265	-0.0005985504150390625	-0.06883329772949218	3.742218017578125	-4.314422607421875	-2.471923828125	
94	0.376	0.0	0.0	0.0	0.0	0.003	0.003	0.006	0.006	9.89463691101074	0.27353753967285155	-0.10953472595214843	3.2196044921875	-4.3182373046875	-0.743865966796875	9.669581954956055	0.3896563201904297	0.10893617553710937	0.850677490234375	-5.06591796875	-3.04412841796875	9.928754284667969	-0.11252747802734374	-0.4255693450927734	3.688812255859375	-4.756927490234375	-2.05230712890625	
95	0.38	0.0	0.0	0.0	0.0	0.003	0.003	0.003	0.006	9.874286196899414	0.12509703674316405	-0.0796072052001953	2.2735595703125	-3.200531005859375	-0.8392333984375	9.649231240844726	0.603338818359375	0.20829554443359374	1.53350830078125	-5.10406494140625	-3.139495849609375	9.82580361328125	0.08259995727539061	-0.08140285644531249	3.80706787109375	-4.608154296875	-2.719879150390625	
96	0.384	0.0	0.0	0.0	0.0	0.003	0.006	0.003	0.003	9.955090502929687	-0.05566518859863281	-0.14006079711914063	3.261566162109375	-4.398345947265625	-1.148223876953125	9.781510882568359	0.30705636291503907	0.086191259765625	0.79345703125	-5.222320556640625	-3.0059814453125	9.926958633422851	0.0	0.03232172241210937	3.7384033203125	-4.669189453125	-2.063751220703125	
97	0.388	0.0	0.0	0.0	0.0	0.003	0.003	0.003	0.006	9.847949978637695	-0.1197100830078125	-0.06344634399414062	4.711151123046875	-3.765106201171875	-0.873565673828125	9.656413845825195	0.5548562347412109	0.15981296081542967	1.026153564453125	-4.726409912109375	-3.177642822265625	9.809044201660155	0.03651157531738281	-0.1406593475341797	3.936767578125	-4.21905517578125	-2.536773681640625	
98	0.392	0.0	0.0	0.0	0.0	0.006	0.003	0.006	0.006	9.93354268798828	0.41898529052734373	-0.1927332336425781	3.314971923828125	-4.375457763671875	-0.9002685546875	9.713276135253906	0.4165910888671875	0.20709844360351562	1.148223876953125	-5.146026611328125	-2.64739990234375	9.7545761138916	0.21906945190429686	0.01915361328125	3.437042236328125	-4.5928955078125	-1.8310546875	
99	0.396	0.0	0.0	0.0	0.0	0.003	0.006	0.003	0.006	9.913790524291992	-0.007781155395507812	0.1292868896484375	4.535675048828125	-5.10406494140625	-0.7171630859375	9.688137017822266	0.42377369384765623	0.22266075439453123	1.36566162109375	-4.734039306640625	-3.08990478515625	10.171765753173828	-0.2771288421630859	-0.22744915771484372	3.7078857421875	-4.467010498046875	-2.1514892578125	
100	0.4	0.0	0.0	0.0	0.0	0.003	0.006	0.003	0.003	10.021529598999022	-0.12509703674316405	-0.2867056488037109	2.23541259765625	-3.7689208984375	-0.8697509765625	9.81263550415039	0.3555389465332031	0.13407529296874998	0.823974609375	-5.153656005859375	-3.10516357421875	9.883264453125	0.11133037719726561	-0.040701428222656245	3.7689208984375	-4.596710205078125	-2.03704833984375	
101	0.404	0.0	0.0	0.0	0.0	0.006	0.003	0.003	0.003	9.904213717651366	0.5015852478027344	-0.0053869537353515625	4.863739013671875	-4.962921142578125	-0.5950927734375	9.819219558715819	0.613514175415039	0.051475335693359374	1.453399658203125	-4.894256591796875	-2.735137939453125	10.026318002319336	-0.14006079711914063	-0.2932897033691406	3.704071044921875	-4.543304443359375	-2.193450927734375	
102	0.40800000000000003	0.0	0.0	0.0	0.0	0.0	0.006	0.006	0.003	9.710881933593749	-0.016160861206054686	0.5237316131591797	4.2877197265625	-4.8370361328125	-0.9765625	9.791087689208984	0.3699041564941406	0.17776947326660156	0.823974609375	-5.229949951171875	-2.506256103515625	10.096348400878906	0.17477672119140625	-0.2537853759765625	3.787994384765625	-4.749298095703125	-2.14385986328125	
103	0.41200000000000003	0.0	0.0	0.0	0.0	0.006	0.006	0.003	0.003	9.947907897949218	-0.34237083740234375	-0.06105214233398437	3.505706787109375	-4.39453125	-0.972747802734375	9.984419473266602	0.4417302062988281	-0.022146365356445312	1.21307373046875	-4.73785400390625	-2.826690673828125	10.29207438659668	-0.3597287994384765	-0.45070846252441404	3.3721923828125	-4.337310791015625	-2.239227294921875	
104	0.41600000000000004	0.0	0.0	0.0	0.0	0.003	0.003	0.003	0.006	9.744400756835937	0.4477157104492187	0.32022447204589843	3.849029541015625	-4.20379638671875	-0.514984130859375	9.689334118652344	0.49679684448242184	0.4471171600341797	0.240325927734375	-4.913330078125	-2.742767333984375	10.05564697265625	0.2280477081298828	-0.31064766540527344	3.726959228515625	-4.581451416015625	-2.399444580078125	
105	0.42	0.0	0.0	0.0	0.0	0.006	0.003	0.003	0.003	9.906607919311522	0.5237316131591797	-0.07481880187988281	5.21087646484375	-5.329132080078125	-0.83160400390625	9.853336932373047	0.5225345123291015	0.03651157531738281	1.4190673828125	-4.627227783203125	-2.70843505859375	10.136451278686522	-0.29927520751953124	-0.3812766143798828	3.42559814453125	-4.497528076171875	-1.857757568359375	
106	0.424	0.0	0.0	0.0	0.0	0.003	0.003	0.006	0.003	9.712079034423828	-0.23822306518554687	0.4542997650146484	4.3487548828125	-4.917144775390625	-1.25885009765625	9.787496386718749	0.37828386230468747	0.39324762268066404	0.423431396484375	-4.802703857421875	-2.6702880859375	10.223241088867187	0.09756371765136718	-0.3854664672851562	3.742218017578125	-4.673004150390625	-2.3040771484375	
107	0.428	0.0	0.0	0.0	0.0	0.0	0.003	0.003	0.003	9.905410818481444	-0.39324762268066404	0.040102877807617184	-2.8076171875	-0.553131103515625	-0.255584716796875	9.892841259765625	0.527322915649414	-0.04848258361816406	1.270294189453125	-5.046844482421875	-3.22723388671875	10.241197601318358	-0.14963760375976562	-0.5901707092285156	3.498077392578125	-4.57000732421875	-1.705169677734375	
108	0.432	0.0	0.0	0.0	0.0	0.003	0.003	0.003	0.006	9.685742816162108	0.26216508178710934	0.36212300109863277	2.37274169921875	-3.4332275390625	-0.12969970703125	9.645041387939452	0.4638765716552734	0.4584896179199218	0.240325927734375	-5.100250244140625	-2.841949462890625	10.001777435302733	0.229843359375	-0.29867665710449215	3.70025634765625	-4.535675048828125	-2.1514892578125	
109	0.436	0.0	0.0	0.0	0.0	0.009000000000000001	0.003	0.003	0.003	9.841365924072266	0.4327519500732422	0.15203180541992187	1.918792724609375	-3.30352783203125	-1.38092041015625	10.032902056884765	0.4525041137695312	-0.16041151123046873	1.38092041015625	-5.039215087890625	-2.910614013671875	10.268132369995117	-0.12449848632812499	-0.5662286926269531	3.50189208984375	-4.852294921875	-1.804351806640625	
110	0.44	0.0	0.0	0.0	0.0	0.009000000000000001	0.006	0.003	0.003	9.679757312011718	0.22744915771484372	0.3950432739257812	4.974365234375	-5.79833984375	-1.445770263671875	9.808445651245117	0.4225765930175781	0.3399766357421875	0.30517578125	-5.802154541015625	-2.811431884765625	10.105925207519531	-0.086191259765625	-0.2962824554443359	3.383636474609375	-4.924774169921875	-2.23541259765625	
111	0.444	0.0	0.0	0.0	0.0	0.003	0.003	0.003	0.003	9.79348189086914	-0.7619546783447265	0.18914193115234373	-3.963470458984375	0.41961669921875	-0.545501708984375	9.906607919311522	0.49200844116210934	-0.1227028350830078	1.0833740234375	-4.66156005859375	-3.1280517578125	10.167575900268554	-0.028131869506835935	-0.594959112548828	3.429412841796875	-4.63104248046875	-1.80816650390625	
112	0.448	0.0	0.0	0.0	0.0	0.003	0.003	4.461	4.563	9.886257205200195	0.47884033203125	-0.010175357055664061	0.06866455078125	-2.2125244140625	-0.507354736328125	9.625289224243163	0.5907692596435546	0.3603273498535156	1.0986328125	-5.130767822265625	-3.086090087890625	9.98501802368164	-0.014963760375976562	-0.2262520568847656	3.330230712890625	-4.8675537109375	-2.197265625	
113	0.452	0.0	0.0	0.0	0.0	4.59	4.632	4.632	4.557	9.942520944213866	0.6661866119384765	-0.06284779357910156	1.09100341796875	-2.349853515625	-0.904083251953125	10.058041174316406	0.3968389251708984	-0.1945288848876953	1.7547607421875	-4.932403564453125	-2.960205078125	10.121487518310547	0.04908113403320312	-0.3848679168701172	3.42559814453125	-5.039215087890625	-1.86920166015625	
114	0.456	0.0	0.0	0.0	0.0	4.593	4.6290000000000004	4.632	4.575	9.821015209960937	0.12150573425292968	0.12150573425292968	3.0517578125	-3.79180908203125	-2.010345458984375	9.655815295410155	0.6069301208496093	0.3184288208007812	0.286102294921875	-4.993438720703125	-2.994537353515625	9.955689053344726	-0.023343466186523436	-0.24600422058105467	3.22723388671875	-4.69970703125	-2.3345947265625	
115	0.46	0.0	0.0	0.0	0.0	4.593	4.635	4.635	4.581	9.65342109375	-0.44412440795898434	0.1149216796875	-1.743316650390625	-1.232147216796875	-0.331878662109375	9.707290631103515	0.3651157531738281	0.16460136413574217	0.484466552734375	-5.100250244140625	-3.017425537109375	9.913191973876952	0.17956512451171874	-0.2705447875976562	3.6163330078125	-5.02777099609375	-1.99127197265625	
116	0.464	0.0	0.0	0.0	0.0	4.59	4.635	4.635	4.587	9.8694977935791	-0.7338228088378905	0.037110125732421874	-3.864288330078125	0.42724609375	-0.415802001953125	9.6917283203125	0.4961982940673828	0.3190273712158203	0.54168701171875	-5.18798828125	-3.28826904296875	10.071807833862303	-0.10354922180175781	-0.24600422058105467	4.0435791015625	-4.2266845703125	-2.437591552734375	
117	0.468	0.0	0.0	0.0	0.0	4.5840000000000005	4.6290000000000004	4.638	4.59	10.017938296508788	1.0277110626220702	-0.22744915771484372	4.436492919921875	-4.7149658203125	-0.720977783203125	9.891644158935547	0.36930560607910157	0.08020575561523437	1.171112060546875	-4.9896240234375	-3.032684326171875	10.06163247680664	0.1484405029296875	-0.33099837951660155	3.688812255859375	-4.924774169921875	-2.0751953125	
118	0.47200000000000003	0.0	0.0	0.0	0.0	4.59	4.632	4.626	4.5840000000000005	9.919177478027343	0.7146691955566405	-0.10414777221679687	2.74658203125	-3.12042236328125	-0.946044921875	9.56363853149414	0.5069722015380859	0.3435679382324219	0.789642333984375	-4.741668701171875	-2.956390380859375	9.682750064086914	-0.16340426330566404	0.09337386474609374	3.66973876953125	-3.997802734375	-2.460479736328125	
119	0.47600000000000003	0.0	0.0	0.0	0.0	4.59	4.632	4.632	4.563	9.87727894897461	0.5776011505126952	0.017956512451171875	6.046295166015625	-5.9814453125	-1.514434814453125	9.840168823242188	0.37289690856933594	0.12868833923339842	0.591278076171875	-4.962921142578125	-2.605438232421875	10.040084661865233	0.11073182678222655	-0.2825157958984375	3.383636474609375	-4.852294921875	-1.922607421875	
120	0.48	0.0	0.0	0.0	0.0	4.596	4.635	4.632	4.5600000000000005	9.858125335693359	-0.25917232971191406	0.21787235107421873	2.7618408203125	-3.940582275390625	-0.3662109375	9.644442837524414	0.47644613037109373	0.28311434631347654	0.553131103515625	-4.627227783203125	-3.292083740234375	9.847949978637695	-0.23104046020507812	0.003591302490234375	3.841400146484375	-4.32586669921875	-2.559661865234375	
121	0.484	0.0	0.0	0.0	0.0	4.596	4.6290000000000004	4.632	4.578	9.818022457885741	0.12449848632812499	0.17657237243652343	0.835418701171875	-2.750396728515625	-0.675201416015625	9.704896429443359	0.39264907226562495	0.20171148986816406	1.522064208984375	-5.08880615234375	-3.139495849609375	9.827000714111328	0.22685060729980466	0.0796072052001953	3.673553466796875	-4.650115966796875	-2.26593017578125	
122	0.488	0.0	0.0	0.0	0.0	4.59	4.635	4.635	4.5840000000000005	9.87727894897461	0.23582886352539062	0.16759411621093748	3.330230712890625	-3.94439697265625	-0.598907470703125	9.562441430664062	0.4991910461425781	0.4339490509033203	1.590728759765625	-4.89044189453125	-3.6773681640625	9.769539874267577	-0.18614917907714842	0.008379705810546874	4.058837890625	-4.608154296875	-2.47955322265625	
123	0.492	0.0	0.0	0.0	0.0	4.593	4.635	4.638	4.5840000000000005	9.919177478027343	0.22565350646972654	0.01915361328125	1.911163330078125	-2.61688232421875	-0.6561279296875	9.874884747314452	0.3220201232910156	0.13467384338378904	0.186920166015625	-4.92095947265625	-2.353668212890625	9.93354268798828	0.1897404815673828	-0.01915361328125	3.19671630859375	-4.23431396484375	-2.13623046875	
124	0.496	0.0	0.0	0.0	0.0	4.578	4.632	4.632	4.59	9.983222372436522	0.41359833679199215	-0.07481880187988281	6.145477294921875	-5.462646484375	-0.698089599609375	9.830592016601562	0.5087678527832031	0.06943184814453125	0.629425048828125	-4.749298095703125	-2.605438232421875	10.165181698608398	-0.23104046020507812	-0.3363853332519531	3.6773681640625	-4.207611083984375	-2.056121826171875	
125	0.5	0.0	0.0	0.0	0.0	4.59	4.6290000000000004	4.635	4.575	9.981426721191406	0.3908534210205078	-0.04848258361816406	8.01849365234375	-7.358551025390625	-0.83160400390625	9.7683427734375	0.40761283264160153	0.14305354919433594	0.4119873046875	-5.10406494140625	-2.277374267578125	9.79348189086914	0.2657563842773437	0.08080430603027343	3.326416015625	-4.39453125	-2.13623046875	
126	0.504	0.0	0.0	0.0	0.0	4.596	4.632	4.635	4.563	10.052055670166014	0.5584475372314452	-0.12330138549804687	7.854461669921875	-6.893157958984375	-0.621795654296875	9.861716638183593	0.5063736511230469	-0.023942016601562498	1.285552978515625	-5.14984130859375	-2.552032470703125	10.203488925170898	-0.17417817077636719	-0.3232172241210937	3.932952880859375	-4.302978515625	-2.03704833984375	
127	0.508	0.0	0.0	0.0	0.0	4.596	4.635	4.635	4.563	9.94012674255371	0.17597382202148437	0.0430956298828125	7.68280029296875	-6.992340087890625	-0.797271728515625	9.79408044128418	0.37289690856933594	0.03651157531738281	0.6866455078125	-4.940032958984375	-2.941131591796875	9.865307940673828	0.20769699401855468	-0.3130418670654297	3.814697265625	-4.8370361328125	-2.29644775390625	
128	0.512	0.0	0.0	0.0	0.0	0.009000000000000001	0.003	0.003	0.006	9.956886154174803	0.5530605834960938	0.05087678527832031	1.964569091796875	-3.4637451171875	-1.125335693359375	9.74859060974121	0.5009866973876953	0.10175357055664062	1.094818115234375	-4.93621826171875	-2.857208251953125	10.076596237182617	-0.07362170104980469	-0.3082534637451172	3.59344482421875	-4.390716552734375	-1.995086669921875	
129	0.516	0.0	0.0	0.0	0.0	0.003	0.003	0.003	0.003	9.841365924072266	0.06643909606933593	0.24301146850585936	5.7373046875	-5.86700439453125	-0.89263916015625	9.798270294189452	0.6009446166992187	0.24001871643066405	0.789642333984375	-5.1116943359375	-2.719879150390625	10.105326657104492	0.09337386474609374	-0.3010708587646484	3.795623779296875	-4.726409912109375	-2.2735595703125	
130	0.52	0.0	0.0	0.0	0.0	0.003	0.003	0.006	0.003	9.897031112670899	-0.2705447875976562	-0.06344634399414062	0.84686279296875	-2.64739990234375	-1.09100341796875	9.891644158935547	0.4447229583740234	0.0652419952392578	1.361846923828125	-4.94384765625	-3.063201904296875	10.228029492187499	-0.12988544006347655	-0.36631285400390623	3.864288330078125	-4.199981689453125	-2.239227294921875	
131	0.524	0.0	0.0	0.0	0.0	0.003	0.003	0.003	0.003	9.834183319091796	0.09995791931152344	0.26755203552246093	4.64630126953125	-5.207061767578125	-0.980377197265625	9.809044201660155	0.5746083984375	0.2693476867675781	0.49591064453125	-5.275726318359375	-2.590179443359375	10.052654220581054	0.07242460021972656	-0.30406361083984373	3.56292724609375	-4.482269287109375	-2.246856689453125	
132	0.528	0.0	0.0	0.0	0.0	0.003	0.003	0.003	0.003	9.882067352294921	-0.24899697265624998	-0.13826514587402344	0.4730224609375	-2.414703369140625	-0.74005126953125	9.86411083984375	0.46507367248535153	-0.013168109130859374	1.3885498046875	-5.1116943359375	-2.83050537109375	10.120290417480469	0.11911153259277343	-0.48662148742675776	3.498077392578125	-4.581451416015625	-1.708984375	
133	0.532	0.0	0.0	0.0	0.0	0.006	0.006	0.003	0.003	9.65342109375	-0.18854338073730467	0.29867665710449215	0.476837158203125	-2.368927001953125	-0.67138671875	9.879074600219726	0.4333505004882812	0.17657237243652343	0.5340576171875	-5.08880615234375	-2.532958984375	10.152612139892577	-0.02154781494140625	-0.3136404174804687	3.7078857421875	-4.566192626953125	-2.15911865234375	
134	0.536	0.0	0.0	0.0	0.0	0.003	0.003	0.003	0.003	9.926958633422851	-0.3651157531738281	-0.2184709014892578	0.980377197265625	-2.674102783203125	-0.823974609375	9.90840357055664	0.4961982940673828	-0.08140285644531249	1.44195556640625	-5.176544189453125	-3.19671630859375	10.262146865844725	0.06643909606933593	-0.5776011505126952	3.421783447265625	-4.505157470703125	-1.895904541015625	
135	0.54	0.0	0.0	0.0	0.0	-0.003	0.003	0.003	0.006	9.54448491821289	-0.029328970336914062	0.4321533996582031	0.5645751953125	-2.262115478515625	-1.02996826171875	9.603741409301758	0.6925228302001952	0.2885013000488281	1.06048583984375	-4.99725341796875	-2.98309326171875	9.90241806640625	-0.0053869537353515625	-0.06643909606933593	3.31878662109375	-4.764556884765625	-1.811981201171875	
136	0.544	0.0	0.0	0.0	0.0	0.006	0.003	0.006	0.003	9.849745629882811	-0.27832594299316404	-0.06045359191894531	1.09100341796875	-2.803802490234375	-0.812530517578125	9.886855755615233	0.5045779998779296	-0.008978256225585938	1.9073486328125	-5.001068115234375	-2.87628173828125	10.238803399658202	0.03232172241210937	-0.5309142181396485	3.444671630859375	-4.730224609375	-2.063751220703125	
137	0.548	0.0	0.0	0.0	0.0	0.003	0.006	0.003	0.0	9.602544308471678	-0.16819266662597654	0.45190556335449217	-0.530242919921875	-1.5869140625	-1.129150390625	9.73063409729004	0.6069301208496093	0.26695348510742184	1.110076904296875	-5.001068115234375	-3.2196044921875	10.040084661865233	-0.059256491088867186	-0.16879121704101563	3.406524658203125	-4.764556884765625	-1.9683837890625	
138	0.552	0.0	0.0	0.0	0.0	0.003	0.006	0.003	0.003	9.860519537353515	0.1753752716064453	0.08858546142578125	-1.28173828125	-0.988006591796875	-0.61798095703125	9.726444244384766	0.38845921936035155	0.3381809844970703	0.5950927734375	-5.260467529296875	-3.2958984375	9.957484704589843	0.0	-0.35314474487304687	3.631591796875	-4.673004150390625	-2.49481201171875	
139	0.556	0.0	0.0	0.0	0.0	0.003	0.006	0.003	0.006	9.611522564697266	-0.07122749938964844	0.39145197143554683	-1.88446044921875	-0.675201416015625	-0.988006591796875	9.715670336914062	0.6009446166992187	0.24001871643066405	0.514984130859375	-4.940032958984375	-2.895355224609375	9.925162982177733	0.015562310791015624	-0.07841010437011718	3.56292724609375	-5.04302978515625	-2.040863037109375	
140	0.56	0.0	0.0	0.0	0.0	0.0	0.003	0.006	0.003	9.930549935913085	0.17477672119140625	-0.05087678527832031	-0.133514404296875	-1.743316650390625	-0.576019287109375	9.76235726928711	0.35793314819335936	0.34835634155273437	0.60272216796875	-4.840850830078125	-2.857208251953125	10.013748443603514	-0.1131260284423828	-0.40402153015136716	3.37982177734375	-4.520416259765625	-2.262115478515625	
141	0.5640000000000001	0.0	0.0	0.0	0.0	0.006	0.003	0.003	0.006	9.675567459106444	0.14903905334472656	0.40222587890625	4.08935546875	-4.5318603515625	-0.743865966796875	9.734823950195311	0.44113165588378905	0.1975216369628906	0.576019287109375	-4.749298095703125	-3.116607666015625	9.965265859985351	0.06344634399414062	-0.10654197387695312	3.757476806640625	-4.5623779296875	-2.05230712890625	
142	0.5680000000000001	0.0	0.0	0.0	0.0	0.003	0.006	0.006	0.006	9.892841259765625	0.2561795776367187	0.023942016601562498	0.274658203125	-2.44903564453125	-0.90789794921875	9.71686743774414	0.39264907226562495	0.3962403747558593	0.3204345703125	-4.8065185546875	-3.08990478515625	9.91498762512207	-0.07841010437011718	-0.3902548706054687	3.7689208984375	-4.817962646484375	-2.25067138671875	
143	0.5720000000000001	0.0	0.0	0.0	0.0	0.006	0.006	0.003	0.006	9.922768780517577	0.2597708801269531	-0.03531447448730469	4.1656494140625	-4.61578369140625	-0.743865966796875	9.759963067626952	0.38786066894531246	0.2088940948486328	0.48065185546875	-4.5318603515625	-2.86865234375	9.829394915771484	0.12988544006347655	-0.005985504150390624	3.780364990234375	-4.665374755859375	-2.277374267578125	
144	0.5760000000000001	0.0	0.0	0.0	0.0	0.006	0.006	0.003	0.006	9.91438907470703	0.3812766143798828	-0.054468087768554684	1.270294189453125	-2.655029296875	-0.69427490234375	9.715670336914062	0.354341845703125	0.03411737365722656	0.911712646484375	-4.741668701171875	-2.60162353515625	9.923965881347655	-0.10295067138671875	-0.3854664672851562	3.42559814453125	-4.467010498046875	-2.35748291015625	
145	0.58	0.0	0.0	0.0	0.0	0.006	0.003	0.003	0.006	9.916783276367187	0.3806780639648437	-0.030526071166992186	4.840850830078125	-4.9896240234375	-0.705718994140625	9.750386260986328	0.44891281127929683	0.16220716247558592	0.682830810546875	-4.96673583984375	-3.093719482421875	9.784503634643555	0.16879121704101563	-0.015562310791015624	3.612518310546875	-4.337310791015625	-2.11334228515625	
146	0.584	0.0	0.0	0.0	0.0	0.003	0.003	0.003	0.006	9.996989031982421	0.08499415893554688	-0.14784195251464843	6.77490234375	-6.70623779296875	-0.81634521484375	9.783905084228515	0.31543606872558594	-0.061650692749023434	0.682830810546875	-5.001068115234375	-2.60162353515625	9.916783276367187	-0.22505495605468748	-0.025139117431640625	3.650665283203125	-4.79888916015625	-1.842498779296875	
147	0.588	0.0	0.0	0.0	0.0	0.006	0.003	0.003	0.006	9.94072529296875	0.3112462158203125	-0.05626373901367187	5.702972412109375	-5.603790283203125	-0.736236572265625	9.828197814941406	0.41898529052734373	0.016160861206054686	1.110076904296875	-4.978179931640625	-2.986907958984375	9.80665	0.14604630126953125	-0.03232172241210937	3.875732421875	-4.5623779296875	-2.51007080078125	
148	0.592	0.0	0.0	0.0	0.0	0.009000000000000001	0.006	0.006	0.003	9.932345587158203	0.10175357055664062	-0.105344873046875	6.481170654296875	-6.664276123046875	-1.041412353515625	9.6917283203125	0.31004911499023435	-0.03531447448730469	1.010894775390625	-5.035400390625	-2.471923828125	9.820416659545899	-0.13826514587402344	0.03890577697753906	3.757476806640625	-4.38690185546875	-2.231597900390625	
149	0.596	0.0	0.0	0.0	0.0	-0.003	0.003	0.003	0.006	9.91558617553711	0.36631285400390623	-0.044891281127929686	6.8511962890625	-6.679534912109375	-0.835418701171875	9.843161575317382	0.48662148742675776	0.0047884033203125	1.415252685546875	-4.985809326171875	-2.8839111328125	10.210671530151366	0.037110125732421874	-0.3705027069091797	3.59344482421875	-4.3487548828125	-2.0599365234375	
150	0.6	0.0	0.0	0.0	0.0	0.006	0.006	0.003	0.006	9.944316595458984	-0.11013327636718749	-0.04608838195800781	6.214141845703125	-6.378173828125	-1.026153564453125	9.71686743774414	0.2328361114501953	0.008978256225585938	0.8697509765625	-4.9896240234375	-2.857208251953125	9.8694977935791	-0.1849520782470703	0.03411737365722656	3.475189208984375	-4.459381103515625	-2.262115478515625	
151	0.604	0.0	0.0	0.0	0.0	0.006	0.006	0.003	0.003	9.804854348754882	-0.19931728820800781	0.12449848632812499	2.216339111328125	-3.42559814453125	-1.033782958984375	9.755773214721678	0.622492431640625	0.033518823242187495	1.65557861328125	-5.0048828125	-3.387451171875	10.155006341552733	0.03411737365722656	-0.3687070556640625	3.31878662109375	-4.4403076171875	-2.239227294921875	
152	0.608	0.0	0.0	0.0	0.0	0.003	0.003	0.006	0.006	9.872490545654296	-0.08200140686035155	0.09636661682128905	5.176544189453125	-5.63812255859375	-0.957489013671875	9.835380419921874	0.277727392578125	0.37888241271972656	0.51116943359375	-4.98199462890625	-2.773284912109375	9.87608184814453	-0.10893617553710937	0.0909796630859375	3.631591796875	-4.703521728515625	-2.105712890625	
153	0.612	0.0	0.0	0.0	0.0	0.006	0.003	0.003	0.003	9.794678991699218	-0.1897404815673828	0.2376245147705078	1.41143798828125	-2.353668212890625	-1.010894775390625	9.83777462158203	0.565031591796875	0.15023615417480468	1.689910888671875	-4.825592041015625	-3.238677978515625	10.244788903808594	-0.08559270935058594	-0.25438392639160157	3.261566162109375	-4.093170166015625	-2.1820068359375	
154	0.616	0.0	0.0	0.0	0.0	0.006	0.006	0.006	0.003	9.83777462158203	-0.3268085266113281	0.2214636535644531	0.40435791015625	-2.254486083984375	-0.87738037109375	9.822810861206055	0.2615665313720703	0.41419688720703124	0.598907470703125	-4.970550537109375	-3.078460693359375	10.1131078125	0.06763619689941405	-0.2609679809570312	3.368377685546875	-4.64630126953125	-1.8463134765625	
155	0.62	0.0	0.0	0.0	0.0	0.003	0.003	0.003	0.003	9.775525378417969	-0.03591302490234375	0.26695348510742184	0.453948974609375	-2.227783203125	-0.667572021484375	9.83178911743164	0.7356184600830078	0.14185644836425781	1.01470947265625	-4.8370361328125	-2.73895263671875	10.165780249023436	-0.05027823486328125	-0.3064578125	3.536224365234375	-4.528045654296875	-1.972198486328125	
156	0.624	0.0	0.0	0.0	0.0	0.0	0.003	0.003	0.006	9.763554370117188	0.2454056701660156	0.31064766540527344	1.331329345703125	-2.834320068359375	-0.67901611328125	9.945513696289062	0.28431144714355466	0.36691140441894526	0.2593994140625	-4.93621826171875	-2.956390380859375	10.235212097167969	0.09337386474609374	-0.35793314819335936	3.589630126953125	-4.72259521484375	-1.865386962890625	
157	0.628	0.0	0.0	0.0	0.0	0.006	0.003	0.003	0.003	9.87069489440918	0.0652419952392578	0.14544775085449219	1.35040283203125	-2.685546875	-0.72479248046875	9.934739788818359	0.5692214447021484	0.0383072265625	1.087188720703125	-4.940032958984375	-2.544403076171875	10.166977349853514	-0.25797522888183594	-0.5536591339111328	3.543853759765625	-4.611968994140625	-2.468109130859375	
158	0.632	0.0	0.0	0.0	0.0	0.006	0.003	0.006	0.003	9.708487731933593	0.36092590026855464	0.36212300109863277	2.8839111328125	-3.986358642578125	-0.823974609375	9.597157354736327	0.5033808990478515	0.2932897033691406	0.69427490234375	-4.96673583984375	-2.719879150390625	9.990404977416992	0.2346317626953125	-0.258573779296875	3.520965576171875	-4.695892333984375	-1.82342529296875	
159	0.636	0.0	0.0	0.0	0.0	0.003	0.006	0.003	0.006	9.911396322631836	0.11671733093261719	-0.06105214233398437	1.19781494140625	-2.9296875	-0.682830810546875	9.957484704589843	0.5482721801757812	-0.00718260498046875	1.007080078125	-4.779815673828125	-2.330780029296875	10.229226593017577	-0.14903905334472656	-0.651821401977539	3.62396240234375	-4.7149658203125	-2.09808349609375	
160	0.64	0.0	0.0	0.0	0.0	0.003	0.006	0.006	0.003	9.73661960144043	0.46148236999511716	0.3752911102294922	4.43267822265625	-4.825592041015625	-0.89263916015625	9.679158761596678	0.479438882446289	0.3752911102294922	0.789642333984375	-5.031585693359375	-2.86102294921875	10.10712230834961	0.10235212097167969	-0.17597382202148437	3.299713134765625	-4.795074462890625	-1.995086669921875	
161	0.644	0.0	0.0	0.0	0.0	0.003	0.003	0.006	0.003	9.805452899169921	0.239420166015625	0.15023615417480468	0.8392333984375	-2.3956298828125	-0.995635986328125	9.841964474487304	0.5201403106689453	-0.037110125732421874	1.06048583984375	-4.92095947265625	-3.2806396484375	10.061033926391602	-0.1322796417236328	-0.49200844116210934	3.54766845703125	-4.482269287109375	-2.155303955078125	
162	0.648	0.0	0.0	0.0	0.0	0.003	0.003	0.003	0.006	9.631873278808593	0.34656069030761716	0.48123453369140623	3.826141357421875	-4.306793212890625	-0.812530517578125	9.588777648925781	0.6913257293701172	0.4129997863769531	0.48065185546875	-5.18798828125	-2.872467041015625	9.87608184814453	0.2950853546142578	-0.1005564697265625	3.475189208984375	-4.730224609375	-2.216339111328125	
163	0.652	0.0	0.0	0.0	0.0	0.003	0.006	0.003	0.003	9.816825357055663	0.051475335693359374	0.21727380065917967	-0.667572021484375	-1.51824951171875	-0.759124755859375	10.008960040283203	0.3705027069091797	-0.08798691101074219	1.13677978515625	-5.092620849609375	-3.30352783203125	10.350732327270507	-0.3226186737060547	-0.5518634826660156	3.73077392578125	-5.191802978515625	-2.06756591796875	
164	0.656	0.0	0.0	0.0	0.0	0.003	0.003	0.003	0.006	9.988010775756836	-0.052073886108398436	-0.20829554443359374	1.18255615234375	-2.6702880859375	-1.0833740234375	9.739612353515625	0.5045779998779296	0.15562310791015624	0.84686279296875	-4.93621826171875	-2.910614013671875	10.027515103149414	0.11851298217773437	-0.2723404388427734	3.582000732421875	-4.852294921875	-2.407073974609375	
165	0.66	0.0	0.0	0.0	0.0	0.006	0.003	0.006	0.006	9.771934075927733	0.34237083740234375	0.22864625854492185	-0.244140625	-1.251220703125	-0.637054443359375	9.801263046264648	0.679953271484375	0.03651157531738281	1.018524169921875	-5.05828857421875	-3.208160400390625	9.781510882568359	0.09457096557617187	-0.29927520751953124	3.559112548828125	-4.886627197265625	-1.85394287109375	
166	0.664	0.0	0.0	0.0	0.0	0.006	0.006	0.006	0.009000000000000001	9.945513696289062	0.061650692749023434	-0.105344873046875	2.201080322265625	-3.520965576171875	-0.99945068359375	9.715670336914062	0.39145197143554683	0.29269115295410153	0.69427490234375	-4.878997802734375	-2.849578857421875	10.073603485107421	0.06703764648437499	-0.16220716247558592	3.57818603515625	-4.96673583984375	-2.227783203125	
167	0.668	0.0	0.0	0.0	0.0	0.003	0.003	0.006	0.006	9.910199221801758	0.17896657409667968	0.08140285644531249	4.222869873046875	-4.791259765625	-1.064300537109375	9.87608184814453	0.32501287536621093	0.030526071166992186	0.9002685546875	-5.0811767578125	-3.017425537109375	10.127473022460936	-0.12988544006347655	-0.3076549133300781	3.765106201171875	-4.8370361328125	-2.2735595703125	
168	0.672	0.0	0.0	0.0	0.0	0.006	0.006	0.003	0.006	9.834183319091796	0.2645592834472656	0.08200140686035155	2.651214599609375	-3.6773681640625	-0.759124755859375	9.51874725036621	0.5111620544433594	0.354940396118164	0.713348388671875	-4.665374755859375	-3.173828125	9.629479077148437	0.003591302490234375	0.06823474731445311	3.963470458984375	-4.253387451171875	-2.7313232421875	
169	0.676	0.0	0.0	0.0	0.0	0.003	0.003	0.003	0.009000000000000001	9.904812268066406	0.3711012573242187	-0.08978256225585937	4.001617431640625	-4.8828125	-0.78582763671875	9.706093530273437	0.5135562561035156	0.0987608184814453	0.804901123046875	-5.008697509765625	-2.506256103515625	9.930549935913085	0.11911153259277343	-0.24899697265624998	3.53240966796875	-4.64630126953125	-1.9073486328125	
170	0.68	0.0	0.0	0.0	0.0	0.006	0.006	0.006	0.006	9.955689053344726	0.12569558715820311	0.007781155395507812	2.9754638671875	-3.8299560546875	-0.93841552734375	9.827000714111328	0.29089550170898437	0.29448680419921874	1.064300537109375	-4.833221435546875	-2.880096435546875	9.983820922851562	-0.2759317413330078	0.076614453125	3.856658935546875	-4.413604736328125	-2.66265869140625	
171	0.684	0.0	0.0	0.0	0.0	0.006	0.003	0.003	4.578	9.934739788818359	0.43993455505371093	-0.11731588134765625	4.451751708984375	-5.07354736328125	-0.888824462890625	9.667786303710937	0.48542438659667964	0.07841010437011718	0.96893310546875	-5.001068115234375	-3.0517578125	9.897629663085937	0.1867477294921875	0.02154781494140625	3.7841796875	-4.558563232421875	-2.14385986328125	
172	0.6880000000000001	0.0	0.0	0.0	0.0	4.578	4.626	4.632	4.578	9.868899243164062	0.3854664672851562	0.03591302490234375	5.98907470703125	-5.718231201171875	-0.70953369140625	9.581595043945311	0.5758054992675781	0.19812018737792966	0.732421875	-4.894256591796875	-2.76947021484375	9.680954412841796	0.001197100830078125	-0.1406593475341797	3.368377685546875	-4.360198974609375	-2.47955322265625	
173	0.6920000000000001	0.0	0.0	0.0	0.0	4.59	4.632	4.635	4.563	10.050858569335936	0.20709844360351562	-0.15382745666503905	4.520416259765625	-5.2490234375	-0.675201416015625	9.94072529296875	0.2723404388427734	0.040102877807617184	0.385284423828125	-5.4931640625	-2.655029296875	10.098742602539062	0.1657984649658203	-0.023942016601562498	3.391265869140625	-4.4403076171875	-1.79290771484375	
174	0.6960000000000001	0.0	0.0	0.0	0.0	4.596	4.635	4.632	4.5600000000000005	10.032902056884765	0.023942016601562498	-0.15382745666503905	6.351470947265625	-5.718231201171875	-0.926971435546875	9.759364517211914	0.3280056274414062	0.13826514587402344	1.064300537109375	-4.886627197265625	-3.22723388671875	9.853935482788085	-0.29388825378417965	-0.12030863342285156	3.513336181640625	-4.543304443359375	-2.197265625	
175	0.7000000000000001	0.0	0.0	0.0	0.0	4.593	4.6290000000000004	4.6290000000000004	4.581	9.874286196899414	0.6039373687744141	-0.05985504150390625	4.596710205078125	-4.8828125	-0.766754150390625	9.617508068847656	0.6829460235595702	0.22445640563964842	0.576019287109375	-5.344390869140625	-2.498626708984375	9.613916766357422	0.5680243438720702	0.10175357055664062	3.810882568359375	-4.489898681640625	-1.922607421875	
176	0.704	0.0	0.0	0.0	0.0	4.596	4.638	4.635	4.5840000000000005	9.89463691101074	0.18854338073730467	0.029927520751953124	6.46209716796875	-5.889892578125	-0.637054443359375	9.713874685668944	0.43574470214843747	0.2651578338623047	1.0986328125	-4.810333251953125	-2.979278564453125	10.229226593017577	-0.2759317413330078	-0.4255693450927734	3.60870361328125	-4.5013427734375	-1.827239990234375	
177	0.708	0.0	0.0	0.0	0.0	4.59	4.635	4.638	4.5840000000000005	9.93414123840332	-0.1322796417236328	0.13766659545898435	4.375457763671875	-4.9285888671875	-1.0986328125	10.06163247680664	0.1945288848876953	-0.03651157531738281	0.492095947265625	-4.90570068359375	-2.76947021484375	10.152013589477539	0.08259995727539061	-0.10115502014160156	3.73077392578125	-4.45556640625	-2.29644775390625	
178	0.712	0.0	0.0	0.0	0.0	4.578	4.635	4.632	4.593	9.910199221801758	0.30466216125488277	-0.017956512451171875	6.0882568359375	-5.59234619140625	-0.762939453125	9.83178911743164	0.7116764434814453	-0.09756371765136718	1.6937255859375	-4.848480224609375	-3.047943115234375	10.067617980957031	-0.0987608184814453	-0.5039794494628906	3.7994384765625	-4.489898681640625	-2.20489501953125	
179	0.716	0.0	0.0	0.0	0.0	4.593	4.632	4.635	4.572	9.721057290649414	0.14903905334472656	0.34177228698730466	4.261016845703125	-5.176544189453125	-0.640869140625	9.702502227783203	0.34057518615722654	0.3459621398925781	0.48828125	-5.0048828125	-2.170562744140625	9.888052856445311	0.3280056274414062	-0.3130418670654297	3.84521484375	-4.673004150390625	-2.254486083984375	
180	0.72	0.0	0.0	0.0	0.0	4.593	4.635	4.638	4.563	10.041281762695311	0.07302315063476562	-0.0939724151611328	0.347137451171875	-2.5482177734375	-0.762939453125	10.187328063964843	0.3190273712158203	-0.19033903198242186	1.46484375	-4.8370361328125	-2.956390380859375	10.572794531249999	-0.5309142181396485	-0.5410895751953124	3.826141357421875	-4.482269287109375	-2.033233642578125	
181	0.724	0.0	0.0	0.0	0.0	4.599	4.638	4.635	4.566	9.859920986938477	0.06045359191894531	0.08259995727539061	5.161285400390625	-5.31768798828125	-0.96893310546875	9.704297879028319	0.6159083770751953	0.09696516723632811	0.67901611328125	-5.008697509765625	-2.81524658203125	10.117896215820313	0.11192892761230468	-0.4914098907470703	3.6773681640625	-4.608154296875	-2.391815185546875	
182	0.728	0.0	0.0	0.0	0.0	4.593	4.623	4.632	0.006	9.757568865966796	0.037110125732421874	0.011971008300781249	0.518798828125	-2.338409423828125	-0.652313232421875	9.721655841064452	0.5434837768554687	0.15861585998535155	0.957489013671875	-5.06591796875	-2.422332763671875	9.898228213500976	0.2813186950683594	-0.508169302368164	3.231048583984375	-4.6539306640625	-1.3885498046875	
183	0.732	0.0	0.0	0.0	0.0	0.003	0.003	0.003	0.006	9.85632968444824	-0.08080430603027343	0.29388825378417965	5.054473876953125	-5.832672119140625	-1.03759765625	9.834183319091796	0.4961982940673828	0.21248539733886718	0.865936279296875	-4.924774169921875	-2.66265869140625	10.396222158813476	-0.17657237243652343	-0.4016273284912109	3.448486328125	-4.69207763671875	-2.086639404296875	
184	0.736	0.0	0.0	0.0	0.0	0.006	0.006	0.006	0.003	9.966462960815429	-0.35673604736328124	-0.14484920043945312	0.286102294921875	-1.972198486328125	-1.293182373046875	10.05564697265625	0.32082302246093747	-0.20171148986816406	1.4495849609375	-5.1422119140625	-3.4637451171875	10.392032305908202	-0.0939724151611328	-0.7050923889160156	3.19671630859375	-4.75311279296875	-2.0904541015625	
185	0.74	0.0	0.0	0.0	0.0	0.003	0.003	0.003	0.003	9.616310968017578	0.15083470458984374	0.2519897247314453	-0.8392333984375	-1.407623291015625	-0.8392333984375	9.43016178894043	0.766743081665039	0.4734533782958984	0.48828125	-4.924774169921875	-2.590179443359375	9.785700735473633	0.24001871643066405	-0.24361001892089842	3.246307373046875	-4.314422607421875	-2.063751220703125	
186	0.744	0.0	0.0	0.0	0.0	0.003	0.003	0.003	0.0	9.828796365356444	-0.31064766540527344	0.13946224670410157	-1.026153564453125	-1.6326904296875	-0.7171630859375	9.95987890625	0.28969840087890625	0.0939724151611328	0.9002685546875	-4.962921142578125	-2.98309326171875	10.297461340332031	-0.052073886108398436	-0.5668272430419922	3.21197509765625	-4.550933837890625	-1.51824951171875	
187	0.748	0.0	0.0	0.0	0.0	0.003	0.003	0.006	0.003	9.888052856445311	-0.14784195251464843	0.07122749938964844	-0.347137451171875	-1.54876708984375	-1.361846923828125	9.912593423461914	0.42377369384765623	0.14903905334472656	0.98419189453125	-4.985809326171875	-3.147125244140625	10.238204849243164	-0.36691140441894526	-0.26874913635253905	3.711700439453125	-4.82940673828125	-2.254486083984375	
188	0.752	0.0	0.0	0.0	0.0	0.003	0.006	0.003	0.006	9.721655841064452	0.10175357055664062	0.16699556579589842	-0.125885009765625	-1.67083740234375	-0.957489013671875	9.744400756835937	0.49739539489746093	0.012569558715820313	0.91552734375	-4.85992431640625	-3.345489501953125	9.973645565795898	0.20530279235839843	-0.5087678527832031	3.498077392578125	-4.772186279296875	-2.197265625	
189	0.756	0.0	0.0	0.0	0.0	0.003	0.003	0.003	0.003	9.661800799560547	-0.09217676391601562	0.4417302062988281	-1.285552978515625	-1.35040283203125	-0.6103515625	9.572018237304688	0.6141127258300781	0.3651157531738281	0.812530517578125	-4.810333251953125	-2.712249755859375	9.796474642944336	-0.06105214233398437	-0.05386953735351562	3.757476806640625	-5.016326904296875	-1.77001953125	
190	0.76	0.0	0.0	0.0	0.0	0.006	0.003	0.006	0.006	10.014945544433592	0.1640028137207031	-0.09995791931152344	1.2054443359375	-3.173828125	-0.644683837890625	10.135852728271484	0.2711433380126953	-0.1083376251220703	0.579833984375	-5.18798828125	-3.05938720703125	10.155006341552733	-0.1484405029296875	-0.33698388366699217	3.742218017578125	-4.596710205078125	-2.37274169921875	
191	0.764	0.0	0.0	0.0	0.0	0.003	0.003	0.003	0.006	9.8449572265625	0.2346317626953125	0.143652099609375	-0.240325927734375	-1.605987548828125	-1.1138916015625	9.673771807861328	0.5482721801757812	0.2507926239013672	1.277923583984375	-4.9896240234375	-3.53240966796875	9.90840357055664	-0.11432312927246092	-0.15682020874023436	3.673553466796875	-4.7760009765625	-2.330780029296875	
192	0.768	0.0	0.0	0.0	0.0	0.006	0.006	0.006	0.003	9.807847100830077	0.4722562774658203	0.07900865478515624	2.475738525390625	-3.643035888671875	-0.598907470703125	9.4618849609375	0.4255693450927734	0.469263525390625	0.705718994140625	-4.863739013671875	-2.8533935546875	9.65342109375	0.13407529296874998	-0.13347674255371092	3.566741943359375	-4.642486572265625	-2.170562744140625	
193	0.772	0.0	0.0	0.0	0.0	0.003	0.003	0.006	0.003	9.93354268798828	-0.07302315063476562	0.11611878051757812	5.706787109375	-5.57708740234375	-0.37384033203125	9.87668039855957	0.5315127685546874	0.17597382202148437	1.079559326171875	-5.85174560546875	-3.032684326171875	9.878476049804688	-0.03890577697753906	0.08319850769042968	3.604888916015625	-4.364013671875	-2.1820068359375	
194	0.776	0.0	0.0	0.0	0.0	0.006	0.003	0.003	0.006	10.091559997558592	0.45070846252441404	-0.3130418670654297	3.101348876953125	-3.7841796875	-0.873565673828125	9.847949978637695	0.1867477294921875	0.13168109130859373	0.568389892578125	-4.848480224609375	-2.933502197265625	10.078391888427733	-0.1131260284423828	-0.4165910888671875	3.59344482421875	-4.444122314453125	-2.834320068359375	
195	0.78	0.0	0.0	0.0	0.0	0.003	0.003	0.006	0.006	9.861716638183593	0.5129577056884765	0.0909796630859375	6.88934326171875	-6.191253662109375	-0.77056884765625	9.507374792480467	0.6003460662841796	0.27952304382324217	0.8544921875	-4.695892333984375	-2.90679931640625	9.67856021118164	0.17118541870117188	-0.010773907470703125	3.719329833984375	-4.283905029296875	-1.88446044921875	
196	0.784	0.0	0.0	0.0	0.0	0.006	0.003	0.003	0.006	9.962273107910155	0.4896142395019531	-0.1610100616455078	3.8909912109375	-4.4708251953125	-0.80108642578125	9.738415252685547	0.34656069030761716	0.2328361114501953	0.42724609375	-4.917144775390625	-2.574920654296875	9.874286196899414	-0.06763619689941405	-0.24779987182617186	3.696441650390625	-4.79888916015625	-2.06756591796875	
197	0.788	0.0	0.0	0.0	0.0	0.006	0.006	0.003	0.009000000000000001	10.054449871826172	0.30885201416015623	-0.13826514587402344	7.4005126953125	-6.84356689453125	-0.637054443359375	9.843161575317382	0.3022679595947265	0.037708676147460936	1.15203857421875	-4.962921142578125	-2.86865234375	10.043675964355469	-0.023942016601562498	-0.05805939025878906	3.814697265625	-4.28009033203125	-2.3651123046875	
198	0.792	0.0	0.0	0.0	0.0	0.006	0.003	0.006	0.003	9.962273107910155	-0.18435352783203124	-0.04369418029785156	5.7525634765625	-5.94329833984375	-0.9918212890625	9.700706576538085	0.42796354675292964	0.062249243164062495	1.194000244140625	-5.157470703125	-3.25775146484375	9.87009634399414	-0.19033903198242186	0.08020575561523437	3.7078857421875	-4.375457763671875	-2.23541259765625	
199	0.796	0.0	0.0	0.0	0.0	0.003	0.003	0.003	0.006	9.814431155395507	0.3890577697753906	0.1352723937988281	7.2021484375	-6.771087646484375	-0.591278076171875	9.488221179199218	0.4734533782958984	0.3495534423828125	0.9307861328125	-4.82940673828125	-2.69317626953125	9.594164602661133	0.32142157287597656	0.19812018737792966	3.71551513671875	-4.596710205078125	-2.3193359375	
200	0.8	0.0	0.0	0.0	0.0	0.003	0.003	0.003	0.003	9.95987890625	-0.3489548919677734	0.08020575561523437	5.123138427734375	-5.352020263671875	-0.766754150390625	9.883264453125	0.35134909362792965	0.07721300354003906	1.1444091796875	-5.27191162109375	-2.8533935546875	10.091559997558592	-0.24061726684570311	0.052073886108398436	3.520965576171875	-4.425048828125	-1.857757568359375	
201	0.804	0.0	0.0	0.0	0.0	0.003	0.006	0.003	0.003	9.93414123840332	0.10773907470703124	-0.022146365356445312	6.12640380859375	-5.878448486328125	-0.812530517578125	9.97783541870117	0.4991910461425781	0.05746083984375	1.8157958984375	-4.856109619140625	-3.292083740234375	10.356119281005858	-0.055066638183593745	-0.36930560607910157	3.520965576171875	-4.425048828125	-2.46429443359375	
202	0.808	0.0	0.0	0.0	0.0	0.003	0.003	0.003	0.003	9.731232647705077	-0.02454056701660156	0.2932897033691406	3.177642822265625	-4.23431396484375	-1.0223388671875	9.537302313232422	0.5458779785156249	0.3274070770263672	1.44195556640625	-5.06591796875	-3.101348876953125	9.724050042724608	0.016759411621093748	0.14006079711914063	3.444671630859375	-4.5623779296875	-1.708984375	
203	0.812	0.0	0.0	0.0	0.0	0.006	0.006	0.003	0.003	9.757568865966796	-0.1370680450439453	0.26815058593749996	0.0762939453125	-2.056121826171875	-0.591278076171875	9.94730934753418	0.5698199951171875	0.18136077575683593	1.3275146484375	-4.913330078125	-2.7618408203125	10.25975266418457	0.0047884033203125	-0.34057518615722654	3.643035888671875	-4.367828369140625	-2.178192138671875	
204	0.8160000000000001	0.0	0.0	0.0	0.0	0.006	0.006	0.003	0.003	9.938929641723632	-0.3633201019287109	0.1484405029296875	2.269744873046875	-3.559112548828125	-1.110076904296875	10.02392380065918	0.22266075439453123	0.32022447204589843	0.1068115234375	-4.856109619140625	-2.90679931640625	10.386046801757812	-0.07003039855957031	-0.4112041351318359	3.505706787109375	-4.550933837890625	-1.842498779296875	
205	0.8200000000000001	0.0	0.0	0.0	0.0	0.009000000000000001	0.006	0.003	0.006	9.781510882568359	0.15023615417480468	0.11731588134765625	0.18310546875	-1.880645751953125	-0.8544921875	9.734225399780273	0.766743081665039	0.22685060729980466	1.369476318359375	-4.886627197265625	-2.8839111328125	10.044873065185547	0.1131260284423828	-0.27952304382324217	3.54766845703125	-4.150390625	-2.437591552734375	
206	0.8240000000000001	0.0	0.0	0.0	0.0	0.006	0.003	0.003	0.003	9.834781869506836	-0.01975216369628906	0.2214636535644531	2.22015380859375	-3.406524658203125	-0.8392333984375	9.654618194580078	0.36391865234375	0.5189432098388671	0.507354736328125	-5.11932373046875	-2.655029296875	9.95389340209961	0.21308394775390624	-0.19153613281249998	3.47900390625	-4.64630126953125	-1.64031982421875	
207	0.8280000000000001	0.0	0.0	0.0	0.0	0.006	0.006	0.003	0.003	9.981426721191406	-0.10594342346191406	-0.14125789794921875	1.399993896484375	-2.75421142578125	-0.90789794921875	10.073004934692381	0.6075286712646484	-0.1466448516845703	1.16729736328125	-5.25665283203125	-2.7313232421875	10.509946737670898	-0.24899697265624998	-0.6165069274902344	3.41796875	-4.5928955078125	-1.96075439453125	
208	0.8320000000000001	0.0	0.0	0.0	0.0	0.003	0.003	0.006	0.003	9.715071786499022	0.21966800231933592	0.26874913635253905	2.46429443359375	-3.19671630859375	-0.904083251953125	9.742605105590819	0.4285620971679687	0.4100070343017578	0.61798095703125	-4.955291748046875	-2.838134765625	10.126275921630858	0.18255787658691405	-0.30526071166992186	3.612518310546875	-4.547119140625	-2.14385986328125	
209	0.836	0.0	0.0	0.0	0.0	0.003	0.006	0.006	0.003	9.752780462646484	0.18136077575683593	0.10354922180175781	0.9918212890625	-3.0975341796875	-0.70953369140625	9.765948571777344	0.7350199096679687	0.015562310791015624	1.506805419921875	-4.90570068359375	-2.777099609375	9.943119494628906	-0.022146365356445312	-0.41838674011230464	3.54766845703125	-4.802703857421875	-2.010345458984375	
210	0.84	0.0	0.0	0.0	0.0	0.003	0.003	0.003	0.003	9.698910925292969	0.27293898925781246	0.3016694091796875	2.86865234375	-3.772735595703125	-0.9613037109375	9.938331091308592	0.4560954162597656	0.421978042602539	0.484466552734375	-4.856109619140625	-2.86865234375	10.299855541992187	0.16160861206054686	-0.3842693664550781	3.520965576171875	-4.82177734375	-1.71661376953125	
211	0.844	0.0	0.0	0.0	0.0	0.003	0.003	0.003	0.006	9.904213717651366	0.05327098693847656	0.14784195251464843	0.42724609375	-1.842498779296875	-0.9002685546875	10.017938296508788	0.48722003784179685	-0.08678981018066406	1.384735107421875	-4.528045654296875	-3.082275390625	10.276512075805664	-0.364517202758789	-0.39923312683105466	3.475189208984375	-4.711151123046875	-2.197265625	
212	0.848	0.0	0.0	0.0	0.0	0.003	0.003	0.003	0.006	9.586383447265625	0.2232593048095703	0.3651157531738281	0.45013427734375	-2.17437744140625	-0.850677490234375	9.501987838745116	0.6440402465820312	0.4997895965576172	0.431060791015625	-4.909515380859375	-3.108978271484375	9.712079034423828	0.28371289672851563	-0.04249707946777344	3.498077392578125	-4.547119140625	-2.323150634765625	
213	0.852	0.0	0.0	0.0	0.0	0.006	0.003	0.006	0.003	9.835380419921874	0.38367081604003905	0.17058686828613281	0.152587890625	-2.3651123046875	-0.492095947265625	10.003573086547851	0.5279214660644531	-0.1580173095703125	0.438690185546875	-4.962921142578125	-2.719879150390625	10.147823736572265	-0.19632453613281248	-0.3076549133300781	3.376007080078125	-4.8980712890625	-1.628875732421875	
214	0.856	0.0	0.0	0.0	0.0	0.006	0.003	0.003	0.003	9.796474642944336	0.1149216796875	0.15203180541992187	0.606536865234375	-2.437591552734375	-1.178741455078125	9.864709390258788	0.4435258575439453	0.23822306518554687	0.67901611328125	-4.970550537109375	-3.1890869140625	10.071209283447265	-0.07062894897460938	-0.05805939025878906	3.509521484375	-4.688262939453125	-2.513885498046875	
215	0.86	0.0	0.0	0.0	0.0	0.006	0.003	0.003	0.003	9.849147079467773	0.2154781494140625	0.11911153259277343	-0.171661376953125	-1.83868408203125	-0.823974609375	9.739612353515625	0.412401235961914	0.16819266662597654	0.484466552734375	-5.0506591796875	-2.9449462890625	9.85692823486328	0.016759411621093748	-0.1352723937988281	3.711700439453125	-4.6844482421875	-2.1820068359375	
216	0.864	0.0	0.0	0.0	0.0	0.009000000000000001	0.006	0.006	4.572	9.72943699645996	0.40940848388671874	0.24301146850585936	2.99835205078125	-3.910064697265625	-0.736236572265625	9.600748657226562	0.6242880828857421	0.39264907226562495	0.5340576171875	-5.130767822265625	-2.765655517578125	9.737218151855469	0.12509703674316405	-0.003591302490234375	3.589630126953125	-5.07354736328125	-2.3956298828125	
217	0.868	0.0	0.0	0.0	0.0	4.581	4.632	4.632	4.581	9.938929641723632	0.11552023010253906	0.0430956298828125	-0.057220458984375	-1.953125	-0.705718994140625	9.95389340209961	0.23582886352539062	0.10594342346191406	0.812530517578125	-4.947662353515625	-3.143310546875	10.077194787597655	-0.05386953735351562	-0.18435352783203124	3.5400390625	-4.688262939453125	-1.857757568359375	
218	0.872	0.0	0.0	0.0	0.0	4.581	4.6290000000000004	4.632	4.5840000000000005	9.851541281127929	0.3938461730957031	0.055066638183593745	3.997802734375	-4.17327880859375	-1.148223876953125	9.616310968017578	0.4417302062988281	0.35673604736328124	0.86212158203125	-4.726409912109375	-3.421783447265625	9.920973129272461	-0.2280477081298828	0.0	3.84521484375	-4.314422607421875	-2.880096435546875	
219	0.876	0.0	0.0	0.0	0.0	4.5840000000000005	4.626	4.623	4.581	9.746794958496093	0.2472013214111328	0.14245499877929688	4.825592041015625	-5.18798828125	-0.797271728515625	9.658808047485351	0.5015852478027344	0.15502455749511718	0.9307861328125	-5.176544189453125	-2.887725830078125	9.654618194580078	0.2693476867675781	-0.03591302490234375	3.406524658203125	-4.9896240234375	-2.071380615234375	
220	0.88	0.0	0.0	0.0	0.0	4.5840000000000005	4.6290000000000004	4.632	4.563	9.835380419921874	0.21727380065917967	0.08439560852050781	2.834320068359375	-3.597259521484375	-0.743865966796875	9.639055883789062	0.4417302062988281	0.3268085266113281	0.9002685546875	-4.703521728515625	-3.08990478515625	9.84435867614746	-0.20829554443359374	0.014963760375976562	4.06646728515625	-4.383087158203125	-2.536773681640625	
221	0.884	0.0	0.0	0.0	0.0	4.593	4.635	4.635	4.557	10.098742602539062	0.3333925811767578	-0.22385785522460935	5.3863525390625	-5.523681640625	-0.888824462890625	9.941922393798828	0.2166752502441406	0.032920272827148434	0.919342041015625	-4.8370361328125	-2.69317626953125	10.047267266845703	-0.002992752075195312	-0.2154781494140625	3.658294677734375	-4.70733642578125	-2.170562744140625	
222	0.888	0.0	0.0	0.0	0.0	4.593	4.6290000000000004	4.632	4.578	9.77492682800293	0.4740519287109375	0.058657940673828124	3.12042236328125	-3.814697265625	-1.007080078125	9.479242922973633	0.604535919189453	0.33698388366699217	0.926971435546875	-4.730224609375	-3.070831298828125	9.622895022583007	-0.08978256225585937	0.06045359191894531	3.849029541015625	-4.41741943359375	-2.7313232421875	
223	0.892	0.0	0.0	0.0	0.0	4.587	4.632	4.635	4.581	9.970652813720703	0.3345896820068359	-0.1274912384033203	4.82177734375	-5.130767822265625	-0.7781982421875	9.687538467407226	0.36272155151367186	0.28371289672851563	1.041412353515625	-4.917144775390625	-2.475738525390625	9.829394915771484	0.32920272827148434	0.10654197387695312	3.5400390625	-4.657745361328125	-1.6937255859375	
224	0.896	0.0	0.0	0.0	0.0	4.59	4.632	4.635	4.5840000000000005	9.973047015380859	0.022146365356445312	-0.058657940673828124	5.83648681640625	-5.687713623046875	-0.530242919921875	9.963470208740233	0.35314474487304687	0.07721300354003906	1.007080078125	-4.7607421875	-2.99835205078125	10.031704956054687	-0.3896563201904297	-0.12210428466796874	3.627777099609375	-4.413604736328125	-2.52532958984375	
225	0.9	0.0	0.0	0.0	0.0	4.5840000000000005	4.632	4.632	0.003	10.013748443603514	0.29388825378417965	-0.18136077575683593	4.92095947265625	-4.9285888671875	-0.995635986328125	9.730035546875	0.3746925598144531	0.13108254089355467	0.92315673828125	-5.035400390625	-2.75421142578125	9.950900650024414	0.18255787658691405	-0.03531447448730469	3.4637451171875	-4.283905029296875	-2.071380615234375	
226	0.904	0.0	0.0	0.0	0.0	0.003	0.003	0.003	0.003	9.852139831542969	0.32441432495117184	0.044292730712890624	5.702972412109375	-5.6610107421875	-0.774383544921875	9.648632690429688	0.5871779571533203	0.2507926239013672	0.972747802734375	-4.848480224609375	-2.590179443359375	10.019733947753906	-0.08439560852050781	-0.34237083740234375	3.948211669921875	-4.421234130859375	-1.80816650390625	
227	0.908	0.0	0.0	0.0	0.0	0.003	0.003	0.003	0.006	10.062829577636718	0.13946224670410157	-0.2747346405029297	5.153656005859375	-5.55419921875	-0.759124755859375	9.916783276367187	0.3896563201904297	0.14305354919433594	0.560760498046875	-4.9896240234375	-2.422332763671875	10.148422286987303	0.010773907470703125	-0.08678981018066406	3.543853759765625	-4.82940673828125	-1.720428466796875	
228	0.912	0.0	0.0	0.0	0.0	0.006	0.003	0.003	0.006	9.989207876586914	0.07481880187988281	-0.24480711975097655	5.504608154296875	-5.37872314453125	-1.010894775390625	9.89523546142578	0.3794809631347656	0.025737667846679687	1.117706298828125	-4.99725341796875	-2.948760986328125	10.33636711730957	-0.24181436767578124	-0.48722003784179685	3.643035888671875	-4.34112548828125	-2.0904541015625	
229	0.916	0.0	0.0	0.0	0.0	0.006	0.006	0.006	0.003	9.644442837524414	0.037708676147460936	0.3082534637451172	3.238677978515625	-4.238128662109375	-0.865936279296875	9.690531219482422	0.5584475372314452	0.28431144714355466	0.72479248046875	-5.21087646484375	-2.49481201171875	9.965265859985351	0.09756371765136718	-0.32501287536621093	3.8299560546875	-4.7454833984375	-2.201080322265625	
230	0.92	0.0	0.0	0.0	0.0	0.006	0.003	0.003	0.003	9.929352835083007	-0.009576806640625	-0.12509703674316405	5.275726318359375	-5.45501708984375	-0.75531005859375	9.898826763916015	0.4590881683349609	0.03232172241210937	1.483917236328125	-5.2490234375	-2.880096435546875	10.242394702148436	-0.07481880187988281	-0.4542997650146484	3.604888916015625	-4.550933837890625	-2.071380615234375	
231	0.924	0.0	0.0	0.0	0.0	0.003	0.006	0.003	0.003	9.732429748535155	-0.05327098693847656	0.32501287536621093	3.875732421875	-4.38690185546875	-0.83160400390625	9.969455712890625	0.35194764404296874	0.1005564697265625	1.026153564453125	-4.974365234375	-2.81524658203125	10.383652600097655	-0.2059013427734375	-0.4542997650146484	3.45611572265625	-4.82177734375	-2.285003662109375	
232	0.928	0.0	0.0	0.0	0.0	0.0	0.006	0.006	0.006	9.912593423461914	0.0526724365234375	-0.15083470458984374	-1.678466796875	-0.7476806640625	-0.98419189453125	9.813832604980469	0.5530605834960938	-0.03890577697753906	1.804351806640625	-5.1727294921875	-3.200531005859375	10.103531005859374	0.05027823486328125	-0.4333505004882812	3.192901611328125	-4.50897216796875	-1.079559326171875	
233	0.932	0.0	0.0	0.0	0.0	0.006	0.003	0.006	0.003	9.555857376098633	-0.06284779357910156	0.4525041137695312	1.9378662109375	-3.299713134765625	-0.83160400390625	9.775525378417969	0.5015852478027344	0.2663549346923828	0.743865966796875	-4.940032958984375	-2.6702880859375	10.083180291748047	-0.023942016601562498	-0.22864625854492185	3.528594970703125	-4.741668701171875	-1.64031982421875	
234	0.936	0.0	0.0	0.0	0.0	0.006	0.003	0.006	0.006	9.830592016601562	-0.16041151123046873	0.13946224670410157	-2.3956298828125	-0.324249267578125	-0.701904296875	10.005368737792969	0.39743747558593745	-0.07062894897460938	1.453399658203125	-4.9591064453125	-3.070831298828125	10.312425100708007	-0.105344873046875	-0.5327098693847656	3.330230712890625	-4.57000732421875	-2.094268798828125	
235	0.9400000000000001	0.0	0.0	0.0	0.0	0.003	0.003	0.003	0.003	9.628281976318359	-0.12090718383789062	0.3591302490234375	0.850677490234375	-2.445220947265625	-1.018524169921875	9.767145672607422	0.5692214447021484	0.16998831787109375	0.797271728515625	-4.924774169921875	-3.143310546875	10.162787496948242	-0.08379705810546874	-0.30047230834960936	3.45611572265625	-4.53948974609375	-2.2735595703125	
236	0.9440000000000001	0.0	0.0	0.0	0.0	0.009000000000000001	0.003	0.006	0.003	9.707889181518555	0.1388636962890625	0.25258827514648435	-2.536773681640625	-0.26702880859375	-0.732421875	9.739612353515625	0.6398503936767578	0.10893617553710937	1.346588134765625	-5.031585693359375	-3.13568115234375	10.019733947753906	0.1484405029296875	-0.5722141967773438	3.57818603515625	-5.130767822265625	-1.972198486328125	
237	0.9480000000000001	0.0	0.0	0.0	0.0	0.009000000000000001	0.003	0.003	0.003	9.886257205200195	0.18734627990722655	0.13168109130859373	-0.29754638671875	-2.02178955078125	-1.03759765625	9.796474642944336	0.5351040710449219	0.22445640563964842	0.789642333984375	-4.72259521484375	-3.07464599609375	9.962273107910155	-0.06943184814453125	-0.1771709228515625	3.322601318359375	-4.703521728515625	-1.861572265625	
238	0.9520000000000001	0.0	0.0	0.0	0.0	0.006	0.006	0.003	0.006	9.801861596679688	0.00718260498046875	0.1370680450439453	-2.315521240234375	-0.30517578125	-1.1444091796875	9.885658654785155	0.3184288208007812	0.14185644836425781	0.762939453125	-5.0506591796875	-3.040313720703125	10.302249743652343	-0.08678981018066406	-0.6392518432617187	3.635406494140625	-4.825592041015625	-2.391815185546875	
239	0.9560000000000001	0.0	0.0	0.0	0.0	0.006	0.003	0.003	0.006	9.88386300354004	0.3321954803466797	0.025737667846679687	-0.087738037109375	-1.926422119140625	-0.904083251953125	9.605537060546874	0.7439981658935546	0.31004911499023435	0.79345703125	-4.711151123046875	-2.98309326171875	9.731232647705077	0.11013327636718749	-0.05327098693847656	3.3111572265625	-4.421234130859375	-1.934051513671875	
240	0.96	0.0	0.0	0.0	0.0	0.006	0.003	0.006	0.003	9.765948571777344	0.1867477294921875	0.1867477294921875	-2.78472900390625	-0.23651123046875	-0.850677490234375	9.770138424682617	0.32920272827148434	0.258573779296875	-0.225067138671875	-4.7454833984375	-2.513885498046875	9.758765966796874	-0.013766659545898436	-0.1801636749267578	3.5247802734375	-4.688262939453125	-2.101898193359375	
241	0.964	0.0	0.0	0.0	0.0	0.006	0.006	0.003	0.006	10.091559997558592	0.22266075439453123	-0.29927520751953124	1.739501953125	-3.2806396484375	-1.07574462890625	9.827000714111328	0.4171896392822265	0.10893617553710937	0.888824462890625	-4.817962646484375	-3.063201904296875	10.070610733032225	-0.09816226806640624	-0.18136077575683593	3.37982177734375	-4.81414794921875	-1.9989013671875	
242	0.968	0.0	0.0	0.0	0.0	0.003	0.003	0.003	0.003	9.993397729492187	0.49021278991699213	-0.30466216125488277	7.045745849609375	-6.595611572265625	-0.9307861328125	9.766547122192382	0.4483142608642578	0.1131260284423828	0.16021728515625	-4.596710205078125	-2.986907958984375	9.867103591918944	-0.07781155395507812	-0.34057518615722654	3.692626953125	-4.63104248046875	-2.422332763671875	
243	0.972	0.0	0.0	0.0	0.0	0.006	0.006	0.003	0.006	9.975441217041014	0.32501287536621093	-0.13407529296874998	3.53240966796875	-4.29534912109375	-0.713348388671875	9.555258825683593	0.5698199951171875	0.18854338073730467	0.69427490234375	-5.04302978515625	-2.498626708984375	9.789890588378906	0.13407529296874998	-0.12210428466796874	3.997802734375	-4.421234130859375	-2.05230712890625	
244	0.976	0.0	0.0	0.0	0.0	0.003	0.006	0.003	0.006	9.934739788818359	0.2813186950683594	-0.19333178405761717	6.587982177734375	-6.603240966796875	-0.743865966796875	9.753977563476562	0.2950853546142578	0.08200140686035155	1.373291015625	-5.218505859375	-3.13568115234375	10.039486111450195	-0.16519991455078123	-0.3459621398925781	3.582000732421875	-4.70733642578125	-2.246856689453125	
245	0.98	0.0	0.0	0.0	0.0	0.003	0.006	0.006	0.003	9.993397729492187	0.20171148986816406	-0.16220716247558592	5.340576171875	-5.374908447265625	-0.72479248046875	9.65940659790039	0.3447650390625	0.18854338073730467	0.965118408203125	-4.657745361328125	-3.18145751953125	9.967061511230469	0.14006079711914063	-0.04967968444824218	3.772735595703125	-4.444122314453125	-2.574920654296875	
246	0.984	0.0	0.0	0.0	0.0	0.003	0.003	0.006	0.003	9.802460147094726	0.38367081604003905	0.0526724365234375	5.199432373046875	-5.435943603515625	-0.980377197265625	9.63307037963867	0.5871779571533203	0.16639701538085935	1.430511474609375	-5.084991455078125	-3.276824951171875	9.737218151855469	-0.0017956512451171875	-0.17298106994628906	3.719329833984375	-4.489898681640625	-2.2735595703125	
247	0.988	0.0	0.0	0.0	0.0	0.003	0.003	0.003	0.006	9.878476049804688	0.032920272827148434	0.20290859069824219	3.86810302734375	-4.57000732421875	-0.74005126953125	9.85692823486328	0.3872621185302734	0.21787235107421873	0.885009765625	-4.299163818359375	-2.70843505859375	9.851541281127929	0.11851298217773437	0.1514332550048828	3.94439697265625	-4.451751708984375	-2.288818359375	
248	0.992	0.0	0.0	0.0	0.0	0.003	0.003	0.006	0.006	9.944316595458984	0.18315642700195311	-0.09576806640624999	4.34112548828125	-4.82940673828125	-1.018524169921875	9.837176071166992	0.4159925384521484	0.15263035583496093	1.094818115234375	-5.046844482421875	-3.0975341796875	10.129867224121092	-0.25797522888183594	0.054468087768554684	3.54766845703125	-4.322052001953125	-1.9989013671875	
249	0.996	0.0	0.0	0.0	0.0	0.009000000000000001	0.003	0.003	0.003	9.90181951599121	0.2088940948486328	0.04908113403320312	4.96673583984375	-5.214691162109375	-0.698089599609375	9.72285294189453	0.4010287780761719	0.2136824981689453	0.9613037109375	-4.8675537109375	-3.131866455078125	9.699509475708007	0.18315642700195311	0.1197100830078125	3.841400146484375	-4.2266845703125	-2.532958984375	
250	1.0	0.0	0.0	0.0	0.0	0.006	0.003	0.003	0.003	9.83897172241211	0.0047884033203125	0.23343466186523437	4.5166015625	-4.840850830078125	-0.49591064453125	9.757568865966796	0.5410895751953124	0.36272155151367186	0.823974609375	-5.252838134765625	-2.277374267578125	9.846752877807617	0.025737667846679687	0.1466448516845703	3.4332275390625	-4.55474853515625	-1.735687255859375	
251	1.004	0.0	0.0	0.0	0.0	0.006	0.003	0.003	0.009000000000000001	10.031704956054687	0.06045359191894531	-0.029927520751953124	6.38580322265625	-6.175994873046875	-0.701904296875	9.87009634399414	0.40581718139648437	0.1945288848876953	0.91552734375	-4.6234130859375	-3.017425537109375	10.356119281005858	-0.23044190979003906	-0.4267664459228515	3.73077392578125	-4.306793212890625	-2.2430419921875	
252	1.008	0.0	0.0	0.0	0.0	0.0	0.003	0.006	0.006	9.842563024902343	0.09457096557617187	0.28431144714355466	5.336761474609375	-5.340576171875	-0.690460205078125	9.81862100830078	0.37289690856933594	0.2741360900878906	0.40435791015625	-4.76837158203125	-2.49481201171875	9.961076007080077	0.047884033203124995	0.12509703674316405	3.74603271484375	-4.3182373046875	-2.0294189453125	
253	1.012	0.0	0.0	0.0	0.0	0.006	0.003	0.003	0.003	9.897629663085937	0.18734627990722655	0.059256491088867186	5.59234619140625	-5.5084228515625	-0.7171630859375	9.670180505371093	0.5740098480224609	0.29448680419921874	1.8310546875	-5.153656005859375	-3.063201904296875	10.097545501708984	-0.086191259765625	-0.2932897033691406	3.60870361328125	-4.405975341796875	-2.346038818359375	
254	1.016	0.0	0.0	0.0	0.0	0.006	0.003	0.003	0.006	9.853336932373047	-0.029927520751953124	0.28490999755859375	4.398345947265625	-4.695892333984375	-0.80108642578125	9.932345587158203	0.27293898925781246	0.29269115295410153	0.644683837890625	-5.2490234375	-2.5787353515625	10.064026678466796	0.013766659545898436	0.09576806640624999	3.3111572265625	-4.909515380859375	-1.83868408203125	
255	1.02	0.0	0.0	0.0	0.0	0.003	4.614	4.626	4.5600000000000005	9.86411083984375	-0.14185644836425781	0.11552023010253906	0.476837158203125	-2.23541259765625	-0.823974609375	9.99160207824707	0.5746083984375	-0.04967968444824218	1.659393310546875	-4.886627197265625	-2.758026123046875	10.350732327270507	-0.3010708587646484	-0.36571430358886714	3.841400146484375	-4.69970703125	-2.349853515625	
256	1.024	0.0	0.0	0.0	0.0	4.593	4.626	4.6290000000000004	4.578	9.753977563476562	0.14544775085449219	0.3573345977783203	4.28009033203125	-4.913330078125	-0.6256103515625	9.701305126953125	0.4800374328613281	0.3956418243408203	0.324249267578125	-5.11932373046875	-2.7923583984375	9.99220062866211	0.2998737579345703	-0.25258827514648435	3.765106201171875	-4.547119140625	-2.223968505859375	
257	1.028	0.0	0.0	0.0	0.0	4.587	4.635	4.635	4.5840000000000005	9.827000714111328	-0.08978256225585937	0.1466448516845703	0.469207763671875	-2.651214599609375	-0.865936279296875	9.962871658325195	0.5674257934570313	-0.040102877807617184	1.277923583984375	-5.157470703125	-2.74658203125	10.226832391357421	-0.23882161560058593	-0.3603273498535156	3.665924072265625	-4.581451416015625	-2.22015380859375	
258	1.032	0.0	0.0	0.0	0.0	4.59	4.635	4.635	4.587	9.871293444824218	0.04608838195800781	0.25797522888183594	0.3204345703125	-2.056121826171875	-0.81634521484375	9.775525378417969	0.4991910461425781	0.24660277099609373	0.659942626953125	-4.72259521484375	-2.685546875	10.23401499633789	0.0718260498046875	-0.3387795349121094	3.726959228515625	-4.60052490234375	-2.03704833984375	
259	1.036	0.0	0.0	0.0	0.0	4.581	4.632	4.632	4.593	9.787496386718749	-0.11252747802734374	0.0987608184814453	0.31280517578125	-2.593994140625	-0.98419189453125	9.860519537353515	0.4704606262207031	-0.01915361328125	1.62506103515625	-4.82940673828125	-2.758026123046875	10.143035333251953	-0.11851298217773437	-0.4572925170898437	3.414154052734375	-4.756927490234375	-1.720428466796875	
260	1.04	0.0	0.0	0.0	0.0	4.593	4.632	4.635	4.569	9.692326870727538	0.051475335693359374	0.19213468322753904	-0.308990478515625	-2.05230712890625	-1.09100341796875	9.595960253906249	0.7835024932861328	0.21966800231933592	0.732421875	-5.077362060546875	-2.925872802734375	10.025120901489258	0.2555810272216797	-0.2819172454833984	3.54766845703125	-4.833221435546875	-2.22015380859375	
261	1.044	0.0	0.0	0.0	0.0	4.593	4.635	4.638	4.563	9.916184725952148	-0.23104046020507812	-0.08379705810546874	0.446319580078125	-2.376556396484375	-0.873565673828125	9.929951385498047	0.2765302917480469	-0.008379705810546874	1.194000244140625	-5.2490234375	-3.143310546875	10.256161361694335	-0.18854338073730467	-0.46148236999511716	3.253936767578125	-4.734039306640625	-1.5869140625	
262	1.048	0.0	0.0	0.0	0.0	4.596	4.635	4.635	4.566	9.741408004760741	-0.08439560852050781	0.1945288848876953	-0.18310546875	-1.827239990234375	-1.064300537109375	9.719261639404296	0.6446387969970703	0.17238251953125	0.4119873046875	-5.062103271484375	-2.716064453125	9.92755718383789	-0.09157821350097656	-0.13946224670410157	3.688812255859375	-4.673004150390625	-2.590179443359375	
263	1.052	0.0	0.0	0.0	0.0	4.593	0.003	0.003	0.006	9.821015209960937	0.2711433380126953	0.08319850769042968	0.080108642578125	-1.857757568359375	-0.888824462890625	9.777321029663085	0.47644613037109373	0.008379705810546874	1.041412353515625	-4.76837158203125	-3.02886962890625	10.025120901489258	0.04908113403320312	-0.42437224426269526	3.643035888671875	-4.901885986328125	-1.71661376953125	
264	1.056	0.0	0.0	0.0	0.0	0.006	0.006	0.003	0.003	9.743802206420899	-0.06823474731445311	0.1640028137207031	-0.102996826171875	-1.705169677734375	-0.93841552734375	9.67856021118164	0.5339069702148437	0.24779987182617186	0.865936279296875	-4.856109619140625	-2.899169921875	9.8311905670166	-0.13646949462890623	-0.030526071166992186	3.490447998046875	-4.856109619140625	-2.0904541015625	
265	1.06	0.0	0.0	0.0	0.0	0.003	0.003	0.003	0.003	9.889249957275391	0.11611878051757812	0.017956512451171875	0.568389892578125	-2.330780029296875	-0.865936279296875	9.919177478027343	0.3956418243408203	-0.06284779357910156	1.06048583984375	-4.913330078125	-3.57818603515625	10.196904870605469	-0.201112939453125	-0.40282442932128903	3.936767578125	-4.695892333984375	-2.399444580078125	
266	1.064	0.0	0.0	0.0	0.0	0.006	0.006	0.003	0.006	9.701305126953125	0.0005985504150390625	0.22864625854492185	-0.667572021484375	-1.453399658203125	-0.995635986328125	9.710881933593749	0.5309142181396485	0.06105214233398437	0.5340576171875	-4.978179931640625	-2.773284912109375	9.682750064086914	0.06883329772949218	-0.08080430603027343	3.8909912109375	-4.50897216796875	-2.712249755859375	
267	1.068	0.0	0.0	0.0	0.0	0.006	0.003	0.006	0.006	9.852738381958007	0.201112939453125	-0.06344634399414062	0.69427490234375	-2.655029296875	-0.823974609375	9.68454571533203	0.3525461944580078	0.08259995727539061	0.63323974609375	-5.069732666015625	-2.727508544921875	9.86351228942871	0.076614453125	-0.28730419921875	3.383636474609375	-4.962921142578125	-1.9073486328125	
268	1.072	0.0	0.0	0.0	0.0	0.006	0.006	0.003	0.003	9.907206469726562	0.29269115295410153	0.05805939025878906	4.4097900390625	-4.642486572265625	-0.576019287109375	9.816226806640625	0.41419688720703124	0.08858546142578125	0.67901611328125	-4.7607421875	-3.24249267578125	9.965265859985351	-0.14245499877929688	-0.22086510314941404	3.620147705078125	-4.535675048828125	-2.54058837890625	
269	1.076	0.0	0.0	0.0	0.0	0.003	0.006	0.003	0.006	9.903615167236328	0.4082113830566406	-0.06763619689941405	2.033233642578125	-3.22723388671875	-0.843048095703125	9.681552963256836	0.354341845703125	0.15562310791015624	0.675201416015625	-4.985809326171875	-2.86865234375	9.87668039855957	0.05566518859863281	-0.2567781280517578	3.749847412109375	-4.852294921875	-2.4566650390625	
270	1.08	0.0	0.0	0.0	0.0	0.003	0.003	0.003	0.006	9.849745629882811	0.3764882110595703	0.06284779357910156	4.787445068359375	-4.917144775390625	-0.7171630859375	9.64623848876953	0.47105917663574215	0.17238251953125	1.1138916015625	-4.947662353515625	-3.265380859375	9.792284790039062	0.003591302490234375	-0.040102877807617184	3.726959228515625	-4.299163818359375	-2.048492431640625	
271	1.084	0.0	0.0	0.0	0.0	0.006	0.003	0.003	0.006	9.999981784057617	0.17836802368164062	-0.25737667846679685	6.378173828125	-6.198883056640625	-0.823974609375	9.766547122192382	0.21308394775390624	0.061650692749023434	0.598907470703125	-4.9591064453125	-2.475738525390625	9.956287603759765	-0.06763619689941405	-0.32082302246093747	3.448486328125	-4.756927490234375	-2.216339111328125	
272	1.088	0.0	0.0	0.0	0.0	0.003	0.003	0.006	0.006	9.9078050201416	0.3764882110595703	-0.03232172241210937	5.741119384765625	-5.680084228515625	-0.67138671875	9.788094937133788	0.5057751007080078	0.00718260498046875	0.8697509765625	-4.695892333984375	-2.98309326171875	9.993996279907225	-0.037708676147460936	-0.17657237243652343	3.963470458984375	-4.6844482421875	-2.3040771484375	
273	1.092	0.0	0.0	0.0	0.0	0.006	0.006	0.006	0.006	9.988609326171874	0.03411737365722656	-0.15023615417480468	5.9356689453125	-5.809783935546875	-0.91552734375	9.639055883789062	0.31064766540527344	0.076614453125	0.606536865234375	-5.245208740234375	-2.651214599609375	9.903615167236328	-0.12389993591308593	-0.05027823486328125	3.627777099609375	-4.64630126953125	-2.14385986328125	
274	1.096	0.0	0.0	0.0	0.0	0.003	0.003	0.003	0.006	9.96047745666504	0.24480711975097655	-0.09516951599121093	6.404876708984375	-6.27899169921875	-0.70953369140625	9.752780462646484	0.4944026428222656	0.05985504150390625	1.094818115234375	-4.909515380859375	-2.765655517578125	9.860519537353515	0.07242460021972656	-0.09277531433105468	3.84521484375	-4.558563232421875	-2.43377685546875	
275	1.1	0.0	0.0	0.0	0.0	0.006	0.003	0.003	0.003	9.988609326171874	-0.09337386474609374	-0.10654197387695312	6.526947021484375	-6.28662109375	-0.957489013671875	9.81862100830078	0.26695348510742184	0.06404489440917968	1.079559326171875	-5.008697509765625	-2.819061279296875	10.115502014160155	-0.3058592620849609	-0.09217676391601562	3.444671630859375	-4.6844482421875	-1.987457275390625	
276	1.104	0.0	0.0	0.0	0.0	0.009000000000000001	0.006	0.006	0.003	9.865307940673828	-0.24839842224121092	0.010175357055664061	2.38037109375	-3.73077392578125	-0.79345703125	9.617508068847656	0.43155484924316406	0.11911153259277343	1.6937255859375	-4.123687744140625	-2.643585205078125	9.8449572265625	0.1693897674560547	-0.07362170104980469	3.70025634765625	-4.474639892578125	-2.166748046875	
277	1.108	0.0	0.0	0.0	0.0	0.003	0.003	0.006	0.003	9.890447058105469	-0.14724340209960937	0.04249707946777344	5.756378173828125	-5.98907470703125	-0.84686279296875	9.688137017822266	0.4644751220703125	0.18854338073730467	1.209259033203125	-5.0506591796875	-3.15093994140625	9.919776028442381	-0.14724340209960937	0.033518823242187495	3.765106201171875	-4.5623779296875	-2.033233642578125	
278	1.112	0.0	0.0	0.0	0.0	0.003	0.003	0.006	0.006	9.801861596679688	-0.28790274963378903	0.19033903198242186	1.758575439453125	-3.040313720703125	-1.064300537109375	9.962273107910155	0.5638344909667968	0.06045359191894531	1.77001953125	-5.11932373046875	-2.979278564453125	10.423755477905273	-0.044891281127929686	-0.5895721588134766	3.391265869140625	-4.26483154296875	-2.002716064453125	
279	1.116	0.0	0.0	0.0	0.0	0.003	0.003	0.003	0.003	9.874286196899414	-0.3058592620849609	0.13407529296874998	4.486083984375	-4.94384765625	-0.74005126953125	9.727042794799804	0.38786066894531246	0.2867056488037109	1.132965087890625	-5.062103271484375	-3.08990478515625	10.0748005859375	-0.30705636291503907	0.011372457885742187	3.42559814453125	-4.3792724609375	-1.911163330078125	
280	1.12	0.0	0.0	0.0	0.0	0.003	0.003	0.006	0.003	9.725247143554688	-0.002992752075195312	0.32082302246093747	0.598907470703125	-2.1209716796875	-0.827789306640625	9.826402163696288	0.6512228515624999	0.20051438903808594	1.651763916015625	-4.863739013671875	-2.803802490234375	10.204087475585936	0.12150573425292968	-0.5446808776855468	3.963470458984375	-4.20379638671875	-2.414703369140625	
281	1.124	0.0	0.0	0.0	0.0	0.003	0.006	0.006	0.003	9.706692080688477	0.16879121704101563	0.36092590026855464	0.537872314453125	-2.117156982421875	-0.843048095703125	9.744400756835937	0.36810850524902344	0.430956298828125	0.1373291015625	-4.9285888671875	-2.5787353515625	10.136451278686522	0.03411737365722656	-0.3238157745361328	3.002166748046875	-4.772186279296875	-1.54876708984375	
282	1.1280000000000001	0.0	0.0	0.0	0.0	0.006	0.003	0.006	0.003	9.910797772216796	-0.11731588134765625	0.02693476867675781	0.843048095703125	-2.285003662109375	-0.850677490234375	9.961076007080077	0.5297171173095703	0.044292730712890624	1.071929931640625	-4.7607421875	-2.887725830078125	10.242993252563476	0.007781155395507812	-0.39264907226562495	3.8909912109375	-4.1961669921875	-2.49481201171875	
283	1.1320000000000001	0.0	0.0	0.0	0.0	0.003	0.003	0.006	0.006	9.687538467407226	0.3220201232910156	0.4213794921875	2.57110595703125	-3.5552978515625	-0.934600830078125	9.606135610961914	0.5183446594238281	0.469263525390625	0.568389892578125	-4.89044189453125	-2.716064453125	10.089165795898436	0.06584054565429687	-0.21188684692382811	3.3416748046875	-4.5166015625	-1.857757568359375	
284	1.1360000000000001	0.0	0.0	0.0	0.0	0.003	0.006	0.006	0.003	9.889848507690429	-0.15741875915527342	-0.033518823242187495	0.43487548828125	-2.43377685546875	-0.698089599609375	9.873089096069336	0.6254851837158203	-0.009576806640625	1.04522705078125	-4.978179931640625	-2.826690673828125	10.120290417480469	-0.17178396911621094	-0.3902548706054687	3.5247802734375	-4.817962646484375	-2.03704833984375	
285	1.1400000000000001	0.0	0.0	0.0	0.0	0.003	0.006	0.003	0.003	9.677363110351562	0.3226186737060547	0.3908534210205078	2.956390380859375	-3.887176513671875	-0.858306884765625	9.730035546875	0.479438882446289	0.4471171600341797	0.9307861328125	-4.82177734375	-2.857208251953125	10.245986004638672	0.10714052429199218	-0.3315969299316406	3.482818603515625	-4.94384765625	-1.895904541015625	
286	1.1440000000000001	0.0	0.0	0.0	0.0	0.003	0.003	0.003	0.006	9.79946739501953	0.3022679595947265	0.33099837951660155	0.217437744140625	-2.06756591796875	-1.07574462890625	9.887454306030273	0.6075286712646484	0.017357962036132813	1.434326171875	-4.711151123046875	-2.864837646484375	10.193912118530273	-0.20649989318847656	-0.5183446594238281	3.2958984375	-4.669189453125	-2.01416015625	
287	1.1480000000000001	0.0	0.0	0.0	0.0	0.006	0.003	0.006	0.003	9.598354455566406	0.19991583862304688	0.4004302276611328	1.53350830078125	-2.72369384765625	-0.95367431640625	9.610325463867188	0.527322915649414	0.38666356811523434	0.606536865234375	-4.89044189453125	-2.971649169921875	10.097545501708984	0.2280477081298828	-0.1274912384033203	3.566741943359375	-4.8980712890625	-2.2735595703125	
288	1.1520000000000001	0.0	0.0	0.0	0.0	0.003	0.003	0.003	0.006	9.843161575317382	0.10714052429199218	0.1562216583251953	-0.438690185546875	-1.45721435546875	-0.942230224609375	10.026916552734374	0.47285482788085936	-0.05087678527832031	1.39617919921875	-4.970550537109375	-3.0364990234375	10.247781655883788	-0.24181436767578124	-0.47644613037109373	3.4027099609375	-5.146026611328125	-1.903533935546875	
289	1.156	0.0	0.0	0.0	0.0	0.003	0.006	2.241	4.5600000000000005	9.858723886108399	0.20530279235839843	0.15322890625	2.178192138671875	-3.60107421875	-0.865936279296875	9.67197615661621	0.5045779998779296	0.41539398803710936	0.54168701171875	-4.901885986328125	-3.124237060546875	9.889848507690429	0.09217676391601562	-0.1370680450439453	3.604888916015625	-4.634857177734375	-2.5482177734375	
290	1.16	0.0	0.0	0.0	0.0	4.587	4.617	4.626	4.578	9.807847100830077	0.2759317413330078	0.201112939453125	-0.6561279296875	-1.689910888671875	-0.81634521484375	9.73661960144043	0.41359833679199215	0.11552023010253906	0.823974609375	-5.36346435546875	-2.593994140625	10.135852728271484	-0.16041151123046873	-0.43454760131835934	3.5552978515625	-4.985809326171875	-1.956939697265625	
291	1.164	0.0	0.0	0.0	0.0	4.587	4.632	4.632	4.581	9.810839852905273	0.20171148986816406	0.1484405029296875	2.51007080078125	-3.490447998046875	-0.797271728515625	9.64025298461914	0.6183025787353515	0.42975919799804685	1.01470947265625	-4.795074462890625	-3.322601318359375	9.787496386718749	0.10773907470703124	-0.07541735229492187	3.704071044921875	-4.8065185546875	-2.307891845703125	
292	1.168	0.0	0.0	0.0	0.0	4.5840000000000005	4.632	4.635	4.59	9.884461553955077	0.15322890625	0.08798691101074219	-0.67138671875	-1.40380859375	-1.16729736328125	9.8449572265625	0.24061726684570311	0.09217676391601562	0.69427490234375	-4.711151123046875	-2.84576416015625	9.955090502929687	-0.04548983154296875	-0.11192892761230468	3.734588623046875	-4.638671875	-2.06756591796875	
293	1.172	0.0	0.0	0.0	0.0	4.59	4.632	4.623	4.587	9.813832604980469	0.19692308654785154	0.15741875915527342	2.2430419921875	-3.30352783203125	-0.766754150390625	9.526528405761718	0.7176619476318359	0.43634325256347656	1.3427734375	-4.8370361328125	-3.368377685546875	9.714473236083984	0.11073182678222655	0.032920272827148434	3.62396240234375	-4.558563232421875	-2.67791748046875	
294	1.176	0.0	0.0	0.0	0.0	4.587	4.632	4.632	4.563	9.976039767456054	0.4417302062988281	-0.07122749938964844	3.841400146484375	-4.611968994140625	-0.766754150390625	9.751583361816406	0.31184476623535157	0.19033903198242186	1.232147216796875	-5.191802978515625	-3.025054931640625	9.849147079467773	0.13946224670410157	-0.19871873779296872	3.665924072265625	-4.92095947265625	-1.995086669921875	
295	1.18	0.0	0.0	0.0	0.0	4.596	4.635	4.635	4.557	9.864709390258788	0.037708676147460936	0.06823474731445311	1.5411376953125	-2.899169921875	-0.91552734375	9.654618194580078	0.4800374328613281	0.3345896820068359	0.8544921875	-4.581451416015625	-3.1890869140625	9.944316595458984	-0.19931728820800781	-0.105344873046875	3.765106201171875	-4.467010498046875	-2.391815185546875	
296	1.184	0.0	0.0	0.0	0.0	4.593	4.632	4.635	0.009000000000000001	10.029310754394531	0.47704468078613277	-0.1897404815673828	4.291534423828125	-4.543304443359375	-0.858306884765625	9.718663088989258	0.36750995483398435	0.20769699401855468	0.35858154296875	-5.096435546875	-2.61688232421875	9.847351428222655	0.18555062866210936	-0.2316390106201172	3.772735595703125	-4.627227783203125	-2.18963623046875	
297	1.188	0.0	0.0	0.0	0.0	0.003	0.003	0.006	0.006	9.83238766784668	0.2088940948486328	-0.016759411621093748	6.927490234375	-6.3629150390625	-0.843048095703125	9.572018237304688	0.5446808776855468	0.3082534637451172	0.782012939453125	-4.825592041015625	-3.017425537109375	9.859920986938477	-0.1975216369628906	-0.17896657409667968	3.7689208984375	-4.978179931640625	-2.475738525390625	
298	1.192	0.0	0.0	0.0	0.0	0.006	0.006	0.003	0.006	10.058041174316406	0.3315969299316406	-0.3010708587646484	4.261016845703125	-4.634857177734375	-0.95367431640625	9.858125335693359	0.32082302246093747	0.0053869537353515625	0.8087158203125	-5.123138427734375	-2.38800048828125	10.086173043823242	0.10594342346191406	-0.07302315063476562	3.589630126953125	-4.390716552734375	-2.18963623046875	
299	1.196	0.0	0.0	0.0	0.0	0.003	0.003	0.003	0.003	9.93952819213867	0.2902969512939453	0.0143652099609375	6.824493408203125	-6.282806396484375	-0.57220458984375	9.697115274047851	0.41359833679199215	0.17417817077636719	0.690460205078125	-4.924774169921875	-3.25775146484375	10.12507882080078	-0.20290859069824219	-0.6883329772949218	3.299713134765625	-4.734039306640625	-2.05230712890625	
300	1.2	0.0	0.0	0.0	0.0	0.003	0.006	0.006	0.006	10.01015714111328	0.31004911499023435	-0.3172317199707031	4.39453125	-4.90570068359375	-0.7476806640625	9.72943699645996	0.48243163452148435	-0.04967968444824218	0.980377197265625	-5.1116943359375	-2.216339111328125	10.06223102722168	0.10893617553710937	-0.39264907226562495	3.31878662109375	-4.73785400390625	-1.857757568359375	
301	1.204	0.0	0.0	0.0	0.0	0.006	0.006	0.003	0.003	9.95987890625	0.05566518859863281	-0.21787235107421873	6.000518798828125	-5.9661865234375	-0.7171630859375	9.886257205200195	0.4171896392822265	-0.1562216583251953	1.621246337890625	-5.115509033203125	-2.712249755859375	9.903016616821288	-0.1466448516845703	-0.1945288848876953	3.597259521484375	-4.467010498046875	-2.490997314453125	
302	1.208	0.0	0.0	0.0	0.0	0.006	0.003	0.006	0.006	9.788693487548828	-0.07481880187988281	0.1274912384033203	4.199981689453125	-4.566192626953125	-0.644683837890625	9.795876092529296	0.3573345977783203	0.028131869506835935	0.423431396484375	-4.8675537109375	-2.288818359375	10.12507882080078	-0.09457096557617187	-0.2932897033691406	3.5400390625	-4.60052490234375	-2.0904541015625	
303	1.212	0.0	0.0	0.0	0.0	0.006	0.003	0.003	0.003	9.986813674926758	0.06883329772949218	-0.29269115295410153	6.519317626953125	-6.21795654296875	-0.84686279296875	9.843760125732421	0.46507367248535153	-0.01915361328125	1.39617919921875	-5.218505859375	-3.078460693359375	10.267533819580077	-0.044292730712890624	-0.565031591796875	3.448486328125	-4.73785400390625	-1.956939697265625	
304	1.216	0.0	0.0	0.0	0.0	0.003	0.006	0.003	0.003	9.719261639404296	-0.05386953735351562	0.23343466186523437	3.452301025390625	-4.40216064453125	-1.01470947265625	9.751583361816406	0.565031591796875	0.16160861206054686	1.10626220703125	-4.871368408203125	-2.849578857421875	9.974244116210937	-0.07900865478515624	-0.1292868896484375	3.60107421875	-4.856109619140625	-2.1820068359375	
305	1.22	0.0	0.0	0.0	0.0	0.006	0.003	0.003	0.003	9.98501802368164	-0.13826514587402344	-0.22565350646972654	5.55419921875	-5.680084228515625	-0.8392333984375	9.910797772216796	0.5865794067382812	-0.0909796630859375	1.262664794921875	-4.947662353515625	-2.666473388671875	10.313023651123046	-0.02154781494140625	-0.5309142181396485	3.51715087890625	-4.33349609375	-1.964569091796875	
306	1.224	0.0	0.0	0.0	0.0	0.003	0.003	0.003	0.003	9.679757312011718	-0.10175357055664062	0.26276363220214843	2.269744873046875	-3.818511962890625	-1.148223876953125	9.816226806640625	0.4321533996582031	0.08020575561523437	0.896453857421875	-4.974365234375	-3.0059814453125	10.189722265624999	-0.15502455749511718	-0.354341845703125	3.475189208984375	-4.84466552734375	-2.147674560546875	
