	time	dac1	dac2	dac3	dac4	adc1.3	adc2.3	adc3.3	adc4.3	imu1accx	imu1accy	imu1accz	imu1gyrox	imu1gyroy	imu1gyroz	imu2accx	imu2accy	imu2accz	imu2gyrox	imu2gyroy	imu2gyroz	imu3accx	imu3accy	imu3accz	imu3gyrox	imu3gyroy	imu3gyroz	log
0	0.0	0.0	0.0	0.0	0.0	0.003	0.006	0.003	0.006	9.864709390258788	0.15502455749511718	-0.025737667846679687	2.99072265625	-3.86810302734375	-0.926971435546875	9.77432827758789	0.4447229583740234	0.07422025146484375	0.934600830078125	-5.02777099609375	-2.98309326171875	10.04247886352539	-0.022146365356445312	-0.3333925811767578	3.582000732421875	-4.6539306640625	-2.0294189453125	Estabilizou em 7s, 1533 rpm
1	0.004	0.0	0.0	0.0	0.0	0.003	0.003	0.003	0.006	9.87009634399414	0.21428104858398436	-0.016160861206054686	2.960205078125	-3.780364990234375	-0.9613037109375	9.764751470947266	0.5776011505126952	0.10354922180175781	1.06048583984375	-4.833221435546875	-3.078460693359375	9.9981861328125	0.14604630126953125	-0.277727392578125	3.57818603515625	-4.46319580078125	-1.88446044921875	Started
2	0.008	0.0	0.0	0.0	0.0	0.006	0.006	0.006	0.003	9.868899243164062	0.16220716247558592	-0.008978256225585938	2.819061279296875	-3.818511962890625	-0.988006591796875	9.783905084228515	0.4016273284912109	0.06344634399414062	0.850677490234375	-4.856109619140625	-2.742767333984375	9.979631069946288	-0.03591302490234375	-0.2932897033691406	3.429412841796875	-4.52423095703125	-2.040863037109375	IMU1|LSM6DS3|0x6A|I2C-1|±2g (±19,6m/s²)|±125º/s|400Hz
3	0.012	0.0	0.0	0.0	0.0	0.006	0.003	0.003	0.003	9.858125335693359	0.15322890625	0.022146365356445312	2.880096435546875	-4.009246826171875	-1.03759765625	9.779116680908203	0.4800374328613281	0.07781155395507812	0.873565673828125	-5.092620849609375	-3.30352783203125	10.011354241943359	0.08738836059570312	-0.26874913635253905	3.56292724609375	-4.619598388671875	-2.201080322265625	IMU2|LSM6DS3|0x6B|I2C-1|±2g (±19,6m/s²)|±125º/s|400Hz
4	0.016	0.0	0.0	0.0	0.0	0.003	0.006	0.003	0.006	9.864709390258788	0.27293898925781246	-0.0053869537353515625	3.086090087890625	-3.88336181640625	-1.071929931640625	9.76175871887207	0.5518634826660156	0.09636661682128905	0.9918212890625	-5.1116943359375	-2.8533935546875	9.963470208740233	0.15322890625	-0.2645592834472656	3.582000732421875	-4.28009033203125	-2.056121826171875	IMU3|LSM6DS3|0x6B|I2C-2|±2g (±19,6m/s²)|±125º/s|400Hz
5	0.02	0.0	0.0	0.0	0.0	0.003	0.003	0.006	0.009000000000000001	9.859920986938477	0.14784195251464843	0.05087678527832031	2.7618408203125	-3.643035888671875	-0.957489013671875	9.764751470947266	0.47584757995605464	0.10115502014160156	1.0833740234375	-5.0048828125	-2.880096435546875	9.991003527832031	0.02154781494140625	-0.28012159423828126	3.520965576171875	-4.66156005859375	-1.983642578125	ADC|ADS1015|0|0|1|0|±6,144 V|2400 SPS
6	0.024	0.0	0.0	0.0	0.0	0.006	0.003	0.003	0.006	9.881468801879882	-0.007781155395507812	0.03172317199707031	2.32696533203125	-3.528594970703125	-0.904083251953125	9.777919580078125	0.49260699157714843	0.13168109130859373	0.827789306640625	-4.69970703125	-3.032684326171875	9.956886154174803	0.005985504150390624	-0.229843359375	3.719329833984375	-4.779815673828125	-2.277374267578125	Gen1|Disabled
7	0.028	0.0	0.0	0.0	0.0	0.006	0.003	0.003	0.003	9.87009634399414	0.17298106994628906	0.07422025146484375	2.9449462890625	-3.993988037109375	-0.90789794921875	9.771934075927733	0.5799953521728515	0.12449848632812499	1.148223876953125	-5.199432373046875	-3.30352783203125	10.020332498168944	0.12868833923339842	-0.23642741394042968	3.673553466796875	-4.459381103515625	-2.361297607421875	Gen2|Enabled|Noise|0.0|10.0|1668
8	0.032	0.0	0.0	0.0	0.0	0.003	0.003	0.006	0.006	9.874884747314452	0.05327098693847656	0.06105214233398437	2.185821533203125	-3.5858154296875	-0.568389892578125	9.744400756835937	0.6015431671142578	0.15023615417480468	0.896453857421875	-4.95147705078125	-2.666473388671875	9.990404977416992	0.19213468322753904	-0.24181436767578124	3.4637451171875	-4.459381103515625	-1.53350830078125	Gen3|Enabled|Noise|0.0|10.0|128
9	0.036000000000000004	0.0	0.0	0.0	0.0	0.003	0.003	0.003	0.006	9.850344180297851	0.07541735229492187	0.10714052429199218	2.6092529296875	-3.993988037109375	-0.9613037109375	9.779116680908203	0.4531026641845703	0.15741875915527342	0.99945068359375	-4.878997802734375	-3.0517578125	10.013149893188476	-0.06883329772949218	-0.19632453613281248	3.482818603515625	-4.497528076171875	-2.26593017578125	Gen4|Enabled|Noise|0.0|10.0|128
10	0.04	0.0	0.0	0.0	0.0	0.009000000000000001	0.003	0.003	0.006	9.885658654785155	0.0	0.06763619689941405	2.25830078125	-3.337860107421875	-0.7781982421875	9.773131176757811	0.6111199737548828	0.17477672119140625	0.904083251953125	-5.126953125	-2.864837646484375	10.047267266845703	0.17417817077636719	-0.21188684692382811	3.505706787109375	-4.6234130859375	-1.689910888671875	Ctrl|Disabled
11	0.044	0.0	0.0	0.0	0.0	0.006	0.006	0.006	0.006	9.888052856445311	0.06883329772949218	0.003591302490234375	2.197265625	-3.444671630859375	-0.988006591796875	9.827000714111328	0.43454760131835934	0.11671733093261719	1.262664794921875	-5.191802978515625	-3.11279296875	9.989207876586914	-0.012569558715820313	-0.2867056488037109	3.704071044921875	-4.49371337890625	-2.086639404296875	
12	0.048	0.0	0.0	0.0	0.0	0.003	0.006	0.006	0.006	9.894038360595703	-0.037110125732421874	0.09935936889648436	1.956939697265625	-3.200531005859375	-0.79345703125	9.733626849365233	0.5572504364013672	0.20949264526367187	0.965118408203125	-4.852294921875	-2.841949462890625	10.005368737792969	0.11851298217773437	-0.16041151123046873	3.574371337890625	-4.848480224609375	-1.91497802734375	
13	0.052000000000000005	0.0	0.0	0.0	0.0	0.003	0.003	0.003	0.006	9.90241806640625	-0.0017956512451171875	0.04848258361816406	2.3956298828125	-3.482818603515625	-0.8392333984375	9.873089096069336	0.33399113159179683	0.14544775085449219	1.003265380859375	-5.092620849609375	-3.170013427734375	10.11909331665039	-0.10115502014160156	-0.2597708801269531	3.726959228515625	-4.60052490234375	-2.37274169921875	
14	0.056	0.0	0.0	0.0	0.0	0.003	0.006	0.006	0.003	9.894038360595703	-0.018555062866210937	0.11552023010253906	3.45611572265625	-4.11224365234375	-0.92315673828125	9.680954412841796	0.70868369140625	0.36930560607910157	0.8544921875	-4.6539306640625	-2.849578857421875	9.993996279907225	0.1657984649658203	-0.14903905334472656	3.5400390625	-4.535675048828125	-1.8768310546875	
15	0.06	0.0	0.0	0.0	0.0	0.003	0.003	0.003	0.006	9.903016616821288	0.011971008300781249	0.05626373901367187	2.391815185546875	-3.60870361328125	-1.03759765625	9.827599264526366	0.3399766357421875	0.17896657409667968	1.31988525390625	-4.734039306640625	-2.960205078125	10.065223779296874	-0.11372457885742186	-0.24600422058105467	3.772735595703125	-4.299163818359375	-2.048492431640625	
16	0.064	0.0	0.0	0.0	0.0	0.003	0.003	0.003	0.006	9.760561618041992	0.4333505004882812	0.28311434631347654	3.35693359375	-3.85284423828125	-0.911712646484375	9.692326870727538	0.6380547424316406	0.4016273284912109	0.942230224609375	-4.87518310546875	-2.899169921875	10.078391888427733	0.23642741394042968	-0.1370680450439453	3.597259521484375	-4.92095947265625	-1.834869384765625	
17	0.068	0.0	0.0	0.0	0.0	0.006	0.006	0.006	0.003	9.916184725952148	-0.03651157531738281	0.01915361328125	2.1514892578125	-3.4332275390625	-0.904083251953125	9.866505041503906	0.3393780853271484	0.1388636962890625	0.988006591796875	-5.1727294921875	-3.15093994140625	10.117896215820313	-0.20350714111328125	-0.277727392578125	3.7689208984375	-4.2572021484375	-2.208709716796875	
18	0.07200000000000001	0.0	0.0	0.0	0.0	0.006	0.003	0.003	0.003	9.76116016845703	0.4836287353515625	0.2699462371826172	3.269195556640625	-4.077911376953125	-1.0223388671875	9.674968908691406	0.6727706665039062	0.39863457641601563	1.079559326171875	-5.157470703125	-2.834320068359375	10.054449871826172	0.27174188842773433	-0.1693897674560547	3.39508056640625	-4.6539306640625	-1.74713134765625	
19	0.076	0.0	0.0	0.0	0.0	0.0	0.006	0.006	0.003	9.853935482788085	0.24660277099609373	0.19213468322753904	2.338409423828125	-3.2958984375	-0.720977783203125	9.873687646484374	0.32082302246093747	0.14245499877929688	0.888824462890625	-5.130767822265625	-2.933502197265625	10.056844073486328	-0.1640028137207031	-0.22086510314941404	3.475189208984375	-4.695892333984375	-1.979827880859375	
20	0.08	0.0	0.0	0.0	0.0	0.003	0.006	0.006	0.006	9.77432827758789	0.43155484924316406	0.2232593048095703	3.0670166015625	-3.936767578125	-1.071929931640625	9.783905084228515	0.5913678100585937	0.2280477081298828	0.9765625	-4.863739013671875	-2.81524658203125	10.082581741333007	0.21428104858398436	-0.17357962036132812	3.398895263671875	-4.64630126953125	-2.010345458984375	
21	0.084	0.0	0.0	0.0	0.0	0.003	0.003	0.006	0.003	9.868899243164062	0.2316390106201172	0.14245499877929688	2.47955322265625	-3.582000732421875	-0.774383544921875	9.879673150634765	0.30466216125488277	0.10474632263183593	1.132965087890625	-4.84466552734375	-2.960205078125	10.059238275146484	-0.22505495605468748	-0.2693476867675781	3.265380859375	-4.703521728515625	-1.888275146484375	
22	0.088	0.0	0.0	0.0	0.0	0.003	0.006	0.003	0.003	9.76116016845703	0.469862075805664	0.20769699401855468	3.143310546875	-3.742218017578125	-0.972747802734375	9.742605105590819	0.6302735870361328	0.2214636535644531	0.99945068359375	-5.092620849609375	-3.200531005859375	10.018536846923828	0.15442600708007811	-0.022744915771484374	3.89862060546875	-4.44793701171875	-2.23541259765625	
23	0.092	0.0	0.0	0.0	0.0	0.003	0.003	0.003	0.003	9.858125335693359	0.24301146850585936	0.12330138549804687	2.635955810546875	-3.66973876953125	-0.911712646484375	9.753977563476562	0.32561142578124996	0.22685060729980466	0.339508056640625	-4.894256591796875	-2.5634765625	10.092757098388672	-0.2759317413330078	-0.28909985046386716	3.200531005859375	-4.863739013671875	-1.766204833984375	
24	0.096	0.0	0.0	0.0	0.0	0.006	0.003	0.003	0.003	9.885658654785155	0.1370680450439453	0.001197100830078125	3.170013427734375	-4.230499267578125	-1.140594482421875	9.76894132385254	0.6206967803955078	0.1975216369628906	0.9918212890625	-4.955291748046875	-3.13568115234375	9.871891995239258	0.12150573425292968	-0.02154781494140625	3.88336181640625	-4.4403076171875	-2.62451171875	
25	0.1	0.0	0.0	0.0	0.0	0.003	0.003	0.006	0.006	9.85094273071289	0.2765302917480469	0.11911153259277343	2.758026123046875	-3.86810302734375	-0.881195068359375	9.740210903930663	0.30466216125488277	0.22744915771484372	0.38909912109375	-4.82940673828125	-2.628326416015625	10.077194787597655	-0.2867056488037109	-0.2705447875976562	3.177642822265625	-4.6539306640625	-1.89971923828125	
26	0.10400000000000001	0.0	0.0	0.0	0.0	0.003	0.006	0.006	0.003	9.89523546142578	0.1322796417236328	-0.016160861206054686	3.13568115234375	-4.03594970703125	-1.125335693359375	9.707290631103515	0.39863457641601563	0.17896657409667968	1.010894775390625	-4.886627197265625	-3.406524658203125	9.855731134033203	0.17477672119140625	0.0047884033203125	3.841400146484375	-4.31060791015625	-2.712249755859375	
27	0.108	0.0	0.0	0.0	0.0	0.003	0.006	0.003	0.0	9.907206469726562	0.297479556274414	0.031124621582031248	2.605438232421875	-3.833770751953125	-0.720977783203125	9.776722479248047	0.2861070983886719	0.1771709228515625	0.40435791015625	-5.035400390625	-2.6092529296875	9.890447058105469	-0.07362170104980469	-0.28311434631347654	3.85284423828125	-4.53948974609375	-2.03704833984375	
28	0.112	0.0	0.0	0.0	0.0	0.006	0.003	0.003	0.006	9.864709390258788	0.16041151123046873	-0.023343466186523436	3.444671630859375	-4.29534912109375	-1.07574462890625	9.698910925292969	0.37888241271972656	0.19991583862304688	0.6866455078125	-4.78363037109375	-3.34930419921875	9.830592016601562	0.17058686828613281	-0.023942016601562498	4.055023193359375	-4.35638427734375	-2.666473388671875	
29	0.116	0.0	0.0	0.0	0.0	0.006	0.003	0.003	0.003	9.867702142333984	-0.09756371765136718	0.0017956512451171875	2.353668212890625	-3.711700439453125	-0.873565673828125	9.749189160156249	0.3507505432128906	0.16220716247558592	1.041412353515625	-5.06591796875	-2.7313232421875	9.87608184814453	-0.040701428222656245	-0.26874913635253905	3.742218017578125	-4.695892333984375	-1.91497802734375	
30	0.12	0.0	0.0	0.0	0.0	0.003	0.003	0.003	0.003	9.875483297729492	0.13347674255371092	-0.037708676147460936	3.589630126953125	-4.528045654296875	-1.03759765625	9.708487731933593	0.4082113830566406	0.15322890625	0.827789306640625	-4.810333251953125	-3.4027099609375	10.029310754394531	-0.23223756103515625	-0.28969840087890625	3.391265869140625	-4.222869873046875	-2.254486083984375	
31	0.124	0.0	0.0	0.0	0.0	0.006	0.003	0.003	0.003	9.8449572265625	-0.14544775085449219	-0.008379705810546874	2.140045166015625	-3.620147705078125	-0.81634521484375	9.710881933593749	0.47584757995605464	0.040701428222656245	1.216888427734375	-5.13458251953125	-2.796173095703125	9.862315188598632	-0.03172317199707031	-0.28490999755859375	3.864288330078125	-4.474639892578125	-1.9989013671875	
32	0.128	0.0	0.0	0.0	0.0	0.006	0.003	0.006	0.006	9.87727894897461	-0.4531026641845703	-0.027533319091796873	1.956939697265625	-3.177642822265625	-0.92315673828125	9.69771382446289	0.48243163452148435	0.16041151123046873	1.194000244140625	-5.0201416015625	-3.54766845703125	10.029310754394531	-0.21128829650878905	-0.28969840087890625	3.559112548828125	-4.18853759765625	-2.410888671875	
33	0.132	0.0	0.0	0.0	0.0	0.003	0.003	0.003	0.006	9.83897172241211	-0.201112939453125	0.0005985504150390625	1.522064208984375	-3.27301025390625	-0.682830810546875	9.712079034423828	0.49200844116210934	0.027533319091796873	1.01470947265625	-5.123138427734375	-2.93731689453125	10.066420880126952	0.00718260498046875	-0.1693897674560547	3.368377685546875	-4.749298095703125	-1.659393310546875	
34	0.136	0.0	0.0	0.0	0.0	0.006	0.003	0.003	0.003	9.87608184814453	-0.469263525390625	-0.0383072265625	1.705169677734375	-2.948760986328125	-1.15966796875	9.868300692749022	0.2214636535644531	0.017956512451171875	1.04522705078125	-4.970550537109375	-3.2958984375	10.025120901489258	-0.2376245147705078	-0.2920926025390625	3.597259521484375	-4.32586669921875	-2.32696533203125	
35	0.14	0.0	0.0	0.0	0.0	0.003	0.006	0.003	0.006	9.83777462158203	-0.20470424194335937	0.018555062866210937	1.62506103515625	-3.414154052734375	-0.682830810546875	9.698910925292969	0.5698199951171875	0.03950432739257812	1.16729736328125	-5.13458251953125	-2.925872802734375	10.059238275146484	0.0430956298828125	-0.16879121704101563	3.45611572265625	-4.57000732421875	-1.74713134765625	
36	0.14400000000000002	0.0	0.0	0.0	0.0	0.003	0.003	0.003	0.003	9.865307940673828	-0.42796354675292964	-0.02154781494140625	1.46484375	-3.22723388671875	-1.010894775390625	9.8449572265625	0.2711433380126953	0.017956512451171875	1.201629638671875	-4.9896240234375	-3.238677978515625	10.012551342773437	-0.22744915771484372	-0.29089550170898437	3.77655029296875	-4.688262939453125	-2.277374267578125	
37	0.148	0.0	0.0	0.0	0.0	0.003	0.003	0.003	0.003	9.830592016601562	0.17178396911621094	0.18854338073730467	1.89208984375	-3.2501220703125	-0.6866455078125	9.828197814941406	0.4471171600341797	0.2753331909179687	0.629425048828125	-4.974365234375	-2.780914306640625	10.081983190917969	0.003591302490234375	-0.16998831787109375	3.35693359375	-4.749298095703125	-1.556396484375	
38	0.152	0.0	0.0	0.0	0.0	0.003	0.006	0.003	0.003	9.867702142333984	-0.3908534210205078	0.0005985504150390625	1.438140869140625	-3.055572509765625	-0.8087158203125	9.85094273071289	0.296881005859375	0.03950432739257812	1.129150390625	-4.802703857421875	-3.231048583984375	10.251971508789062	-0.43574470214843747	-0.6584054565429687	3.643035888671875	-4.61578369140625	-2.12860107421875	
39	0.156	0.0	0.0	0.0	0.0	0.003	0.003	0.003	0.003	9.813832604980469	0.32620997619628905	0.2154781494140625	2.0904541015625	-3.3111572265625	-0.591278076171875	9.829993466186522	0.45549686584472654	0.28311434631347654	0.514984130859375	-4.8065185546875	-2.643585205078125	10.071209283447265	0.022744915771484374	-0.14604630126953125	3.421783447265625	-4.726409912109375	-1.247406005859375	
40	0.16	0.0	0.0	0.0	0.0	0.006	0.003	0.003	0.003	9.868300692749022	-0.3393780853271484	0.0053869537353515625	2.13623046875	-3.05938720703125	-0.8392333984375	9.889249957275391	0.11611878051757812	0.014963760375976562	1.1444091796875	-5.161285400390625	-2.735137939453125	10.251372958374024	-0.4848258361816406	-0.6673837127685547	3.475189208984375	-4.611968994140625	-2.02178955078125	
41	0.164	0.0	0.0	0.0	0.0	0.003	0.006	0.003	0.003	9.803058697509766	0.44113165588378905	0.2442085693359375	2.50244140625	-3.5552978515625	-0.484466552734375	9.85752678527832	0.4273649963378906	0.29269115295410153	0.67901611328125	-4.974365234375	-2.429962158203125	10.081384640502929	0.48542438659667964	-0.23642741394042968	3.284454345703125	-4.909515380859375	-1.54876708984375	
42	0.168	0.0	0.0	0.0	0.0	0.003	0.003	0.003	0.006	9.950900650024414	0.29927520751953124	-0.040102877807617184	2.50244140625	-3.475189208984375	-0.698089599609375	9.886855755615233	0.061650692749023434	0.032920272827148434	1.01470947265625	-5.054473876953125	-2.73895263671875	10.247781655883788	-0.49200844116210934	-0.6392518432617187	3.498077392578125	-4.360198974609375	-2.132415771484375	
43	0.17200000000000001	0.0	0.0	0.0	0.0	0.003	0.006	0.003	0.003	9.789890588378906	0.5470750793457031	0.2711433380126953	2.864837646484375	-3.6468505859375	-0.67901611328125	9.708487731933593	0.6829460235595702	0.13587094421386717	1.09100341796875	-4.87518310546875	-2.838134765625	10.05504842224121	0.48243163452148435	-0.22685060729980466	3.070831298828125	-4.535675048828125	-1.54876708984375	
44	0.176	0.0	0.0	0.0	0.0	0.003	0.003	0.003	0.003	9.956287603759765	0.25797522888183594	-0.04129997863769531	2.2125244140625	-3.41033935546875	-0.823974609375	9.897629663085937	-0.008978256225585938	0.040701428222656245	0.934600830078125	-5.168914794921875	-2.605438232421875	10.044274514770507	-0.17417817077636719	-0.3136404174804687	3.22723388671875	-4.772186279296875	-1.399993896484375	
45	0.18	0.0	0.0	0.0	0.0	0.006	0.006	0.003	0.003	9.970054263305663	0.5428852264404297	-0.05087678527832031	4.253387451171875	-4.398345947265625	-1.1749267578125	9.689334118652344	0.6296750366210937	0.16340426330566404	0.904083251953125	-4.9285888671875	-2.7313232421875	10.056844073486328	0.4375403533935547	-0.19093758239746092	3.261566162109375	-4.543304443359375	-1.560211181640625	
46	0.184	0.0	0.0	0.0	0.0	0.003	0.006	0.003	0.003	9.943718045043944	0.24959552307128904	-0.016160861206054686	1.903533935546875	-3.482818603515625	-0.92315673828125	9.76116016845703	0.4477157104492187	0.09157821350097656	1.110076904296875	-4.764556884765625	-2.803802490234375	10.020931048583984	-0.16220716247558592	-0.27832594299316404	3.276824951171875	-4.730224609375	-1.705169677734375	
47	0.188	0.0	0.0	0.0	0.0	0.003	0.006	0.003	0.003	9.969455712890625	0.4590881683349609	-0.034715924072265626	3.864288330078125	-4.47845458984375	-1.007080078125	9.688735568237304	0.5919663604736328	0.1897404815673828	1.209259033203125	-4.8675537109375	-2.76947021484375	10.074202035522461	0.45190556335449217	-0.1897404815673828	4.3487548828125	-4.58526611328125	-1.911163330078125	
48	0.192	0.0	0.0	0.0	0.0	0.003	0.003	0.003	0.003	9.941922393798828	0.17956512451171874	-0.014963760375976562	1.850128173828125	-3.31878662109375	-1.07574462890625	9.776722479248047	0.36212300109863277	0.09995791931152344	1.25885009765625	-4.94384765625	-2.78472900390625	10.037690460205077	-0.24061726684570311	-0.29269115295410153	3.22723388671875	-4.7607421875	-1.705169677734375	
49	0.196	0.0	0.0	0.0	0.0	0.003	0.003	0.003	0.003	9.966462960815429	0.37229835815429685	-0.027533319091796873	3.24249267578125	-4.1046142578125	-1.16729736328125	9.54448491821289	0.488417138671875	0.21487959899902342	1.361846923828125	-4.718780517578125	-3.696441650390625	9.867702142333984	0.44053310546874996	-0.04608838195800781	3.887176513671875	-4.46319580078125	-2.696990966796875	
50	0.2	0.0	0.0	0.0	0.0	0.003	0.003	0.003	0.006	9.82460651245117	0.15682020874023436	0.08858546142578125	3.276824951171875	-4.21142578125	-0.946044921875	9.783306533813477	0.28909985046386716	0.08978256225585937	1.224517822265625	-4.955291748046875	-2.796173095703125	10.034697708129881	-0.24779987182617186	-0.3220201232910156	3.284454345703125	-4.741668701171875	-1.60980224609375	
51	0.20400000000000001	0.0	0.0	0.0	0.0	0.006	0.006	0.003	0.003	9.981426721191406	0.28012159423828126	-0.027533319091796873	3.0364990234375	-3.85284423828125	-1.277923583984375	9.704896429443359	0.9618705169677734	0.23223756103515625	1.8157958984375	-5.24139404296875	-3.7384033203125	9.886257205200195	0.4129997863769531	-0.025737667846679687	3.673553466796875	-4.638671875	-2.471923828125	
52	0.20800000000000002	0.0	0.0	0.0	0.0	0.009000000000000001	0.003	0.003	0.006	9.816226806640625	0.18614917907714842	0.09636661682128905	3.322601318359375	-4.2572021484375	-0.766754150390625	9.783905084228515	0.23223756103515625	0.07481880187988281	0.919342041015625	-5.275726318359375	-2.9296875	9.860519537353515	0.14006079711914063	-0.0909796630859375	3.70025634765625	-4.657745361328125	-1.922607421875	
53	0.212	0.0	0.0	0.0	0.0	0.0	0.003	0.003	0.003	9.963470208740233	0.22086510314941404	-0.02454056701660156	3.0364990234375	-4.093170166015625	-0.972747802734375	9.695319622802733	0.9115922821044922	0.24361001892089842	1.5411376953125	-4.95147705078125	-3.73077392578125	9.87009634399414	0.36750995483398435	-0.040701428222656245	3.570556640625	-4.421234130859375	-2.529144287109375	
54	0.216	0.0	0.0	0.0	0.0	0.003	0.003	0.006	0.003	9.81862100830078	0.12988544006347655	0.11611878051757812	3.406524658203125	-4.31060791015625	-0.9918212890625	9.701903677368163	0.8068459594726562	0.24361001892089842	1.171112060546875	-5.451202392578125	-3.002166748046875	9.853336932373047	0.023942016601562498	-0.12330138549804687	3.8299560546875	-4.5623779296875	-2.223968505859375	
55	0.22	0.0	0.0	0.0	0.0	0.003	0.003	0.006	0.003	9.87727894897461	-0.14425065002441406	0.12629413757324218	3.314971923828125	-4.058837890625	-1.094818115234375	9.700706576538085	0.7823053924560547	0.26216508178710934	1.434326171875	-4.726409912109375	-2.918243408203125	9.956287603759765	-0.21966800231933592	-0.055066638183593745	3.62396240234375	-4.0130615234375	-2.605438232421875	
56	0.224	0.0	0.0	0.0	0.0	0.003	0.003	0.003	0.003	9.809044201660155	0.2855085479736328	0.09935936889648436	3.101348876953125	-4.146575927734375	-0.732421875	9.76116016845703	-0.022146365356445312	0.24779987182617186	0.518798828125	-4.7149658203125	-3.326416015625	9.822212310791015	0.2597708801269531	-0.05746083984375	3.94439697265625	-4.673004150390625	-2.361297607421875	
57	0.228	0.0	0.0	0.0	0.0	0.009000000000000001	0.003	0.003	0.006	9.87668039855957	-0.1227028350830078	0.12389993591308593	3.192901611328125	-3.9825439453125	-0.93841552734375	9.75517466430664	0.7990648040771484	0.14903905334472656	1.110076904296875	-4.89044189453125	-2.73895263671875	9.93354268798828	-0.2454056701660156	-0.032920272827148434	3.437042236328125	-4.17327880859375	-2.490997314453125	
58	0.232	0.0	0.0	0.0	0.0	0.006	0.003	0.003	0.003	9.903016616821288	-0.1771709228515625	0.05686228942871093	2.3193359375	-3.5400390625	-0.438690185546875	9.725247143554688	0.3902548706054687	0.2549824768066406	1.2359619140625	-5.16510009765625	-3.543853759765625	9.85692823486328	-0.143652099609375	-0.10115502014160156	3.276824951171875	-4.7454833984375	-1.094818115234375	
59	0.23600000000000002	0.0	0.0	0.0	0.0	0.006	0.003	0.003	0.006	9.907206469726562	-0.18914193115234373	0.12090718383789062	2.513885498046875	-3.83758544921875	-1.033782958984375	9.812036953735351	0.4369418029785156	0.1879448303222656	0.675201416015625	-4.695892333984375	-2.86102294921875	9.973047015380859	-0.23642741394042968	-0.047884033203124995	3.681182861328125	-4.20379638671875	-2.5787353515625	
60	0.24	0.0	0.0	0.0	0.0	0.003	0.003	0.003	0.006	9.92217023010254	-0.08020575561523437	0.055066638183593745	2.44140625	-3.574371337890625	-0.67138671875	9.83837317199707	0.3393780853271484	0.26396073303222656	0.385284423828125	-5.008697509765625	-3.246307373046875	10.001777435302733	0.09337386474609374	0.00239420166015625	3.448486328125	-4.726409912109375	-1.4801025390625	
61	0.244	0.0	0.0	0.0	0.0	0.006	0.003	0.003	0.003	9.886855755615233	-0.15263035583496093	0.11252747802734374	2.864837646484375	-3.73077392578125	-0.865936279296875	9.822212310791015	0.24301146850585936	0.18315642700195311	1.079559326171875	-4.505157470703125	-2.86865234375	9.928155734252929	-0.20769699401855468	-0.02693476867675781	3.795623779296875	-4.31060791015625	-2.468109130859375	
62	0.248	0.0	0.0	0.0	0.0	0.003	0.003	0.003	0.006	9.935936889648437	-0.12868833923339842	0.04848258361816406	2.716064453125	-3.8299560546875	-0.514984130859375	9.834781869506836	0.4644751220703125	0.24899697265624998	0.576019287109375	-5.008697509765625	-3.01361083984375	10.014945544433592	0.15083470458984374	0.04129997863769531	3.612518310546875	-4.947662353515625	-1.71661376953125	
63	0.252	0.0	0.0	0.0	0.0	0.006	0.003	0.003	0.003	9.889848507690429	-0.3076549133300781	-0.047285482788085934	2.079010009765625	-3.23486328125	-1.12152099609375	9.935936889648437	0.4423287567138672	-0.05087678527832031	1.003265380859375	-4.764556884765625	-2.6702880859375	10.275314974975585	-0.39983167724609375	-0.6434416961669921	3.841400146484375	-4.4097900390625	-2.166748046875	
64	0.256	0.0	0.0	0.0	0.0	0.006	0.003	0.003	0.003	9.919177478027343	-0.07841010437011718	0.07062894897460938	2.880096435546875	-3.864288330078125	-0.873565673828125	9.801861596679688	0.3716998077392578	0.2603694305419922	0.26702880859375	-5.069732666015625	-2.841949462890625	9.986215124511718	0.15981296081542967	0.05746083984375	3.536224365234375	-4.638671875	-1.3885498046875	
65	0.26	0.0	0.0	0.0	0.0	0.006	0.003	0.003	0.0	9.891644158935547	-0.297479556274414	-0.07062894897460938	1.789093017578125	-3.2196044921875	-1.117706298828125	9.929951385498047	0.517746109008789	-0.0718260498046875	1.220703125	-4.909515380859375	-2.9144287109375	10.274716424560546	-0.39145197143554683	-0.6697779144287109	3.60870361328125	-4.329681396484375	-2.193450927734375	
66	0.264	0.0	0.0	0.0	0.0	0.0	0.003	0.006	0.006	9.91438907470703	0.0047884033203125	0.08858546142578125	3.28826904296875	-3.963470458984375	-0.78582763671875	9.651026892089844	0.469862075805664	0.27293898925781246	0.31280517578125	-5.107879638671875	-2.674102783203125	10.121487518310547	0.2771288421630859	-0.3435679382324219	3.34930419921875	-4.825592041015625	-1.85394287109375	
67	0.268	0.0	0.0	0.0	0.0	0.006	0.003	0.003	0.006	9.893439810180663	0.13467384338378904	-0.1322796417236328	1.79290771484375	-3.204345703125	-0.713348388671875	9.913191973876952	0.7038952880859375	-0.07900865478515624	1.46484375	-4.909515380859375	-3.1280517578125	10.242394702148436	-0.3136404174804687	-0.6787561706542968	3.711700439453125	-4.352569580078125	-2.2125244140625	
68	0.272	0.0	0.0	0.0	0.0	0.003	0.006	0.006	0.003	9.692326870727538	0.08140285644531249	0.2555810272216797	3.22723388671875	-3.8299560546875	-0.9765625	9.67137760620117	0.3507505432128906	0.28431144714355466	-0.030517578125	-4.852294921875	-2.620697021484375	10.121487518310547	0.26276363220214843	-0.3585316986083984	3.253936767578125	-4.53948974609375	-1.781463623046875	
69	0.276	0.0	0.0	0.0	0.0	0.003	0.003	0.003	0.003	9.893439810180663	-0.051475335693359374	-0.16340426330566404	1.16729736328125	-2.76947021484375	-0.8392333984375	9.888052856445311	0.5961562133789062	-0.1149216796875	1.2969970703125	-5.22613525390625	-3.139495849609375	10.24000050048828	-0.2962824554443359	-0.6476315490722656	2.99835205078125	-4.85992431640625	-1.3885498046875	
70	0.28	0.0	0.0	0.0	0.0	0.003	0.003	0.003	0.009000000000000001	9.705494979858399	0.25797522888183594	0.1927332336425781	2.62451171875	-3.41033935546875	-0.926971435546875	9.643245736694336	0.3633201019287109	0.3082534637451172	0.11444091796875	-4.718780517578125	-2.60162353515625	10.092757098388672	0.23642741394042968	-0.37289690856933594	3.299713134765625	-4.703521728515625	-1.8463134765625	
71	0.28400000000000003	0.0	0.0	0.0	0.0	0.003	0.003	0.006	0.003	9.827599264526366	0.18734627990722655	0.11791443176269531	1.422882080078125	-3.002166748046875	-1.010894775390625	9.87727894897461	0.6141127258300781	-0.16220716247558592	1.09100341796875	-5.084991455078125	-3.02886962890625	10.13166287536621	-0.20709844360351562	-0.5470750793457031	3.192901611328125	-4.878997802734375	-1.44195556640625	
72	0.28800000000000003	0.0	0.0	0.0	0.0	0.003	0.003	0.003	0.003	9.738415252685547	0.12689268798828124	0.15562310791015624	2.4261474609375	-3.635406494140625	-0.804901123046875	9.661800799560547	0.3687070556640625	0.36152445068359373	0.9002685546875	-4.817962646484375	-2.86865234375	10.135254177856444	0.1197100830078125	-0.36691140441894526	3.39508056640625	-4.734039306640625	-2.162933349609375	
73	0.292	0.0	0.0	0.0	0.0	0.003	0.006	0.006	0.003	9.83897172241211	0.22744915771484372	0.12389993591308593	1.739501953125	-3.11279296875	-0.640869140625	9.898826763916015	0.5692214447021484	-0.16879121704101563	1.068115234375	-4.9285888671875	-2.933502197265625	10.134655627441406	-0.11133037719726561	-0.5602431884765625	3.208160400390625	-4.913330078125	-1.384735107421875	
74	0.296	0.0	0.0	0.0	0.0	0.003	0.003	0.006	0.003	9.73602105102539	0.28012159423828126	0.1131260284423828	2.773284912109375	-3.74603271484375	-0.8697509765625	9.732429748535155	0.3699041564941406	0.09935936889648436	1.071929931640625	-4.85992431640625	-2.96783447265625	9.827599264526366	-0.03950432739257812	-0.1227028350830078	4.016876220703125	-4.64630126953125	-2.414703369140625	
75	0.3	0.0	0.0	0.0	0.0	0.0	0.003	0.006	0.003	9.827000714111328	0.21188684692382811	0.15562310791015624	2.35748291015625	-3.520965576171875	-0.942230224609375	9.938331091308592	0.47105917663574215	-0.15861585998535155	1.178741455078125	-5.084991455078125	-2.925872802734375	10.152612139892577	-0.12808978881835936	-0.5315127685546874	3.2196044921875	-4.802703857421875	-1.483917236328125	
76	0.304	0.0	0.0	0.0	0.0	0.003	0.003	0.006	0.003	9.848548529052733	-0.022146365356445312	-0.028730419921875	2.109527587890625	-3.238677978515625	-0.934600830078125	9.707290631103515	0.4746504791259765	0.1388636962890625	0.84686279296875	-5.039215087890625	-3.093719482421875	9.871293444824218	-0.07302315063476562	-0.16220716247558592	3.688812255859375	-4.72259521484375	-2.50244140625	
77	0.308	0.0	0.0	0.0	0.0	0.006	0.003	0.006	0.003	9.80665	0.21428104858398436	0.17417817077636719	1.949310302734375	-3.192901611328125	-0.774383544921875	9.726444244384766	0.37409400939941406	0.11372457885742186	0.8697509765625	-5.07354736328125	-3.040313720703125	9.827599264526366	0.18555062866210936	-0.10773907470703124	3.719329833984375	-4.695892333984375	-2.31170654296875	
78	0.312	0.0	0.0	0.0	0.0	0.0	0.006	0.006	0.006	9.82460651245117	0.07721300354003906	0.03890577697753906	2.41851806640625	-3.631591796875	-0.904083251953125	9.719261639404296	0.4644751220703125	0.15502455749511718	0.5645751953125	-4.94384765625	-2.986907958984375	9.878476049804688	-0.09935936889648436	-0.16160861206054686	3.570556640625	-4.398345947265625	-2.3193359375	
79	0.316	0.0	0.0	0.0	0.0	0.009000000000000001	0.003	0.003	0.006	9.82580361328125	0.2807201446533203	0.16280571289062498	2.651214599609375	-3.955841064453125	-0.75531005859375	9.722254391479492	0.39923312683105466	0.14903905334472656	1.064300537109375	-5.07354736328125	-3.055572509765625	9.81862100830078	0.1771709228515625	-0.0939724151611328	3.795623779296875	-4.566192626953125	-1.979827880859375	
80	0.32	0.0	0.0	0.0	0.0	0.006	0.003	0.006	0.006	9.811438403320311	0.10295067138671875	0.1131260284423828	2.838134765625	-3.658294677734375	-0.640869140625	9.681552963256836	0.5315127685546874	0.22385785522460935	0.92315673828125	-4.75311279296875	-3.192901611328125	9.85094273071289	-0.06404489440917968	-0.09516951599121093	3.88336181640625	-4.383087158203125	-2.08282470703125	
81	0.324	0.0	0.0	0.0	0.0	0.006	0.006	0.006	0.006	10.032902056884765	-0.015562310791015624	-0.26755203552246093	2.7618408203125	-4.215240478515625	-0.89263916015625	9.731232647705077	0.44053310546874996	0.16759411621093748	0.637054443359375	-5.01251220703125	-3.143310546875	9.840168823242188	0.181959326171875	-0.00718260498046875	3.5858154296875	-4.5013427734375	-2.124786376953125	
82	0.328	0.0	0.0	0.0	0.0	0.006	0.003	0.006	0.006	9.803058697509766	0.22266075439453123	0.15502455749511718	3.39508056640625	-4.0283203125	-1.003265380859375	9.658209497070311	0.49739539489746093	0.24480711975097655	0.9765625	-4.73785400390625	-3.082275390625	9.97903251953125	-0.143652099609375	-0.143652099609375	3.643035888671875	-4.245758056640625	-1.94549560546875	
83	0.332	0.0	0.0	0.0	0.0	0.003	0.003	0.003	0.003	10.019733947753906	-0.003591302490234375	-0.258573779296875	2.7618408203125	-4.207611083984375	-0.92315673828125	9.773131176757811	0.43933600463867184	0.16519991455078123	0.63323974609375	-5.096435546875	-2.9449462890625	9.79946739501953	0.2232593048095703	-0.013168109130859374	3.7078857421875	-4.871368408203125	-2.094268798828125	
84	0.336	0.0	0.0	0.0	0.0	0.006	0.006	0.003	0.003	9.929951385498047	0.14245499877929688	-0.011971008300781249	3.8604736328125	-4.2724609375	-0.782012939453125	9.648632690429688	0.4674678741455078	0.3112462158203125	0.995635986328125	-4.604339599609375	-3.30352783203125	10.005368737792969	-0.15442600708007811	-0.1149216796875	3.513336181640625	-4.5013427734375	-1.941680908203125	
85	0.34	0.0	0.0	0.0	0.0	0.009000000000000001	0.003	0.006	0.003	10.028113653564452	-0.05626373901367187	-0.18076222534179687	2.89154052734375	-4.222869873046875	-0.92315673828125	9.788094937133788	0.4339490509033203	0.14544775085449219	0.911712646484375	-5.096435546875	-2.933502197265625	10.066420880126952	0.025139117431640625	-0.023343466186523436	3.604888916015625	-4.791259765625	-2.2125244140625	
86	0.34400000000000003	0.0	0.0	0.0	0.0	0.003	0.006	0.006	0.003	9.94012674255371	0.17597382202148437	-0.08080430603027343	3.53240966796875	-4.23431396484375	-0.904083251953125	9.898826763916015	0.5740098480224609	0.029927520751953124	1.407623291015625	-4.8065185546875	-2.750396728515625	9.94012674255371	-0.1227028350830078	-0.09576806640624999	3.726959228515625	-4.413604736328125	-1.96075439453125	
87	0.34800000000000003	0.0	0.0	0.0	0.0	0.006	0.003	0.003	0.006	10.022128149414062	-0.017956512451171875	-0.13287819213867186	2.986907958984375	-4.41741943359375	-1.007080078125	9.79348189086914	0.40402153015136716	0.1640028137207031	0.865936279296875	-5.3558349609375	-2.78472900390625	10.034099157714843	0.04668693237304687	0.04189852905273437	3.6163330078125	-4.878997802734375	-2.056121826171875	
88	0.352	0.0	0.0	0.0	0.0	0.003	0.003	0.003	0.006	9.980828170776366	-0.04908113403320312	-0.1562216583251953	3.231048583984375	-4.116058349609375	-1.010894775390625	9.970054263305663	0.5003881469726562	0.025737667846679687	1.45721435546875	-4.81414794921875	-2.719879150390625	10.255562811279296	-0.11013327636718749	-0.39444472351074217	3.68499755859375	-4.20379638671875	-1.773834228515625	
89	0.356	0.0	0.0	0.0	0.0	0.006	0.003	0.006	0.006	9.652223992919922	0.36691140441894526	0.5374982727050781	3.77655029296875	-4.12750244140625	-0.751495361328125	9.623493572998047	0.4722562774658203	0.6392518432617187	0.270843505859375	-5.0201416015625	-2.838134765625	9.993397729492187	0.03232172241210937	0.04608838195800781	3.28826904296875	-4.53948974609375	-1.96075439453125	
90	0.36	0.0	0.0	0.0	0.0	0.003	0.003	0.003	0.006	9.943119494628906	-0.032920272827148434	-0.12090718383789062	2.96783447265625	-3.89862060546875	-0.701904296875	9.880271701049804	0.546476528930664	0.05686228942871093	1.60980224609375	-4.695892333984375	-2.742767333984375	10.171167202758788	-0.029328970336914062	-0.3794809631347656	3.612518310546875	-4.37164306640625	-1.8463134765625	
91	0.364	0.0	0.0	0.0	0.0	0.009000000000000001	0.003	0.006	0.006	9.655815295410155	0.28909985046386716	0.527322915649414	3.753662109375	-4.28009033203125	-0.90789794921875	9.708487731933593	0.4542997650146484	0.5632359405517577	0.14495849609375	-5.260467529296875	-2.719879150390625	10.193912118530273	-0.12988544006347655	-0.12150573425292968	3.72314453125	-4.688262939453125	-2.3651123046875	
92	0.368	0.0	0.0	0.0	0.0	0.006	0.003	0.003	0.006	9.964068759155273	-0.20769699401855468	-0.1657984649658203	-0.812530517578125	-1.51824951171875	-1.758575439453125	9.919776028442381	0.5410895751953124	0.03651157531738281	1.445770263671875	-4.95147705078125	-3.18145751953125	10.235212097167969	-0.08918401184082031	-0.4387374542236328	3.631591796875	-4.7149658203125	-1.7852783203125	
93	0.372	0.0	0.0	0.0	0.0	0.003	0.003	0.003	0.006	9.639055883789062	0.3920505218505859	0.4674678741455078	3.15093994140625	-3.810882568359375	-0.67138671875	9.649829791259766	0.49200844116210934	0.5722141967773438	0.67901611328125	-5.382537841796875	-2.95257568359375	9.93294413757324	0.10235212097167969	-0.15502455749511718	3.4942626953125	-4.63104248046875	-2.216339111328125	
94	0.376	0.0	0.0	0.0	0.0	0.003	0.006	0.003	0.003	9.808445651245117	0.06643909606933593	0.3058592620849609	-0.537872314453125	-1.667022705078125	-1.125335693359375	9.956886154174803	0.5189432098388671	-0.07781155395507812	1.407623291015625	-4.901885986328125	-2.960205078125	10.262745416259765	-0.06823474731445311	-0.4273649963378906	3.7078857421875	-4.55474853515625	-1.739501953125	
95	0.38	0.0	0.0	0.0	0.0	0.003	0.003	0.003	0.006	9.673771807861328	0.07841010437011718	0.39324762268066404	2.7008056640625	-3.692626953125	-0.827789306640625	9.725845693969726	0.47165772705078124	0.5033808990478515	0.629425048828125	-5.809783935546875	-2.811431884765625	10.070610733032225	-0.00718260498046875	-0.17118541870117188	3.322601318359375	-4.673004150390625	-2.2430419921875	
96	0.384	0.0	0.0	0.0	0.0	0.006	0.006	0.006	0.009000000000000001	9.801861596679688	0.14604630126953125	0.2555810272216797	-1.46484375	-1.0223388671875	-0.652313232421875	9.9078050201416	0.507570751953125	-0.076614453125	1.293182373046875	-4.7149658203125	-2.994537353515625	10.075997686767577	0.10354922180175781	-0.40402153015136716	3.36456298828125	-4.791259765625	-1.842498779296875	
97	0.388	0.0	0.0	0.0	0.0	0.006	4.62	4.6290000000000004	4.557	9.90122096557617	-0.05566518859863281	-0.0143652099609375	0.32806396484375	-2.262115478515625	-0.90789794921875	9.639055883789062	0.6727706665039062	0.3190273712158203	0.5950927734375	-5.01251220703125	-3.3111572265625	9.962871658325195	0.07003039855957031	-0.13108254089355467	3.482818603515625	-4.6844482421875	-2.12860107421875	
98	0.392	0.0	0.0	0.0	0.0	4.596	4.635	4.632	4.566	9.862315188598632	0.10175357055664062	0.20051438903808594	-0.9613037109375	-1.331329345703125	-0.79345703125	10.034099157714843	0.3585316986083984	-0.1322796417236328	1.09100341796875	-4.70733642578125	-3.021240234375	10.181941110229491	0.037708676147460936	-0.3525461944580078	3.376007080078125	-4.810333251953125	-1.590728759765625	
99	0.396	0.0	0.0	0.0	0.0	4.596	4.626	4.6290000000000004	4.581	9.90840357055664	0.09516951599121093	0.07362170104980469	1.22833251953125	-2.559661865234375	-1.2054443359375	9.674968908691406	0.6781576202392577	0.30705636291503907	1.110076904296875	-4.9285888671875	-3.39508056640625	9.858125335693359	-0.15861585998535155	-0.12090718383789062	3.74603271484375	-4.69207763671875	-2.38800048828125	
100	0.4	0.0	0.0	0.0	0.0	4.587	4.635	4.635	4.581	9.80724855041504	-0.14724340209960937	0.17896657409667968	-1.895904541015625	-0.946044921875	-0.850677490234375	9.74200655517578	0.35314474487304687	0.12210428466796874	0.7476806640625	-5.02777099609375	-2.9754638671875	10.020931048583984	0.15382745666503905	-0.3136404174804687	3.41796875	-4.913330078125	-1.678466796875	
101	0.404	0.0	0.0	0.0	0.0	4.587	4.632	4.635	4.587	9.89523546142578	0.10354922180175781	0.07122749938964844	0.392913818359375	-2.166748046875	-0.736236572265625	9.724648593139648	0.5392939239501953	0.35673604736328124	0.499725341796875	-4.9591064453125	-3.070831298828125	9.868899243164062	-0.19632453613281248	-0.062249243164062495	3.894805908203125	-4.352569580078125	-2.31170654296875	
102	0.40800000000000003	0.0	0.0	0.0	0.0	4.578	4.632	4.6290000000000004	4.593	9.965265859985351	0.34835634155273437	-0.06763619689941405	3.452301025390625	-4.299163818359375	-1.24359130859375	9.864709390258788	0.297479556274414	0.06703764648437499	0.67138671875	-5.02777099609375	-3.173828125	9.949104998779296	0.11791443176269531	-0.15741875915527342	3.910064697265625	-4.535675048828125	-2.170562744140625	
103	0.41200000000000003	0.0	0.0	0.0	0.0	4.593	4.632	4.635	4.572	9.816226806640625	0.07302315063476562	0.12808978881835936	0.255584716796875	-2.3040771484375	-0.934600830078125	9.526528405761718	0.5476736297607422	0.32920272827148434	0.60272216796875	-4.856109619140625	-3.34930419921875	9.686341366577148	-0.062249243164062495	-0.013766659545898436	4.116058349609375	-4.314422607421875	-2.506256103515625	
104	0.41600000000000004	0.0	0.0	0.0	0.0	4.593	4.635	4.635	4.557	9.947907897949218	0.4465186096191406	-0.07721300354003906	2.765655517578125	-3.971099853515625	-0.69427490234375	9.794678991699218	0.3112462158203125	0.15682020874023436	1.07574462890625	-5.153656005859375	-2.92205810546875	9.87668039855957	0.22685060729980466	-0.17657237243652343	3.90625	-4.619598388671875	-2.391815185546875	
105	0.42	0.0	0.0	0.0	0.0	4.593	4.635	4.632	4.572	9.891644158935547	0.24839842224121092	0.08020575561523437	6.28662109375	-5.672454833984375	-1.239776611328125	9.701305126953125	0.40581718139648437	0.24301146850585936	0.89263916015625	-4.669189453125	-3.376007080078125	9.879074600219726	-0.24839842224121092	-0.05327098693847656	3.398895263671875	-4.505157470703125	-2.55584716796875	
106	0.424	0.0	0.0	0.0	0.0	4.593	4.635	4.635	4.5840000000000005	9.949104998779296	0.20231004028320312	-0.08259995727539061	2.918243408203125	-3.955841064453125	-1.125335693359375	9.758765966796874	0.36212300109863277	0.08379705810546874	0.514984130859375	-5.092620849609375	-2.532958984375	9.777919580078125	0.28431144714355466	-0.1693897674560547	3.94439697265625	-4.474639892578125	-2.23541259765625	
107	0.428	0.0	0.0	0.0	0.0	4.587	4.635	4.638	4.587	9.941922393798828	0.5386953735351562	-0.025139117431640625	5.859375	-5.65338134765625	-0.545501708984375	9.589974749755859	0.5087678527832031	0.2819172454833984	0.423431396484375	-4.756927490234375	-3.28826904296875	9.997587582397461	-0.20350714111328125	-0.36930560607910157	3.520965576171875	-4.528045654296875	-1.926422119140625	
108	0.432	0.0	0.0	0.0	0.0	4.581	4.635	4.638	4.59	10.007762939453125	0.7050923889160156	-0.16460136413574217	3.986358642578125	-4.863739013671875	-1.117706298828125	9.88386300354004	0.2759317413330078	0.005985504150390624	0.476837158203125	-5.31005859375	-2.239227294921875	10.00955859069824	0.1801636749267578	-0.3022679595947265	3.7689208984375	-4.802703857421875	-2.216339111328125	
109	0.436	0.0	0.0	0.0	0.0	4.59	4.632	4.626	4.5840000000000005	9.973047015380859	0.13347674255371092	-0.03890577697753906	6.76727294921875	-5.92803955078125	-1.110076904296875	9.843760125732421	0.4537012145996093	-0.004189852905273437	1.415252685546875	-4.955291748046875	-3.0975341796875	10.050858569335936	-0.2825157958984375	-0.3711012573242187	3.231048583984375	-4.375457763671875	-1.77764892578125	
110	0.44	0.0	0.0	0.0	0.0	4.59	4.635	4.632	4.563	9.932345587158203	0.0047884033203125	0.020350714111328123	4.5318603515625	-5.096435546875	-0.26702880859375	9.725247143554688	0.2861070983886719	0.15203180541992187	0.4425048828125	-4.894256591796875	-2.37274169921875	9.926360083007811	0.09157821350097656	-0.05327098693847656	3.429412841796875	-4.35638427734375	-1.800537109375	
111	0.444	0.0	0.0	0.0	0.0	4.596	4.632	4.632	4.5600000000000005	9.968857162475585	0.6697779144287109	-0.034715924072265626	6.27899169921875	-5.76019287109375	-0.331878662109375	9.8311905670166	0.5033808990478515	0.052073886108398436	1.277923583984375	-4.917144775390625	-3.093719482421875	10.169371551513672	-0.34656069030761716	-0.44891281127929683	3.21197509765625	-4.970550537109375	-1.4495849609375	
112	0.448	0.0	0.0	0.0	0.0	4.596	4.632	4.632	4.578	9.99220062866211	0.12389993591308593	0.01915361328125	7.266998291015625	-6.65283203125	-1.461029052734375	9.860519537353515	0.22744915771484372	-0.06105214233398437	0.812530517578125	-5.37872314453125	-2.567291259765625	10.084377392578125	-0.014963760375976562	-0.14006079711914063	3.681182861328125	-4.730224609375	-2.15911865234375	
113	0.452	0.0	0.0	0.0	0.0	4.59	4.635	4.632	4.581	9.913191973876952	0.07781155395507812	0.05805939025878906	6.73675537109375	-6.122589111328125	-1.277923583984375	9.791087689208984	0.5853823059082031	-0.06105214233398437	1.171112060546875	-4.817962646484375	-2.811431884765625	10.274716424560546	-0.04189852905273437	-0.7350199096679687	3.65447998046875	-4.520416259765625	-1.8157958984375	
114	0.456	0.0	0.0	0.0	0.0	4.59	4.635	4.638	4.587	9.906607919311522	-0.2980781066894531	0.07481880187988281	3.22723388671875	-4.375457763671875	0.0457763671875	9.79946739501953	0.43454760131835934	0.143652099609375	0.423431396484375	-4.9896240234375	-2.452850341796875	9.973645565795898	-0.023343466186523436	0.003591302490234375	3.74603271484375	-4.730224609375	-1.934051513671875	
115	0.46	0.0	0.0	0.0	0.0	4.575	4.635	4.635	4.593	9.93952819213867	0.34835634155273437	-0.22445640563964842	3.7384033203125	-4.5166015625	-1.224517822265625	9.893439810180663	0.35613749694824215	0.06464344482421874	1.76239013671875	-4.8370361328125	-3.635406494140625	10.308235247802735	-0.10654197387695312	-0.5991489654541016	3.7078857421875	-4.57763671875	-1.995086669921875	
116	0.464	0.0	0.0	0.0	0.0	4.593	4.632	0.003	0.006	9.875483297729492	0.5303156677246094	0.09576806640624999	8.392333984375	-7.10296630859375	-1.377105712890625	9.843760125732421	0.5153519073486328	0.052073886108398436	0.58746337890625	-4.817962646484375	-2.597808837890625	9.967061511230469	0.033518823242187495	-0.11073182678222655	3.292083740234375	-4.695892333984375	-1.972198486328125	
117	0.468	0.0	0.0	0.0	0.0	0.006	0.003	0.003	0.003	9.836577520751952	-0.8259995727539062	0.022744915771484374	0.255584716796875	-2.166748046875	-1.094818115234375	9.83897172241211	0.4896142395019531	0.03172317199707031	1.140594482421875	-5.092620849609375	-2.925872802734375	10.177751257324218	-0.037110125732421874	-0.4860229370117187	3.513336181640625	-4.528045654296875	-1.91497802734375	
118	0.47200000000000003	0.0	0.0	0.0	0.0	0.003	0.003	0.003	0.006	9.866505041503906	-0.8367734802246093	0.23104046020507812	-1.495361328125	-3.299713134765625	-0.23651123046875	9.843161575317382	0.48123453369140623	0.16519991455078123	0.530242919921875	-5.0506591796875	-2.826690673828125	10.064625228881836	-0.047884033203124995	-0.13347674255371092	3.467559814453125	-4.734039306640625	-1.789093017578125	
119	0.47600000000000003	0.0	0.0	0.0	0.0	0.003	0.003	0.003	0.003	9.957484704589843	0.16519991455078123	-0.21727380065917967	0.335693359375	-2.1209716796875	-0.38909912109375	9.976638317871092	0.38666356811523434	-0.15382745666503905	1.895904541015625	-5.33294677734375	-3.139495849609375	10.247781655883788	-0.07362170104980469	-0.5979518646240234	3.76129150390625	-4.558563232421875	-2.071380615234375	
120	0.48	0.0	0.0	0.0	0.0	0.006	0.003	0.003	0.006	9.565434182739256	0.42437224426269526	0.3872621185302734	2.986907958984375	-3.482818603515625	-1.750946044921875	9.616909518432617	0.6667851623535156	0.32501287536621093	0.7476806640625	-4.779815673828125	-2.73895263671875	10.026916552734374	0.03531447448730469	-0.19512743530273435	3.231048583984375	-4.810333251953125	-1.74713134765625	
121	0.484	0.0	0.0	0.0	0.0	0.003	0.003	0.003	0.006	9.866505041503906	-0.18614917907714842	-0.05626373901367187	2.468109130859375	-3.513336181640625	-1.636505126953125	9.94671079711914	0.4848258361816406	-0.11372457885742186	1.2359619140625	-4.978179931640625	-2.620697021484375	10.128670123291014	-0.03232172241210937	-0.3393780853271484	3.238677978515625	-4.82177734375	-1.77764892578125	
122	0.488	0.0	0.0	0.0	0.0	0.006	0.003	0.003	0.003	9.674370358276366	-0.613514175415039	0.316034619140625	-2.765655517578125	-0.457763671875	-0.57220458984375	9.689334118652344	0.6410474945068358	0.22505495605468748	0.537872314453125	-4.93621826171875	-3.398895263671875	10.128670123291014	0.011372457885742187	-0.20769699401855468	3.131866455078125	-4.69207763671875	-1.8310546875	
123	0.492	0.0	0.0	0.0	0.0	0.003	0.003	0.003	0.003	9.916184725952148	0.5680243438720702	0.06883329772949218	-0.064849853515625	-1.895904541015625	-0.469207763671875	9.771335525512695	0.39803602600097654	0.27892449340820313	0.946044921875	-4.9896240234375	-3.30352783203125	10.121487518310547	0.007781155395507812	-0.44592005920410155	3.536224365234375	-4.96673583984375	-1.804351806640625	
124	0.496	0.0	0.0	0.0	0.0	0.003	0.003	0.006	0.003	9.74859060974121	0.3333925811767578	0.14903905334472656	-0.02288818359375	-1.926422119140625	-0.90789794921875	9.664793551635741	0.6500257507324219	0.3028665100097656	1.4801025390625	-5.039215087890625	-3.08990478515625	9.744400756835937	-0.008978256225585938	0.032920272827148434	3.635406494140625	-4.520416259765625	-2.14385986328125	
125	0.5	0.0	0.0	0.0	0.0	0.003	0.003	0.006	0.003	9.877877499389648	0.4369418029785156	0.12988544006347655	3.070831298828125	-3.753662109375	-1.514434814453125	9.809044201660155	0.28730419921875	0.3172317199707031	0.701904296875	-5.19561767578125	-2.90679931640625	10.16338604736328	-0.06883329772949218	-0.4632780212402344	3.276824951171875	-4.93621826171875	-1.987457275390625	
126	0.504	0.0	0.0	0.0	0.0	0.003	0.003	0.003	0.003	9.713874685668944	0.04189852905273437	0.22266075439453123	0.782012939453125	-2.32696533203125	-1.506805419921875	9.706692080688477	0.5303156677246094	0.19333178405761717	0.804901123046875	-4.680633544921875	-3.2806396484375	9.81862100830078	0.040102877807617184	-0.051475335693359374	3.70025634765625	-4.276275634765625	-2.1820068359375	
127	0.508	0.0	0.0	0.0	0.0	0.0	0.003	0.003	0.006	9.821015209960937	0.15981296081542967	0.22685060729980466	-0.194549560546875	-1.979827880859375	-0.8392333984375	9.728838446044922	0.42018239135742186	0.37828386230468747	0.461578369140625	-4.947662353515625	-3.208160400390625	10.108319409179687	0.014963760375976562	-0.42975919799804685	3.45611572265625	-4.657745361328125	-2.017974853515625	
128	0.512	0.0	0.0	0.0	0.0	0.003	0.003	0.006	0.003	9.917980377197265	0.37229835815429685	0.10953472595214843	2.838134765625	-3.856658935546875	-0.675201416015625	9.770138424682617	0.5099649536132812	0.2059013427734375	1.125335693359375	-5.035400390625	-3.448486328125	9.833584768676758	0.08439560852050781	-0.02693476867675781	3.54766845703125	-4.467010498046875	-2.208709716796875	
129	0.516	0.0	0.0	0.0	0.0	0.003	0.003	0.003	0.003	9.94730934753418	0.36930560607910157	-0.03591302490234375	0.720977783203125	-2.422332763671875	-0.705718994140625	9.788094937133788	0.3591302490234375	0.08978256225585937	0.934600830078125	-5.153656005859375	-2.498626708984375	9.847949978637695	-0.07302315063476562	-0.09516951599121093	3.72314453125	-4.535675048828125	-2.28118896484375	
130	0.52	0.0	0.0	0.0	0.0	0.003	0.003	0.003	0.003	9.95329485168457	0.35134909362792965	-0.006584054565429687	5.115509033203125	-5.18035888671875	-0.732421875	9.709086282348633	0.5327098693847656	0.29568390502929687	0.7171630859375	-4.627227783203125	-3.154754638671875	9.745597857666015	0.19572598571777342	0.022744915771484374	3.429412841796875	-4.3792724609375	-1.995086669921875	
131	0.524	0.0	0.0	0.0	0.0	0.003	0.003	0.003	0.003	10.022726699829102	0.3220201232910156	-0.20051438903808594	7.4615478515625	-3.162384033203125	-0.843048095703125	9.727042794799804	0.3429693878173828	0.1370680450439453	0.84686279296875	-5.329132080078125	-2.620697021484375	9.821613760375977	-0.14185644836425781	-0.011971008300781249	3.265380859375	-4.5928955078125	-2.1209716796875	
132	0.528	0.0	0.0	0.0	0.0	0.003	0.003	0.003	0.003	9.94671079711914	0.5500678314208984	0.004189852905273437	7.02667236328125	-6.374359130859375	-0.705718994140625	9.890447058105469	0.4686649749755859	-0.007781155395507812	1.140594482421875	-4.8675537109375	-2.803802490234375	10.079588989257813	0.16160861206054686	-0.24361001892089842	3.749847412109375	-4.268646240234375	-2.38800048828125	
133	0.532	0.0	0.0	0.0	0.0	0.003	0.006	0.003	0.006	9.900023864746093	0.36810850524902344	0.022744915771484374	7.34710693359375	-6.66046142578125	-1.1444091796875	9.707290631103515	0.4070142822265625	0.143652099609375	0.80108642578125	-4.79888916015625	-2.685546875	9.834183319091796	-0.17956512451171874	-0.07062894897460938	3.4942626953125	-4.604339599609375	-2.1820068359375	
134	0.536	0.0	0.0	0.0	0.0	0.006	0.003	0.003	0.006	9.878476049804688	0.6476315490722656	0.0526724365234375	7.1258544921875	-6.44683837890625	-1.010894775390625	9.819818109130859	0.45489831542968745	0.0017956512451171875	0.83160400390625	-5.05828857421875	-2.69317626953125	9.97184991455078	0.23582886352539062	-0.20231004028320312	3.9520263671875	-4.451751708984375	-2.2430419921875	
135	0.54	0.0	0.0	0.0	0.0	0.006	0.003	0.003	0.003	9.967660061645507	-0.025737667846679687	-0.08439560852050781	5.641937255859375	-5.847930908203125	-1.13677978515625	9.76175871887207	0.36810850524902344	0.07422025146484375	0.946044921875	-4.840850830078125	-2.864837646484375	10.134655627441406	-0.17776947326660156	-0.20171148986816406	3.44085693359375	-4.78363037109375	-1.65557861328125	
136	0.544	0.0	0.0	0.0	0.0	0.003	0.003	0.003	0.003	9.91438907470703	-0.32441432495117184	-0.03531447448730469	2.124786376953125	-3.520965576171875	-0.850677490234375	9.843161575317382	0.469862075805664	-0.03890577697753906	1.056671142578125	-4.749298095703125	-2.956390380859375	10.044873065185547	0.24061726684570311	-0.24839842224121092	4.062652587890625	-4.33349609375	-2.338409423828125	
137	0.548	0.0	0.0	0.0	0.0	0.006	0.003	0.003	0.006	9.889848507690429	-0.007781155395507812	0.03591302490234375	5.39398193359375	-6.01959228515625	-0.774383544921875	9.779715231323241	0.5255272644042969	0.21128829650878905	0.896453857421875	-5.14984130859375	-2.593994140625	10.017938296508788	-0.12689268798828124	-0.10235212097167969	3.45611572265625	-4.913330078125	-1.80816650390625	
138	0.552	0.0	0.0	0.0	0.0	0.003	0.003	0.003	0.003	9.827000714111328	-0.3142389678955078	0.11192892761230468	1.67083740234375	-3.185272216796875	-1.0223388671875	9.841964474487304	0.45669396667480466	-0.007781155395507812	1.24359130859375	-5.39398193359375	-2.9296875	10.035894808959961	0.24181436767578124	-0.25737667846679685	3.41796875	-4.550933837890625	-2.201080322265625	
139	0.556	0.0	0.0	0.0	0.0	0.0	0.003	0.003	0.006	9.885060104370117	-0.34117373657226563	0.06703764648437499	4.055023193359375	-4.627227783203125	-1.2664794921875	9.85752678527832	0.4465186096191406	0.2346317626953125	0.80108642578125	-4.993438720703125	-2.86102294921875	10.11849476623535	-0.1753752716064453	-0.16879121704101563	3.337860107421875	-4.688262939453125	-1.552581787109375	
140	0.56	0.0	0.0	0.0	0.0	0.003	0.006	0.003	0.009000000000000001	9.79408044128418	-0.37828386230468747	0.15682020874023436	-0.48065185546875	-1.556396484375	-0.698089599609375	9.868899243164062	0.6189011291503906	0.12090718383789062	1.430511474609375	-5.07354736328125	-3.387451171875	10.287285983276366	-0.033518823242187495	-0.6039373687744141	3.398895263671875	-4.39453125	-2.071380615234375	
141	0.5640000000000001	0.0	0.0	0.0	0.0	0.003	0.003	0.003	0.003	9.624690673828125	0.24660277099609373	0.5039794494628906	-0.102996826171875	-1.819610595703125	-0.67901611328125	9.807847100830077	0.42377369384765623	0.3016694091796875	0.896453857421875	-4.993438720703125	-2.960205078125	10.061033926391602	-0.1131260284423828	-0.08918401184082031	3.414154052734375	-4.53948974609375	-1.361846923828125	
142	0.5680000000000001	0.0	0.0	0.0	0.0	0.006	0.003	0.006	0.006	9.80066449584961	-0.06045359191894531	0.15442600708007811	0.194549560546875	-1.983642578125	-0.980377197265625	9.931148486328125	0.594959112548828	0.051475335693359374	1.07574462890625	-4.756927490234375	-3.04412841796875	10.315417852783202	-0.09636661682128905	-0.679953271484375	3.6773681640625	-4.573822021484375	-2.35748291015625	
143	0.5720000000000001	0.0	0.0	0.0	0.0	0.006	0.003	0.006	0.006	9.657610946655273	0.1945288848876953	0.4327519500732422	0.6103515625	-1.979827880859375	-0.720977783203125	9.704896429443359	0.4722562774658203	0.2549824768066406	0.530242919921875	-4.8828125	-2.67791748046875	10.043077413940429	0.2555810272216797	-0.18854338073730467	3.51715087890625	-4.589080810546875	-1.65557861328125	
144	0.5760000000000001	0.0	0.0	0.0	0.0	0.003	0.003	0.003	0.006	9.795876092529296	-0.12150573425292968	0.12509703674316405	0.896453857421875	-1.323699951171875	-0.942230224609375	9.910797772216796	0.6021417175292968	0.04369418029785156	0.9002685546875	-5.100250244140625	-2.67791748046875	10.282497579956054	-0.040102877807617184	-0.814028564453125	3.7384033203125	-4.63104248046875	-2.338409423828125	
145	0.58	0.0	0.0	0.0	0.0	0.006	0.006	0.006	0.006	9.742605105590819	0.39983167724609375	0.1945288848876953	1.720428466796875	-3.2958984375	-0.682830810546875	9.677363110351562	0.469263525390625	0.19692308654785154	0.202178955078125	-4.917144775390625	-2.58636474609375	10.0748005859375	0.25797522888183594	-0.2567781280517578	3.21197509765625	-4.94384765625	-1.4801025390625	
146	0.584	0.0	0.0	0.0	0.0	0.003	0.003	0.003	0.006	9.994594830322265	0.3381809844970703	-0.2567781280517578	3.1280517578125	-4.150390625	-0.797271728515625	9.834781869506836	0.4878185882568359	-0.13347674255371092	0.9765625	-4.962921142578125	-2.918243408203125	10.040084661865233	-0.39983167724609375	-0.35314474487304687	3.23486328125	-4.6539306640625	-2.105712890625	
147	0.588	0.0	0.0	0.0	0.0	0.0	0.003	0.003	0.006	9.76175871887207	0.4291606475830078	0.13646949462890623	3.299713134765625	-4.21905517578125	-1.0528564453125	9.664195001220703	0.4542997650146484	0.229843359375	0.148773193359375	-4.913330078125	-2.7008056640625	10.078990438842773	0.3130418670654297	-0.28969840087890625	3.162384033203125	-4.8675537109375	-1.38092041015625	
148	0.592	0.0	0.0	0.0	0.0	0.003	0.003	0.003	0.003	9.947907897949218	0.07302315063476562	-0.09756371765136718	2.38800048828125	-3.795623779296875	-0.873565673828125	9.843760125732421	0.5446808776855468	-0.09337386474609374	1.239776611328125	-5.146026611328125	-3.13568115234375	10.104728106689452	-0.3950432739257812	-0.3794809631347656	3.36456298828125	-5.031585693359375	-2.1514892578125	
149	0.596	0.0	0.0	0.0	0.0	0.003	0.003	0.003	0.006	9.767145672607422	-0.10654197387695312	-0.04848258361816406	3.002166748046875	-3.986358642578125	-0.698089599609375	9.734823950195311	0.3890577697753906	0.16699556579589842	1.079559326171875	-4.7454833984375	-3.139495849609375	10.11849476623535	0.2316390106201172	-0.26216508178710934	3.7994384765625	-4.238128662109375	-2.376556396484375	
150	0.6	0.0	0.0	0.0	0.0	0.006	0.003	0.006	0.006	9.8449572265625	0.14484920043945312	0.07541735229492187	1.384735107421875	-3.513336181640625	-0.9765625	9.823409411621093	0.6500257507324219	-0.05087678527832031	1.312255859375	-5.096435546875	-3.1890869140625	10.037690460205077	-0.35314474487304687	-0.3381809844970703	3.162384033203125	-4.84466552734375	-1.667022705078125	
151	0.604	0.0	0.0	0.0	0.0	0.003	0.003	0.003	0.003	9.903016616821288	-0.1406593475341797	-0.013766659545898436	1.68609619140625	-3.124237060546875	-1.003265380859375	9.73661960144043	0.30885201416015623	0.22086510314941404	0.675201416015625	-4.970550537109375	-2.98309326171875	9.79408044128418	0.23822306518554687	0.07422025146484375	3.71551513671875	-4.512786865234375	-2.61688232421875	
152	0.608	0.0	0.0	0.0	0.0	0.009000000000000001	0.003	0.003	0.003	9.834183319091796	0.1292868896484375	0.14963760375976562	0.57220458984375	-2.391815185546875	-1.087188720703125	9.762955819702148	0.38367081604003905	0.17597382202148437	1.02996826171875	-4.99725341796875	-3.143310546875	10.122684619140625	-0.44113165588378905	-0.3848679168701172	3.185272216796875	-5.138397216796875	-1.750946044921875	
153	0.612	0.0	0.0	0.0	0.0	0.003	0.003	0.003	0.006	9.92217023010254	-0.12389993591308593	-0.10295067138671875	1.04522705078125	-2.87628173828125	-1.190185546875	9.702502227783203	0.36152445068359373	0.2262520568847656	0.972747802734375	-4.66156005859375	-3.185272216796875	9.737218151855469	0.201112939453125	0.040701428222656245	4.070281982421875	-4.444122314453125	-2.445220947265625	
154	0.616	0.0	0.0	0.0	0.0	0.003	0.006	0.006	0.0	9.9461122467041	0.16998831787109375	-0.16460136413574217	3.875732421875	-4.6844482421875	-0.74005126953125	9.686939916992188	0.4429273071289062	0.17776947326660156	0.732421875	-4.955291748046875	-2.95257568359375	9.72943699645996	-0.044891281127929686	0.03232172241210937	3.71551513671875	-4.85992431640625	-2.166748046875	
155	0.62	0.0	0.0	0.0	0.0	0.0	0.003	0.003	0.003	9.93952819213867	0.020350714111328123	-0.11432312927246092	2.6397705078125	-3.85284423828125	-0.942230224609375	9.753977563476562	0.34237083740234375	0.24899697265624998	1.201629638671875	-4.734039306640625	-3.05938720703125	9.803657247924804	0.11013327636718749	0.10953472595214843	3.89862060546875	-4.528045654296875	-2.521514892578125	
156	0.624	0.0	0.0	0.0	0.0	0.0	0.003	0.003	0.006	9.981426721191406	0.13168109130859373	-0.19213468322753904	4.3487548828125	-5.100250244140625	-1.01470947265625	9.747393508911133	0.35015199279785153	0.0987608184814453	0.6866455078125	-5.062103271484375	-3.0975341796875	9.822810861206055	-0.06943184814453125	0.033518823242187495	3.711700439453125	-4.566192626953125	-1.86920166015625	
157	0.628	0.0	0.0	0.0	0.0	0.006	0.006	0.006	0.003	9.819818109130859	0.18435352783203124	0.08140285644531249	3.2196044921875	-4.192352294921875	-0.659942626953125	9.652223992919922	0.47884033203125	0.26216508178710934	1.36566162109375	-4.840850830078125	-3.4637451171875	9.93294413757324	-0.15562310791015624	-0.16280571289062498	3.665924072265625	-4.306793212890625	-2.277374267578125	
158	0.632	0.0	0.0	0.0	0.0	0.006	0.006	0.003	0.003	9.981426721191406	0.3064578125	-0.12629413757324218	4.489898681640625	-4.833221435546875	-0.736236572265625	9.809642752075195	0.2950853546142578	0.11073182678222655	1.50299072265625	-5.218505859375	-2.872467041015625	9.866505041503906	0.014963760375976562	0.05327098693847656	3.574371337890625	-4.550933837890625	-1.827239990234375	
159	0.636	0.0	0.0	0.0	0.0	0.003	0.006	0.003	0.003	9.99160207824707	0.05626373901367187	-0.034715924072265626	4.703521728515625	-4.93621826171875	-1.10626220703125	9.74799205932617	0.43514615173339843	0.2472013214111328	1.36566162109375	-4.82940673828125	-3.231048583984375	10.113706362915039	-0.2741360900878906	-0.143652099609375	3.5552978515625	-4.055023193359375	-2.185821533203125	
160	0.64	0.0	0.0	0.0	0.0	0.003	0.003	0.003	0.003	9.962273107910155	0.1849520782470703	-0.1322796417236328	3.92913818359375	-4.608154296875	-1.007080078125	9.706093530273437	0.3896563201904297	0.2442085693359375	0.5035400390625	-5.2032470703125	-2.8839111328125	9.74799205932617	0.023343466186523436	0.06404489440917968	3.41033935546875	-4.589080810546875	-2.105712890625	
161	0.644	0.0	0.0	0.0	0.0	0.006	0.006	0.003	0.003	9.950900650024414	0.0143652099609375	-0.04668693237304687	4.329681396484375	-4.962921142578125	-0.6256103515625	9.677363110351562	0.488417138671875	0.2615665313720703	1.232147216796875	-5.1422119140625	-2.887725830078125	9.954491952514648	-0.18914193115234373	-0.12090718383789062	3.940582275390625	-4.306793212890625	-2.323150634765625	
162	0.648	0.0	0.0	0.0	0.0	0.006	0.003	0.003	0.006	10.110713610839843	0.037708676147460936	0.35134909362792965	4.055023193359375	-4.547119140625	-0.946044921875	9.90840357055664	0.3220201232910156	0.21787235107421873	0.514984130859375	-5.34820556640625	-2.74658203125	10.203488925170898	0.09157821350097656	-0.16639701538085935	3.643035888671875	-4.7454833984375	-1.88446044921875	
163	0.652	0.0	0.0	0.0	0.0	0.006	0.003	0.003	0.006	9.97184991455078	-0.05686228942871093	-0.08918401184082031	4.619598388671875	-4.703521728515625	-0.980377197265625	9.97184991455078	0.5267243652343749	-0.01975216369628906	1.621246337890625	-4.6844482421875	-2.86102294921875	10.011354241943359	-0.27353753967285155	-0.17956512451171874	3.627777099609375	-4.18853759765625	-2.223968505859375	
164	0.656	0.0	0.0	0.0	0.0	0.003	0.006	0.003	2.574	9.670779055786133	0.07601590270996093	0.4369418029785156	3.276824951171875	-3.902435302734375	-0.652313232421875	9.667786303710937	0.5021837982177734	0.31483751831054685	0.591278076171875	-5.340576171875	-2.719879150390625	9.916184725952148	0.3064578125	-0.08858546142578125	3.650665283203125	-4.726409912109375	-1.895904541015625	
165	0.66	0.0	0.0	0.0	0.0	4.566	4.626	4.6290000000000004	4.5600000000000005	9.97184991455078	-0.034715924072265626	-0.08918401184082031	4.45556640625	-5.04302978515625	-0.72479248046875	10.034697708129881	0.46148236999511716	-0.0526724365234375	1.53350830078125	-4.756927490234375	-2.92205810546875	10.335768566894531	-0.19991583862304688	-0.5243301635742187	3.5858154296875	-4.573822021484375	-1.77001953125	
166	0.664	0.0	0.0	0.0	0.0	4.593	4.6290000000000004	4.632	4.581	9.728838446044922	0.16819266662597654	0.3800795135498047	3.60870361328125	-4.0740966796875	-0.81634521484375	9.694122521972655	0.5925649108886718	0.4052186309814453	0.38909912109375	-4.98199462890625	-3.002166748046875	10.162188946533202	0.1580173095703125	-0.15741875915527342	3.482818603515625	-4.486083984375	-2.1514892578125	
167	0.668	0.0	0.0	0.0	0.0	4.59	4.635	4.635	4.587	9.82520506286621	0.00718260498046875	0.08200140686035155	-1.10626220703125	-1.399993896484375	-1.201629638671875	9.840767373657226	0.5117606048583984	-0.032920272827148434	1.430511474609375	-4.795074462890625	-3.009796142578125	10.128670123291014	-0.14125789794921875	-0.469263525390625	3.902435302734375	-4.28009033203125	-1.67083740234375	
168	0.672	0.0	0.0	0.0	0.0	4.59	4.635	4.635	4.5840000000000005	9.668983404541015	0.09576806640624999	0.4375403533935547	3.398895263671875	-4.08935546875	-0.77056884765625	9.602544308471678	0.7188590484619141	0.37708676147460934	0.43487548828125	-5.30242919921875	-2.437591552734375	9.874884747314452	0.24121581726074218	-0.08858546142578125	3.41796875	-4.66156005859375	-2.11334228515625	
169	0.676	0.0	0.0	0.0	0.0	4.5840000000000005	4.632	4.632	4.596	9.95389340209961	-0.18076222534179687	0.018555062866210937	-0.8544921875	-1.522064208984375	-0.79345703125	10.064625228881836	0.30705636291503907	-0.04129997863769531	1.22833251953125	-4.947662353515625	-3.406524658203125	10.401609112548828	-0.21487959899902342	-0.5572504364013672	3.77655029296875	-4.642486572265625	-1.800537109375	
170	0.68	0.0	0.0	0.0	0.0	4.596	4.632	4.635	4.575	9.681552963256836	0.22266075439453123	0.32620997619628905	3.070831298828125	-4.17327880859375	-1.02996826171875	9.652223992919922	0.565031591796875	0.22206220397949217	0.7171630859375	-4.99725341796875	-2.552032470703125	10.008960040283203	0.10953472595214843	-0.21727380065917967	3.353118896484375	-4.688262939453125	-2.43377685546875	
171	0.684	0.0	0.0	0.0	0.0	4.59	4.632	4.635	4.563	9.823409411621093	-0.022146365356445312	0.03950432739257812	-0.728607177734375	-1.85394287109375	-1.24359130859375	9.794678991699218	0.6619967590332031	0.013766659545898436	1.186370849609375	-4.96673583984375	-3.147125244140625	9.87608184814453	0.22086510314941404	-0.23882161560058593	3.48663330078125	-4.87518310546875	-1.560211181640625	
172	0.6880000000000001	0.0	0.0	0.0	0.0	4.599	4.635	4.635	4.566	9.827599264526366	-0.11791443176269531	0.14305354919433594	-0.14495849609375	-1.89208984375	-0.95367431640625	9.700108026123047	0.45010991210937495	0.3597287994384765	0.823974609375	-4.93621826171875	-3.147125244140625	10.124480270385742	-0.018555062866210937	-0.15382745666503905	3.437042236328125	-4.8065185546875	-2.086639404296875	
173	0.6920000000000001	0.0	0.0	0.0	0.0	4.593	4.6290000000000004	4.632	4.578	9.917980377197265	-0.2088940948486328	-0.011372457885742187	-0.823974609375	-1.590728759765625	-0.91552734375	9.999981784057617	0.5153519073486328	-0.15981296081542967	1.491546630859375	-5.168914794921875	-3.4027099609375	10.204087475585936	0.029927520751953124	-0.2867056488037109	3.452301025390625	-4.6844482421875	-1.7547607421875	
174	0.6960000000000001	0.0	0.0	0.0	0.0	4.59	4.635	4.635	4.5840000000000005	9.74799205932617	0.20530279235839843	0.2262520568847656	0.057220458984375	-2.048492431640625	-0.9613037109375	9.491213931274414	0.6236895324707031	0.39923312683105466	1.13677978515625	-5.084991455078125	-3.41796875	9.80665	0.19153613281249998	-0.14604630126953125	3.04412841796875	-4.8370361328125	-1.918792724609375	
175	0.7000000000000001	0.0	0.0	0.0	0.0	4.59	4.635	4.638	4.587	9.890447058105469	-0.06045359191894531	0.04668693237304687	1.36566162109375	-3.0059814453125	-0.782012939453125	9.984419473266602	0.4608838195800781	-0.06883329772949218	1.041412353515625	-5.126953125	-2.826690673828125	10.096348400878906	0.1945288848876953	-0.32920272827148434	3.25775146484375	-4.833221435546875	-1.499176025390625	
176	0.704	0.0	0.0	0.0	0.0	4.5840000000000005	4.635	0.003	0.003	9.903016616821288	-0.10654197387695312	0.12389993591308593	-0.2899169921875	-1.773834228515625	-1.270294189453125	9.80665	0.527322915649414	0.27952304382324217	0.8697509765625	-4.6234130859375	-3.620147705078125	9.961076007080077	-0.277727392578125	0.013168109130859374	3.80706787109375	-4.15802001953125	-2.445220947265625	
177	0.708	0.0	0.0	0.0	0.0	0.003	0.006	0.003	0.003	9.89463691101074	0.35613749694824215	-0.00239420166015625	1.28936767578125	-2.689361572265625	-0.7781982421875	9.666589202880859	0.3525461944580078	0.24839842224121092	0.35858154296875	-4.87518310546875	-3.08990478515625	9.886855755615233	0.17238251953125	-0.2723404388427734	3.05938720703125	-4.680633544921875	-1.9683837890625	
178	0.712	0.0	0.0	0.0	0.0	0.006	0.006	0.003	0.006	9.781510882568359	0.044891281127929686	0.18076222534179687	-1.25885009765625	-1.28173828125	-0.75531005859375	9.583989245605467	0.7158662963867187	0.2699462371826172	0.522613525390625	-4.833221435546875	-3.093719482421875	9.576806640625	0.08200140686035155	0.054468087768554684	4.116058349609375	-4.7454833984375	-2.38037109375	
179	0.716	0.0	0.0	0.0	0.0	0.009000000000000001	0.003	0.003	0.003	10.018536846923828	0.3429693878173828	-0.1131260284423828	2.66265869140625	-3.662109375	-0.888824462890625	9.906009368896484	0.2184709014892578	0.15263035583496093	0.576019287109375	-4.901885986328125	-2.979278564453125	10.020332498168944	0.07242460021972656	-0.09576806640624999	3.4027099609375	-4.894256591796875	-2.140045166015625	
180	0.72	0.0	0.0	0.0	0.0	0.003	0.006	0.003	0.006	9.977236868286132	0.3022679595947265	-0.004189852905273437	5.786895751953125	-5.573272705078125	-0.78582763671875	9.734823950195311	0.42018239135742186	0.1693897674560547	1.171112060546875	-5.115509033203125	-3.276824951171875	9.750386260986328	-0.0909796630859375	0.061650692749023434	3.849029541015625	-4.1961669921875	-2.643585205078125	
181	0.724	0.0	0.0	0.0	0.0	0.003	0.003	0.006	0.003	9.868899243164062	0.6362590911865234	-0.0430956298828125	3.24249267578125	-4.02069091796875	-0.8087158203125	9.553463174438477	0.5183446594238281	0.25258827514648435	0.705718994140625	-4.642486572265625	-2.742767333984375	9.603142858886718	0.3363853332519531	-0.10773907470703124	3.643035888671875	-4.596710205078125	-2.048492431640625	
182	0.728	0.0	0.0	0.0	0.0	0.003	0.003	0.003	0.003	9.892841259765625	0.3591302490234375	0.08080430603027343	6.038665771484375	-5.947113037109375	-0.64849853515625	9.767145672607422	0.40880993347167965	0.16819266662597654	0.881195068359375	-4.94384765625	-2.8839111328125	10.110115060424803	-0.0796072052001953	-0.3321954803466797	3.3416748046875	-4.886627197265625	-1.522064208984375	
183	0.732	0.0	0.0	0.0	0.0	0.003	0.003	0.006	0.006	10.032303506469725	0.21906945190429686	-0.2136824981689453	3.643035888671875	-4.20379638671875	-0.957489013671875	9.964068759155273	0.20051438903808594	0.00718260498046875	0.640869140625	-4.85992431640625	-2.66265869140625	10.1131078125	-0.2041056915283203	-0.2813186950683594	3.452301025390625	-4.608154296875	-2.193450927734375	
184	0.736	0.0	0.0	0.0	0.0	0.006	0.006	0.006	0.006	9.93294413757324	0.4830301849365234	-0.003591302490234375	6.160736083984375	-5.710601806640625	-0.640869140625	9.495403784179686	0.6440402465820312	0.13287819213867186	1.186370849609375	-4.886627197265625	-3.040313720703125	9.944316595458984	0.12509703674316405	-0.4100070343017578	3.692626953125	-4.405975341796875	-1.995086669921875	
185	0.74	0.0	0.0	0.0	0.0	0.003	0.003	0.006	0.003	9.83777462158203	0.1005564697265625	0.1197100830078125	5.611419677734375	-5.901336669921875	-0.934600830078125	9.674370358276366	0.4644751220703125	0.06943184814453125	0.774383544921875	-4.7454833984375	-2.559661865234375	9.813234054565429	-0.034715924072265626	-0.016160861206054686	3.459930419921875	-4.69207763671875	-1.827239990234375	
186	0.744	0.0	0.0	0.0	0.0	0.009000000000000001	0.003	0.003	0.006	10.0748005859375	0.15023615417480468	-0.09457096557617187	7.26318359375	-6.591796875	-0.90789794921875	10.109516510009765	0.1927332336425781	-0.14604630126953125	1.53350830078125	-5.153656005859375	-2.841949462890625	10.293271487426757	-0.2555810272216797	-0.2753331909179687	3.631591796875	-4.589080810546875	-2.262115478515625	
187	0.748	0.0	0.0	0.0	0.0	0.003	0.003	0.003	0.006	9.938331091308592	-0.22026655273437498	-0.013766659545898436	5.18035888671875	-5.53131103515625	-0.896453857421875	9.6917283203125	0.5333084197998047	-0.03531447448730469	0.774383544921875	-5.092620849609375	-2.780914306640625	10.103531005859374	-0.15442600708007811	-0.39923312683105466	3.429412841796875	-4.680633544921875	-2.025604248046875	
188	0.752	0.0	0.0	0.0	0.0	0.003	0.003	0.006	0.003	9.928754284667969	0.33578678283691404	0.040701428222656245	1.06048583984375	-2.765655517578125	-0.797271728515625	9.742605105590819	0.5404910247802734	0.013168109130859374	1.09100341796875	-4.940032958984375	-2.75421142578125	9.805452899169921	0.2807201446533203	-0.19632453613281248	3.520965576171875	-4.161834716796875	-1.926422119140625	
189	0.756	0.0	0.0	0.0	0.0	0.0	0.003	0.003	0.003	9.913191973876952	-0.28730419921875	0.13467384338378904	5.939483642578125	-6.076812744140625	-0.92315673828125	9.8694977935791	0.39145197143554683	0.297479556274414	1.12152099609375	-4.993438720703125	-2.651214599609375	10.287884533691406	-0.41060558471679687	-0.21787235107421873	3.482818603515625	-4.67681884765625	-1.651763916015625	
190	0.76	0.0	0.0	0.0	0.0	0.003	0.003	0.003	0.003	9.87608184814453	-0.3956418243408203	-0.044292730712890624	0.80108642578125	-2.796173095703125	-1.1444091796875	9.980229620361328	0.5279214660644531	-0.1801636749267578	1.64794921875	-5.035400390625	-3.18145751953125	10.434529385375976	-0.04668693237304687	-0.6649895111083984	3.574371337890625	-4.627227783203125	-2.429962158203125	
191	0.764	0.0	0.0	0.0	0.0	0.003	0.003	0.003	0.006	9.76235726928711	-0.21487959899902342	0.19991583862304688	4.047393798828125	-4.7149658203125	-0.713348388671875	9.522937103271484	0.5883750579833984	0.3489548919677734	1.163482666015625	-5.245208740234375	-3.01361083984375	9.815029705810547	0.031124621582031248	-0.18614917907714842	3.398895263671875	-4.81414794921875	-1.57928466796875	
192	0.768	0.0	0.0	0.0	0.0	0.003	0.003	0.003	0.006	9.690531219482422	-0.4070142822265625	0.297479556274414	-0.782012939453125	-1.79290771484375	-0.9918212890625	9.852139831542969	0.5093664031982421	0.21009119567871093	1.31988525390625	-5.123138427734375	-3.27301025390625	10.328585961914062	-0.055066638183593745	-0.5506663818359374	3.5400390625	-4.581451416015625	-1.880645751953125	
193	0.772	0.0	0.0	0.0	0.0	0.003	0.006	0.003	0.003	9.7545761138916	-0.07481880187988281	0.3315969299316406	-1.689910888671875	-0.659942626953125	-1.434326171875	9.987412225341796	0.2950853546142578	0.22565350646972654	0.8697509765625	-4.947662353515625	-3.41796875	10.345943923950195	-0.12988544006347655	-0.30406361083984373	3.31878662109375	-4.90570068359375	-1.7242431640625	
194	0.776	0.0	0.0	0.0	0.0	0.0	0.003	0.003	0.006	9.623493572998047	0.004189852905273437	0.3381809844970703	-0.980377197265625	-0.8697509765625	-0.86212158203125	9.73063409729004	0.6955155822753906	0.14185644836425781	0.988006591796875	-4.718780517578125	-3.3721923828125	10.029310754394531	0.19093758239746092	-0.5602431884765625	3.627777099609375	-4.589080810546875	-2.3651123046875	
195	0.78	0.0	0.0	0.0	0.0	0.006	0.003	0.003	0.003	9.583989245605467	0.1640028137207031	0.5386953735351562	-1.949310302734375	-0.690460205078125	-0.888824462890625	9.672574707031249	0.24001871643066405	0.34237083740234375	0.240325927734375	-4.718780517578125	-2.6397705078125	9.874884747314452	0.1640028137207031	-0.05985504150390625	3.45611572265625	-4.703521728515625	-1.399993896484375	
196	0.784	0.0	0.0	0.0	0.0	0.006	0.003	0.003	0.003	9.87608184814453	-0.29269115295410153	0.12090718383789062	-1.82342529296875	-0.621795654296875	-0.995635986328125	10.134655627441406	0.5279214660644531	-0.004189852905273437	0.86212158203125	-4.90570068359375	-2.826690673828125	10.57159743041992	-0.15083470458984374	-0.7972691528320313	3.391265869140625	-4.978179931640625	-1.91497802734375	
197	0.788	0.0	0.0	0.0	0.0	0.003	0.003	0.003	0.003	9.828197814941406	0.39444472351074217	0.09217676391601562	0.32806396484375	-1.811981201171875	-0.9918212890625	9.785700735473633	0.30346506042480464	0.15023615417480468	-0.02288818359375	-4.741668701171875	-3.021240234375	9.909600671386718	0.17118541870117188	-0.054468087768554684	3.07464599609375	-4.57000732421875	-1.766204833984375	
198	0.792	0.0	0.0	0.0	0.0	0.006	0.006	0.006	0.003	9.86411083984375	0.51714755859375	-0.04608838195800781	3.208160400390625	-4.131317138671875	-0.896453857421875	9.764751470947266	0.6410474945068358	0.16519991455078123	0.70953369140625	-5.123138427734375	-2.773284912109375	9.78031378173828	-0.15981296081542967	-0.21248539733886718	3.4332275390625	-4.79888916015625	-2.17437744140625	
199	0.796	0.0	0.0	0.0	0.0	0.006	0.003	0.006	0.003	9.928754284667969	0.2472013214111328	-0.034715924072265626	2.361297607421875	-3.658294677734375	-1.049041748046875	9.86411083984375	0.32142157287597656	0.20829554443359374	0.179290771484375	-5.077362060546875	-2.841949462890625	10.013748443603514	0.08798691101074219	0.2454056701660156	3.4332275390625	-4.7454833984375	-1.659393310546875	
200	0.8	0.0	0.0	0.0	0.0	0.003	0.006	0.003	0.006	9.990404977416992	0.364517202758789	-0.09217676391601562	4.730224609375	-5.035400390625	-0.759124755859375	9.849147079467773	0.4429273071289062	-0.03411737365722656	0.92315673828125	-5.069732666015625	-3.2806396484375	10.296264239501953	-0.489015689086914	-0.5446808776855468	3.33404541015625	-4.894256591796875	-1.83868408203125	
201	0.804	0.0	0.0	0.0	0.0	0.003	0.003	0.006	0.003	9.72943699645996	0.5141548065185546	0.27892449340820313	4.413604736328125	-4.611968994140625	-1.10626220703125	9.492411032104492	0.6350619903564453	0.3447650390625	0.9002685546875	-4.734039306640625	-3.032684326171875	9.612121115112304	0.4207809417724609	0.051475335693359374	4.40216064453125	-4.4097900390625	-2.750396728515625	
202	0.808	0.0	0.0	0.0	0.0	0.003	0.006	0.006	0.003	9.813832604980469	0.33518823242187495	0.20470424194335937	3.032684326171875	-3.997802734375	-0.896453857421875	9.77432827758789	0.4950011932373047	0.00239420166015625	1.3580322265625	-5.100250244140625	-2.849578857421875	10.012551342773437	-0.21308394775390624	-0.2567781280517578	3.650665283203125	-4.772186279296875	-1.76239013671875	
203	0.812	0.0	0.0	0.0	0.0	0.003	0.003	0.003	0.003	9.926958633422851	-0.07601590270996093	0.051475335693359374	3.162384033203125	-4.09698486328125	-0.9765625	9.86351228942871	0.4070142822265625	0.1640028137207031	1.007080078125	-4.749298095703125	-3.39508056640625	10.06881508178711	0.054468087768554684	0.006584054565429687	3.95965576171875	-4.34112548828125	-2.689361572265625	
204	0.8160000000000001	0.0	0.0	0.0	0.0	0.003	0.003	0.003	0.006	9.789292037963866	0.4752490295410156	0.19632453613281248	2.15911865234375	-3.139495849609375	-1.12152099609375	9.683947164916992	0.6344634399414062	0.15741875915527342	0.873565673828125	-4.734039306640625	-3.520965576171875	9.798270294189452	-0.03172317199707031	0.011372457885742187	3.76129150390625	-4.44793701171875	-2.010345458984375	
205	0.8200000000000001	0.0	0.0	0.0	0.0	0.003	0.003	0.003	0.003	9.775525378417969	0.28012159423828126	0.26276363220214843	3.093719482421875	-4.0283203125	-0.7171630859375	9.488819729614256	0.5279214660644531	0.4800374328613281	0.67901611328125	-5.031585693359375	-2.95257568359375	9.52533130493164	0.36810850524902344	0.28431144714355466	3.70025634765625	-4.35638427734375	-2.330780029296875	
206	0.8240000000000001	0.0	0.0	0.0	0.0	0.006	0.003	0.003	0.006	10.137648379516602	-0.20649989318847656	-0.277727392578125	4.055023193359375	-5.008697509765625	-0.583648681640625	9.907206469726562	0.2711433380126953	0.11791443176269531	0.675201416015625	-5.3863525390625	-2.7313232421875	9.974244116210937	-0.10295067138671875	0.04249707946777344	3.448486328125	-4.619598388671875	-2.0294189453125	
207	0.8280000000000001	0.0	0.0	0.0	0.0	0.003	0.003	0.003	0.006	9.928754284667969	0.22266075439453123	-0.02154781494140625	4.37164306640625	-4.810333251953125	-0.9918212890625	9.670779055786133	0.4333505004882812	0.17776947326660156	0.995635986328125	-4.940032958984375	-3.421783447265625	9.815628256225585	0.15263035583496093	-0.0017956512451171875	3.513336181640625	-4.306793212890625	-2.269744873046875	
208	0.8320000000000001	0.0	0.0	0.0	0.0	0.006	0.003	0.003	0.003	9.893439810180663	0.3112462158203125	-0.07841010437011718	4.669189453125	-5.39398193359375	-0.99945068359375	9.586383447265625	0.5315127685546874	0.14125789794921875	0.92315673828125	-5.218505859375	-2.620697021484375	9.574412438964844	0.2292448089599609	0.15502455749511718	3.33404541015625	-4.608154296875	-1.514434814453125	
209	0.836	0.0	0.0	0.0	0.0	0.003	0.003	0.003	0.003	9.846154327392577	0.3226186737060547	0.20470424194335937	5.86700439453125	-5.870819091796875	-0.713348388671875	9.813832604980469	0.4782417816162109	0.23044190979003906	1.407623291015625	-5.008697509765625	-2.704620361328125	10.047267266845703	-0.12330138549804687	-0.15562310791015624	3.490447998046875	-4.31060791015625	-2.0294189453125	
210	0.84	0.0	0.0	0.0	0.0	0.003	0.006	0.003	0.009000000000000001	10.117896215820313	0.033518823242187495	-0.19572598571777342	5.496978759765625	-5.115509033203125	-1.06048583984375	9.951499200439452	0.3603273498535156	-0.08798691101074219	1.094818115234375	-5.0048828125	-2.9754638671875	10.110115060424803	0.011372457885742187	-0.2328361114501953	3.448486328125	-4.253387451171875	-2.02178955078125	
211	0.844	0.0	0.0	0.0	0.0	0.003	0.003	0.003	4.422	9.904812268066406	0.10295067138671875	-0.062249243164062495	3.757476806640625	-4.4708251953125	-0.682830810546875	9.686341366577148	0.6165069274902344	0.1927332336425781	1.194000244140625	-4.7454833984375	-3.0517578125	9.886855755615233	-0.06344634399414062	-0.1801636749267578	3.68499755859375	-4.261016845703125	-2.513885498046875	
212	0.848	0.0	0.0	0.0	0.0	4.572	4.626	4.6290000000000004	4.557	9.952696301269532	0.34117373657226563	-0.013168109130859374	4.497528076171875	-5.4168701171875	-0.8087158203125	9.71028338317871	0.5770026000976562	0.40581718139648437	0.728607177734375	-5.283355712890625	-2.69317626953125	9.903016616821288	0.3896563201904297	-0.12629413757324218	3.6773681640625	-4.680633544921875	-1.495361328125	
213	0.852	0.0	0.0	0.0	0.0	4.593	4.632	4.635	4.578	10.050260018920898	-0.1945288848876953	-0.14006079711914063	4.268646240234375	-4.741668701171875	-0.823974609375	10.007762939453125	0.34177228698730466	-0.003591302490234375	1.323699951171875	-4.795074462890625	-3.040313720703125	10.304643945312499	-0.39264907226562495	-0.35134909362792965	3.757476806640625	-4.2877197265625	-1.995086669921875	
214	0.856	0.0	0.0	0.0	0.0	4.593	4.632	4.632	4.5840000000000005	9.981426721191406	0.20051438903808594	-0.12330138549804687	2.34222412109375	-3.59344482421875	-0.99945068359375	9.828796365356444	0.5183446594238281	0.2232593048095703	0.743865966796875	-4.917144775390625	-2.513885498046875	10.102932455444336	0.26695348510742184	-0.29089550170898437	3.35693359375	-4.398345947265625	-1.94549560546875	
215	0.86	0.0	0.0	0.0	0.0	4.59	4.635	4.635	4.5840000000000005	9.80605144958496	0.17597382202148437	0.1388636962890625	4.467010498046875	-4.917144775390625	-0.5035400390625	9.737218151855469	0.5895721588134766	0.04548983154296875	1.52587890625	-4.8980712890625	-2.9754638671875	10.034697708129881	-0.005985504150390624	-0.5303156677246094	3.50189208984375	-4.73785400390625	-1.85394287109375	
216	0.864	0.0	0.0	0.0	0.0	4.581	4.632	4.635	4.59	9.707889181518555	0.11911153259277343	0.3094505645751953	3.108978271484375	-4.09698486328125	-0.820159912109375	9.979631069946288	0.39743747558593745	0.1322796417236328	0.54168701171875	-5.481719970703125	-2.353668212890625	10.271125122070313	0.16160861206054686	-0.3555389465332031	3.635406494140625	-4.756927490234375	-1.91497802734375	
217	0.868	0.0	0.0	0.0	0.0	4.59	4.632	4.635	4.578	9.976638317871092	0.012569558715820313	-0.16160861206054686	5.054473876953125	-5.046844482421875	-0.92315673828125	10.036493359375	0.43035774841308594	-0.1849520782470703	1.6632080078125	-4.72259521484375	-3.314971923828125	10.365696087646484	-0.2561795776367187	-0.5973533142089843	3.879547119140625	-4.428863525390625	-2.227783203125	
218	0.872	0.0	0.0	0.0	0.0	4.587	4.635	4.635	4.563	9.571419686889648	0.1304839904785156	0.3746925598144531	2.178192138671875	-3.208160400390625	-0.888824462890625	9.704896429443359	0.5183446594238281	0.24899697265624998	0.453948974609375	-4.5928955078125	-2.925872802734375	9.841365924072266	0.4213794921875	-0.24121581726074218	3.3111572265625	-4.764556884765625	-2.31170654296875	
219	0.876	0.0	0.0	0.0	0.0	4.596	4.635	4.635	4.563	9.781510882568359	0.013766659545898436	0.09756371765136718	-1.51824951171875	-1.354217529296875	-1.12152099609375	9.906009368896484	0.5285200164794922	-0.022146365356445312	1.27410888671875	-5.035400390625	-2.96783447265625	10.114903463745117	-0.03591302490234375	-0.3537432952880859	3.826141357421875	-4.634857177734375	-1.682281494140625	
220	0.88	0.0	0.0	0.0	0.0	4.599	4.632	4.632	4.581	9.783306533813477	0.003591302490234375	0.1879448303222656	3.173828125	-3.826141357421875	-0.942230224609375	9.828197814941406	0.5225345123291015	0.13168109130859373	0.640869140625	-4.9896240234375	-2.8533935546875	10.229226593017577	-0.11252747802734374	-0.2711433380126953	3.505706787109375	-4.791259765625	-2.105712890625	
221	0.884	0.0	0.0	0.0	0.0	4.59	1.857	0.003	0.006	9.770736975097655	0.016160861206054686	0.10354922180175781	-1.50299072265625	-1.338958740234375	-1.09100341796875	9.791087689208984	0.6392518432617187	-0.032920272827148434	1.621246337890625	-4.810333251953125	-3.204345703125	10.105925207519531	-0.004189852905273437	-0.5967547637939453	3.53240966796875	-4.55474853515625	-1.678466796875	
222	0.888	0.0	0.0	0.0	0.0	0.006	0.003	0.006	0.003	9.57022258605957	-0.014963760375976562	0.4626794708251953	1.697540283203125	-3.124237060546875	-0.652313232421875	9.552864624023437	0.6392518432617187	0.26336218261718747	0.75531005859375	-5.168914794921875	-2.76947021484375	9.834183319091796	0.11372457885742186	-0.09337386474609374	3.1280517578125	-4.730224609375	-1.83868408203125	
223	0.892	0.0	0.0	0.0	0.0	0.0	0.003	0.003	0.003	9.883264453125	-0.1771709228515625	0.05327098693847656	-2.101898193359375	-0.926971435546875	-1.125335693359375	9.943119494628906	0.38247371520996093	0.044891281127929686	1.247406005859375	-5.367279052734375	-3.269195556640625	10.198700521850585	-0.0053869537353515625	-0.373495458984375	3.337860107421875	-5.084991455078125	-1.857757568359375	
224	0.896	0.0	0.0	0.0	0.0	0.003	0.003	0.003	0.003	9.96047745666504	0.03890577697753906	-0.10474632263183593	0.255584716796875	-2.086639404296875	-1.094818115234375	9.686939916992188	0.603338818359375	0.181959326171875	0.850677490234375	-4.756927490234375	-3.192901611328125	10.09993970336914	-0.06584054565429687	-0.25737667846679685	3.406524658203125	-4.9591064453125	-2.407073974609375	
225	0.9	0.0	0.0	0.0	0.0	0.003	0.006	0.003	0.006	9.668983404541015	0.24001871643066405	0.2867056488037109	-1.575469970703125	-0.713348388671875	-1.0528564453125	9.662997900390625	0.49739539489746093	0.2041056915283203	1.01470947265625	-4.730224609375	-2.849578857421875	9.805452899169921	0.23822306518554687	-0.3130418670654297	3.47900390625	-4.82940673828125	-1.9073486328125	
226	0.904	0.0	0.0	0.0	0.0	0.003	0.003	0.003	0.003	9.89523546142578	-0.05805939025878906	0.06464344482421874	-0.469207763671875	-1.880645751953125	-1.1444091796875	9.756970315551758	0.47884033203125	0.21308394775390624	0.621795654296875	-4.791259765625	-3.1890869140625	9.783905084228515	-0.06464344482421874	0.02693476867675781	3.551483154296875	-4.329681396484375	-1.88446044921875	
227	0.908	0.0	0.0	0.0	0.0	0.009000000000000001	0.003	0.003	0.006	9.858723886108399	-0.0909796630859375	0.05566518859863281	2.880096435546875	-4.0130615234375	-0.89263916015625	9.913191973876952	0.19991583862304688	0.10654197387695312	0.911712646484375	-4.9285888671875	-3.337860107421875	10.190320816040039	-0.10175357055664062	-0.5117606048583984	3.322601318359375	-4.63104248046875	-1.9378662109375	
228	0.912	0.0	0.0	0.0	0.0	0.006	0.003	0.003	0.003	9.842563024902343	0.1640028137207031	0.14006079711914063	-0.331878662109375	-1.64031982421875	-0.92315673828125	9.591770401000977	0.6075286712646484	0.28311434631347654	0.64849853515625	-4.72259521484375	-3.551483154296875	9.656413845825195	0.0383072265625	0.040701428222656245	3.704071044921875	-4.482269287109375	-2.277374267578125	
229	0.916	0.0	0.0	0.0	0.0	0.003	0.003	0.003	0.003	9.935338339233398	0.527322915649414	-0.15981296081542967	4.1046142578125	-4.98199462890625	-0.84686279296875	9.664195001220703	0.2813186950683594	0.1592144104003906	0.54931640625	-5.39398193359375	-2.4261474609375	9.97783541870117	0.062249243164062495	-0.45669396667480466	3.65447998046875	-4.535675048828125	-2.246856689453125	
230	0.92	0.0	0.0	0.0	0.0	0.006	0.006	0.003	0.003	9.995791931152343	0.12389993591308593	-0.03172317199707031	1.007080078125	-2.353668212890625	-1.0833740234375	9.91438907470703	0.45489831542968745	0.12449848632812499	0.621795654296875	-4.940032958984375	-3.208160400390625	10.02990930480957	-0.1640028137207031	-0.10414777221679687	3.36456298828125	-4.772186279296875	-2.056121826171875	
231	0.924	0.0	0.0	0.0	0.0	0.003	0.003	0.003	0.003	10.014945544433592	0.48063598327636714	-0.2609679809570312	5.474090576171875	-5.588531494140625	-1.15966796875	9.719261639404296	0.21188684692382811	0.058657940673828124	0.492095947265625	-5.035400390625	-2.7618408203125	9.861716638183593	-0.18435352783203124	-0.13646949462890623	3.7078857421875	-4.611968994140625	-2.3040771484375	
232	0.928	0.0	0.0	0.0	0.0	0.006	0.006	0.003	0.003	9.938331091308592	0.3058592620849609	-0.004189852905273437	6.85882568359375	-6.41632080078125	-0.743865966796875	9.676764559936522	0.6177040283203125	0.04848258361816406	0.99945068359375	-5.092620849609375	-2.84576416015625	9.64623848876953	0.1406593475341797	0.08678981018066406	3.574371337890625	-4.486083984375	-2.040863037109375	
233	0.932	0.0	0.0	0.0	0.0	0.003	0.003	0.003	0.003	10.083180291748047	0.34835634155273437	-0.2819172454833984	6.259918212890625	-6.305694580078125	-0.675201416015625	9.905410818481444	0.1753752716064453	-0.02454056701660156	0.820159912109375	-5.0506591796875	-2.689361572265625	9.992799179077148	-0.24361001892089842	-0.12090718383789062	3.41796875	-4.673004150390625	-2.117156982421875	
234	0.936	0.0	0.0	0.0	0.0	0.003	0.003	0.003	0.003	10.085574493408203	0.06344634399414062	-0.13826514587402344	7.152557373046875	-6.49261474609375	-0.90789794921875	9.886855755615233	0.34117373657226563	-0.020350714111328123	1.499176025390625	-5.153656005859375	-2.92205810546875	10.216657034301758	0.0005985504150390625	-0.3028665100097656	3.971099853515625	-4.238128662109375	-2.25830078125	
235	0.9400000000000001	0.0	0.0	0.0	0.0	0.003	0.003	0.003	0.003	9.925761532592773	0.5398924743652344	-0.1562216583251953	7.244110107421875	-6.99615478515625	-0.888824462890625	9.668983404541015	0.5129577056884765	0.2507926239013672	1.15966796875	-5.0048828125	-3.0517578125	9.68454571533203	-0.034715924072265626	-0.058657940673828124	3.6773681640625	-4.474639892578125	-2.101898193359375	
236	0.9440000000000001	0.0	0.0	0.0	0.0	0.0	0.006	0.006	0.003	9.926958633422851	-0.047884033203124995	0.025139117431640625	5.9967041015625	-6.2713623046875	-0.70953369140625	9.789890588378906	0.4082113830566406	0.08918401184082031	1.125335693359375	-4.810333251953125	-2.5787353515625	10.095151300048828	0.12808978881835936	-0.25737667846679685	3.658294677734375	-4.405975341796875	-2.02178955078125	
237	0.9480000000000001	0.0	0.0	0.0	0.0	0.003	0.006	0.003	0.006	9.840767373657226	-0.4333505004882812	0.3022679595947265	2.590179443359375	-3.658294677734375	-0.881195068359375	9.950302099609374	0.23104046020507812	0.20350714111328125	1.129150390625	-4.76837158203125	-3.1585693359375	10.350133776855468	-0.2609679809570312	-0.3537432952880859	3.387451171875	-4.46319580078125	-1.68609619140625	
238	0.9520000000000001	0.0	0.0	0.0	0.0	0.003	0.003	0.006	0.006	9.874286196899414	0.001197100830078125	0.06584054565429687	4.2572021484375	-4.9896240234375	-0.911712646484375	9.663596450805663	0.6200982299804687	0.12150573425292968	1.575469970703125	-4.878997802734375	-3.30352783203125	10.049661468505859	0.1897404815673828	-0.34117373657226563	3.47900390625	-4.276275634765625	-2.26593017578125	
239	0.9560000000000001	0.0	0.0	0.0	0.0	0.006	0.003	0.003	0.003	9.686939916992188	-0.10474632263183593	0.4608838195800781	1.728057861328125	-3.086090087890625	-0.804901123046875	9.79946739501953	0.32082302246093747	0.3854664672851562	0.736236572265625	-4.852294921875	-2.70843505859375	10.014945544433592	0.05566518859863281	-0.2741360900878906	3.45611572265625	-4.505157470703125	-1.739501953125	
240	0.96	0.0	0.0	0.0	0.0	0.003	0.003	0.003	0.006	9.955090502929687	-0.1693897674560547	0.09816226806640624	-1.67083740234375	-1.02996826171875	-0.766754150390625	10.077194787597655	0.5781997009277343	-0.003591302490234375	1.239776611328125	-4.94384765625	-2.773284912109375	10.378864196777343	-0.143652099609375	-0.7015010864257812	3.4332275390625	-4.459381103515625	-2.216339111328125	
241	0.964	0.0	0.0	0.0	0.0	0.003	0.003	0.003	0.006	9.773729727172851	-0.1131260284423828	0.38247371520996093	1.857757568359375	-2.98309326171875	-0.850677490234375	9.8311905670166	0.3705027069091797	0.25139117431640623	0.3662109375	-4.7149658203125	-3.18145751953125	10.142436782836914	-0.07302315063476562	-0.28909985046386716	3.41796875	-4.665374755859375	-2.0599365234375	
242	0.968	0.0	0.0	0.0	0.0	0.006	0.003	0.003	0.003	9.80665	0.19393033447265623	0.008978256225585938	-0.965118408203125	-1.46484375	-0.732421875	9.74799205932617	0.7314286071777343	0.07422025146484375	1.31988525390625	-4.89044189453125	-2.750396728515625	9.945513696289062	0.12150573425292968	-0.4321533996582031	3.53240966796875	-4.52423095703125	-2.14385986328125	
243	0.972	0.0	0.0	0.0	0.0	0.003	0.006	0.003	0.003	9.829394915771484	0.0	0.2932897033691406	2.590179443359375	-3.543853759765625	-0.797271728515625	9.662997900390625	0.39743747558593745	0.38367081604003905	0.408172607421875	-5.069732666015625	-2.544403076171875	10.214262832641602	-0.07781155395507812	-0.3298012786865234	3.7384033203125	-4.657745361328125	-1.495361328125	
244	0.976	0.0	0.0	0.0	0.0	0.003	0.003	0.003	0.003	9.97184991455078	-0.11851298217773437	-0.11432312927246092	0.415802001953125	-2.124786376953125	-0.995635986328125	9.981426721191406	0.5704185455322265	-0.010773907470703125	1.15966796875	-4.856109619140625	-2.780914306640625	10.308833798217773	-0.17357962036132812	-0.5626373901367188	3.4637451171875	-4.52423095703125	-2.246856689453125	
245	0.98	0.0	0.0	0.0	0.0	0.003	0.006	0.003	0.003	9.745597857666015	0.2136824981689453	0.18854338073730467	1.0528564453125	-2.696990966796875	-1.132965087890625	9.504980590820312	0.5997475158691405	0.4626794708251953	0.762939453125	-5.08880615234375	-3.0670166015625	9.981426721191406	0.34656069030761716	-0.24899697265624998	3.269195556640625	-4.6234130859375	-1.617431640625	
246	0.984	0.0	0.0	0.0	0.0	0.006	0.003	0.003	0.006	9.789890588378906	0.05087678527832031	0.2232593048095703	0.133514404296875	-2.330780029296875	-0.965118408203125	9.878476049804688	0.6177040283203125	-0.022146365356445312	1.125335693359375	-4.787445068359375	-2.933502197265625	10.205284576416014	-0.1197100830078125	-0.48123453369140623	3.6163330078125	-4.474639892578125	-1.97601318359375	
247	0.988	0.0	0.0	0.0	0.0	0.003	0.003	0.003	0.003	9.906009368896484	0.05805939025878906	-0.02693476867675781	0.48065185546875	-2.38037109375	-1.39617919921875	9.783905084228515	0.4842272857666015	0.37768531188964843	0.568389892578125	-4.772186279296875	-2.93731689453125	10.198101971435547	0.16220716247558592	-0.25917232971191406	3.429412841796875	-4.72259521484375	-2.048492431640625	
248	0.992	0.0	0.0	0.0	0.0	0.009000000000000001	0.006	0.003	0.006	9.76235726928711	0.2501940734863281	0.21009119567871093	-0.48065185546875	-1.628875732421875	-1.2969970703125	9.847351428222655	0.556053335571289	0.002992752075195312	1.079559326171875	-4.93621826171875	-2.994537353515625	10.036493359375	-0.1514332550048828	-0.40761283264160153	3.498077392578125	-5.077362060546875	-2.25830078125	
249	0.996	0.0	0.0	0.0	0.0	0.0	0.003	0.003	0.003	9.834183319091796	0.07242460021972656	0.04548983154296875	0.0152587890625	-1.8463134765625	-0.9918212890625	9.543287817382812	0.6218938812255859	0.37888241271972656	0.732421875	-5.05828857421875	-3.116607666015625	9.855731134033203	0.3687070556640625	-0.11192892761230468	3.482818603515625	-4.9591064453125	-2.0294189453125	
250	1.0	0.0	0.0	0.0	0.0	0.006	0.006	0.003	0.003	9.976638317871092	0.20829554443359374	-0.04249707946777344	2.025604248046875	-3.59344482421875	-0.63323974609375	10.019733947753906	0.3920505218505859	-0.03591302490234375	1.209259033203125	-5.25665283203125	-3.147125244140625	10.109516510009765	-0.1562216583251953	-0.3537432952880859	3.45611572265625	-4.695892333984375	-1.77001953125	
251	1.004	0.0	0.0	0.0	0.0	0.003	4.596	4.626	4.566	9.923965881347655	0.011971008300781249	-0.03232172241210937	0.46539306640625	-2.44140625	-1.056671142578125	9.683348614501952	0.5195417602539062	0.3076549133300781	0.965118408203125	-5.21087646484375	-3.307342529296875	9.930549935913085	0.016160861206054686	-0.13587094421386717	3.757476806640625	-4.547119140625	-2.55584716796875	
252	1.008	0.0	0.0	0.0	0.0	4.587	4.632	4.635	4.557	9.83178911743164	0.412401235961914	0.05327098693847656	2.08282470703125	-3.208160400390625	-0.736236572265625	9.681552963256836	0.43155484924316406	0.09576806640624999	0.820159912109375	-4.82940673828125	-2.84576416015625	9.843161575317382	0.07841010437011718	-0.24181436767578124	3.330230712890625	-4.978179931640625	-1.8157958984375	
253	1.012	0.0	0.0	0.0	0.0	4.599	4.635	4.635	4.569	9.903615167236328	0.016759411621093748	0.08858546142578125	4.749298095703125	-4.856109619140625	-0.591278076171875	9.652223992919922	0.5141548065185546	0.42437224426269526	0.629425048828125	-5.062103271484375	-3.0517578125	9.779715231323241	-0.012569558715820313	0.0430956298828125	4.15802001953125	-4.6234130859375	-2.513885498046875	
254	1.016	0.0	0.0	0.0	0.0	4.596	4.6290000000000004	4.632	4.581	9.975441217041014	0.26216508178710934	-0.08020575561523437	2.2430419921875	-3.6163330078125	-0.843048095703125	9.898228213500976	0.3082534637451172	-0.025737667846679687	1.0528564453125	-4.795074462890625	-3.2806396484375	10.238803399658202	-0.14006079711914063	-0.5189432098388671	3.448486328125	-4.924774169921875	-1.941680908203125	
255	1.02	0.0	0.0	0.0	0.0	4.5840000000000005	4.635	4.635	4.5840000000000005	9.836577520751952	0.38845921936035155	0.05805939025878906	4.72259521484375	-4.787445068359375	-0.8087158203125	9.594164602661133	0.5728127471923827	0.3136404174804687	0.789642333984375	-4.5013427734375	-2.887725830078125	9.658209497070311	0.03890577697753906	0.06643909606933593	3.971099853515625	-3.94439697265625	-2.5482177734375	
256	1.024	0.0	0.0	0.0	0.0	4.581	4.632	4.635	4.587	9.87009634399414	0.35673604736328124	0.06045359191894531	1.438140869140625	-3.147125244140625	-0.743865966796875	9.724050042724608	0.4267664459228515	0.19393033447265623	1.02996826171875	-5.016326904296875	-2.986907958984375	9.770736975097655	0.2813186950683594	0.04129997863769531	3.643035888671875	-4.44793701171875	-1.7242431640625	
257	1.028	0.0	0.0	0.0	0.0	4.578	4.632	4.6290000000000004	4.596	9.903615167236328	0.16220716247558592	0.06703764648437499	4.57763671875	-5.01251220703125	-0.8544921875	9.773729727172851	0.35673604736328124	0.22266075439453123	0.87738037109375	-5.031585693359375	-3.101348876953125	9.91498762512207	-0.1640028137207031	-0.011372457885742187	3.856658935546875	-4.49371337890625	-2.52532958984375	
258	1.032	0.0	0.0	0.0	0.0	4.596	4.635	4.638	4.572	10.047267266845703	0.18914193115234373	-0.20231004028320312	4.84466552734375	-5.42449951171875	-1.079559326171875	9.726444244384766	0.4165910888671875	0.13467384338378904	0.202178955078125	-4.688262939453125	-2.57110595703125	9.849745629882811	0.17956512451171874	0.03890577697753906	3.482818603515625	-4.69970703125	-2.147674560546875	
259	1.036	0.0	0.0	0.0	0.0	4.596	4.635	0.003	0.006	9.81263550415039	0.4686649749755859	0.18614917907714842	4.49371337890625	-4.9591064453125	-0.8392333984375	9.575010989379882	0.5518634826660156	0.2214636535644531	0.965118408203125	-5.0048828125	-3.27301025390625	10.039486111450195	-0.062249243164062495	-0.4339490509033203	3.925323486328125	-4.69970703125	-1.987457275390625	
260	1.04	0.0	0.0	0.0	0.0	0.006	0.006	0.003	0.003	10.04846436767578	0.033518823242187495	-0.1640028137207031	4.825592041015625	-5.336761474609375	-0.81634521484375	9.890447058105469	0.3435679382324219	-0.020949264526367185	0.759124755859375	-4.72259521484375	-2.22015380859375	10.022726699829102	0.040701428222656245	-0.23044190979003906	3.48663330078125	-4.650115966796875	-1.895904541015625	
261	1.044	0.0	0.0	0.0	0.0	0.003	0.003	0.003	0.003	9.94072529296875	0.1927332336425781	-0.017357962036132813	5.279541015625	-5.191802978515625	-0.782012939453125	9.738415252685547	0.4129997863769531	0.17417817077636719	1.651763916015625	-4.99725341796875	-2.994537353515625	10.235212097167969	-0.2166752502441406	-0.5027823486328125	3.437042236328125	-4.253387451171875	-2.269744873046875	
262	1.048	0.0	0.0	0.0	0.0	0.006	0.003	0.003	0.006	9.919177478027343	0.06045359191894531	-0.07481880187988281	4.9591064453125	-5.39398193359375	-0.5950927734375	9.664195001220703	0.4417302062988281	0.1274912384033203	0.823974609375	-5.05828857421875	-2.44903564453125	10.056844073486328	0.11851298217773437	-0.42975919799804685	3.2958984375	-4.6234130859375	-2.048492431640625	
263	1.052	0.0	0.0	0.0	0.0	0.003	0.006	0.003	0.003	9.884461553955077	-0.0939724151611328	-0.1292868896484375	3.902435302734375	-4.5166015625	-0.782012939453125	9.89583401184082	0.469862075805664	-0.025737667846679687	1.373291015625	-5.161285400390625	-2.735137939453125	10.075997686767577	-0.11611878051757812	-0.3022679595947265	3.692626953125	-4.360198974609375	-2.033233642578125	
264	1.056	0.0	0.0	0.0	0.0	0.003	0.003	0.003	0.006	10.028113653564452	0.06643909606933593	-0.11073182678222655	6.999969482421875	-6.6070556640625	-0.885009765625	9.873089096069336	0.3363853332519531	-0.013168109130859374	0.782012939453125	-5.04302978515625	-2.6397705078125	10.231620794677733	-0.08379705810546874	-0.4171896392822265	3.662109375	-4.772186279296875	-1.865386962890625	
265	1.06	0.0	0.0	0.0	0.0	0.006	0.003	0.003	0.003	9.854534033203125	-0.1897404815673828	-0.11192892761230468	3.23486328125	-3.997802734375	-1.06048583984375	9.85692823486328	0.48722003784179685	-0.04967968444824218	1.4495849609375	-5.222320556640625	-2.964019775390625	10.01733974609375	0.05626373901367187	-0.34177228698730466	3.326416015625	-4.61578369140625	-1.987457275390625	
266	1.064	0.0	0.0	0.0	0.0	0.006	0.003	0.003	0.006	9.888052856445311	-0.03890577697753906	0.058657940673828124	-0.1373291015625	-1.926422119140625	-0.67901611328125	9.6151138671875	0.6554127044677734	0.28311434631347654	1.02996826171875	-5.02777099609375	-2.83050537109375	10.049661468505859	-0.023942016601562498	-0.3393780853271484	3.307342529296875	-4.962921142578125	-2.1820068359375	
267	1.068	0.0	0.0	0.0	0.0	0.003	0.006	0.003	0.006	9.886257205200195	-0.32022447204589843	-0.13826514587402344	2.124786376953125	-3.6773681640625	-0.774383544921875	10.031704956054687	0.3399766357421875	-0.17417817077636719	1.590728759765625	-4.932403564453125	-2.742767333984375	10.313023651123046	-0.013766659545898436	-0.6943184814453125	3.33404541015625	-4.50897216796875	-1.65557861328125	
268	1.072	0.0	0.0	0.0	0.0	0.012	0.006	0.003	0.006	9.628281976318359	-0.11073182678222655	0.36092590026855464	-0.06103515625	-1.953125	-1.13677978515625	9.70369932861328	0.6141127258300781	0.2609679809570312	1.087188720703125	-5.031585693359375	-3.086090087890625	10.150217938232421	-0.10953472595214843	-0.4112041351318359	3.406524658203125	-4.566192626953125	-1.74713134765625	
269	1.076	0.0	0.0	0.0	0.0	0.003	0.003	0.006	0.0	9.758167416381836	-0.27174188842773433	0.06584054565429687	1.621246337890625	-3.0364990234375	-1.3275146484375	9.809044201660155	0.41419688720703124	0.04548983154296875	0.881195068359375	-5.1116943359375	-3.147125244140625	10.148422286987303	0.1352723937988281	-0.6189011291503906	3.39508056640625	-4.5623779296875	-2.0751953125	
270	1.08	0.0	0.0	0.0	0.0	0.006	0.003	0.003	0.006	9.558850128173827	-0.14903905334472656	0.5255272644042969	-1.220703125	-1.3275146484375	-0.701904296875	9.743203656005859	0.5398924743652344	0.26815058593749996	0.91552734375	-4.9591064453125	-2.72369384765625	10.014346994018554	-0.03531447448730469	-0.15981296081542967	3.4027099609375	-4.947662353515625	-1.79290771484375	
271	1.084	0.0	0.0	0.0	0.0	0.006	0.003	0.006	0.006	9.896432562255859	0.20530279235839843	0.013766659545898436	-1.773834228515625	-0.682830810546875	-1.01470947265625	9.980229620361328	0.3890577697753906	0.059256491088867186	1.2054443359375	-4.795074462890625	-3.376007080078125	10.306439596557617	0.01915361328125	-0.6218938812255859	3.50189208984375	-4.566192626953125	-2.197265625	
272	1.088	0.0	0.0	0.0	0.0	0.003	0.003	0.003	0.003	9.558850128173827	0.11133037719726561	0.535702621459961	-1.621246337890625	-0.58746337890625	-1.018524169921875	9.732429748535155	0.5213374114990235	0.2998737579345703	0.377655029296875	-4.756927490234375	-2.81524658203125	10.007762939453125	-0.034715924072265626	-0.16699556579589842	3.177642822265625	-4.680633544921875	-1.697540283203125	
273	1.092	0.0	0.0	0.0	0.0	0.006	0.006	0.003	0.006	9.83238766784668	0.38367081604003905	0.10474632263183593	-1.3885498046875	-0.988006591796875	-1.007080078125	9.827000714111328	0.6428431457519531	0.15502455749511718	1.0986328125	-5.25665283203125	-3.33404541015625	9.80665	0.02633621826171875	-0.27832594299316404	3.7384033203125	-4.657745361328125	-2.315521240234375	
274	1.096	0.0	0.0	0.0	0.0	0.006	0.003	0.003	0.006	9.673771807861328	0.13766659545898435	0.39743747558593745	-1.41143798828125	-0.8544921875	-1.01470947265625	9.922768780517577	0.21966800231933592	0.10414777221679687	0.034332275390625	-4.650115966796875	-2.696990966796875	10.098742602539062	-0.016160861206054686	-0.13587094421386717	3.4027099609375	-4.657745361328125	-1.79290771484375	
275	1.1	0.0	0.0	0.0	0.0	0.006	0.003	0.006	0.006	9.984419473266602	0.30705636291503907	-0.14784195251464843	0.2593994140625	-2.140045166015625	-0.93841552734375	9.764152920532226	0.517746109008789	0.011372457885742187	0.579833984375	-5.05828857421875	-2.92205810546875	10.02392380065918	-0.20649989318847656	-0.4531026641845703	3.452301025390625	-4.57763671875	-2.086639404296875	
276	1.104	0.0	0.0	0.0	0.0	0.003	0.006	0.006	0.003	9.938929641723632	0.32082302246093747	-0.10893617553710937	4.749298095703125	-5.16510009765625	-0.682830810546875	9.710881933593749	0.3124433166503906	0.2771288421630859	-0.095367431640625	-4.7607421875	-2.613067626953125	9.935338339233398	0.0143652099609375	-0.09995791931152344	3.917694091796875	-4.2724609375	-2.43377685546875	
277	1.108	0.0	0.0	0.0	0.0	0.003	0.006	0.003	0.006	9.96586441040039	0.38786066894531246	-0.08678981018066406	2.079010009765625	-3.543853759765625	-0.675201416015625	9.753379013061522	0.5692214447021484	0.013168109130859374	0.80108642578125	-5.11932373046875	-3.116607666015625	10.043675964355469	-0.12030863342285156	-0.3603273498535156	3.74603271484375	-4.848480224609375	-2.262115478515625	
278	1.112	0.0	0.0	0.0	0.0	0.006	0.003	0.003	0.003	9.94072529296875	0.09277531433105468	-0.04967968444824218	4.375457763671875	-4.9591064453125	-0.980377197265625	9.706692080688477	0.2962824554443359	0.2376245147705078	1.190185546875	-4.84466552734375	-3.200531005859375	9.837176071166992	0.14903905334472656	0.11432312927246092	4.154205322265625	-4.680633544921875	-2.2125244140625	
279	1.116	0.0	0.0	0.0	0.0	0.006	0.003	0.006	0.003	9.822212310791015	0.36391865234375	0.17357962036132812	4.43267822265625	-5.06591796875	-1.07574462890625	9.67856021118164	0.5811924530029297	0.11671733093261719	1.300811767578125	-5.096435546875	-3.147125244140625	9.879074600219726	-0.04967968444824218	-0.24959552307128904	3.589630126953125	-4.924774169921875	-2.40325927734375	
280	1.12	0.0	0.0	0.0	0.0	0.006	0.003	0.003	0.0	9.795876092529296	0.17776947326660156	0.19213468322753904	3.368377685546875	-3.8299560546875	-0.972747802734375	9.63307037963867	0.47165772705078124	0.3381809844970703	0.90789794921875	-5.18798828125	-3.253936767578125	9.842563024902343	0.17836802368164062	0.04848258361816406	3.551483154296875	-4.49371337890625	-2.025604248046875	
281	1.124	0.0	0.0	0.0	0.0	0.003	0.003	0.006	0.006	10.047267266845703	0.14006079711914063	-0.12509703674316405	3.337860107421875	-4.29534912109375	-1.064300537109375	9.89523546142578	0.4064157318115234	0.02154781494140625	0.606536865234375	-5.031585693359375	-2.5177001953125	9.955090502929687	-0.1927332336425781	0.05566518859863281	3.65447998046875	-4.43267822265625	-2.12860107421875	
282	1.1280000000000001	0.0	0.0	0.0	0.0	0.003	0.003	0.006	0.006	9.777919580078125	0.3705027069091797	0.20470424194335937	3.131866455078125	-3.887176513671875	-1.02996826171875	9.575609539794922	0.46806642456054687	0.3794809631347656	0.6866455078125	-4.69207763671875	-3.10516357421875	9.752780462646484	0.1897404815673828	0.017956512451171875	3.879547119140625	-4.558563232421875	-2.57110595703125	
283	1.1320000000000001	0.0	0.0	0.0	0.0	0.003	0.006	0.006	0.003	10.018536846923828	0.10714052429199218	-0.16519991455078123	3.33404541015625	-4.5318603515625	-0.843048095703125	9.732429748535155	0.4165910888671875	0.17238251953125	0.789642333984375	-5.2947998046875	-2.613067626953125	9.758765966796874	-0.016759411621093748	0.06344634399414062	3.589630126953125	-4.66156005859375	-1.888275146484375	
284	1.1360000000000001	0.0	0.0	0.0	0.0	0.003	0.003	0.003	0.006	9.95987890625	-0.012569558715820313	0.0	5.184173583984375	-5.420684814453125	-0.621795654296875	9.652223992919922	0.37828386230468747	0.3268085266113281	0.8392333984375	-4.726409912109375	-3.34930419921875	10.17056865234375	-0.11073182678222655	-0.21308394775390624	3.482818603515625	-4.34112548828125	-2.3040771484375	
285	1.1400000000000001	0.0	0.0	0.0	0.0	0.006	0.003	0.003	0.006	10.006565838623047	0.19871873779296872	-0.05746083984375	5.71441650390625	-5.72967529296875	-0.873565673828125	9.787496386718749	0.38845921936035155	0.13168109130859373	0.95367431640625	-5.153656005859375	-2.750396728515625	9.931148486328125	0.003591302490234375	0.02454056701660156	3.4332275390625	-4.547119140625	-2.105712890625	
286	1.1440000000000001	0.0	0.0	0.0	0.0	0.003	4.617	4.626	4.557	9.861118087768554	0.08439560852050781	0.03411737365722656	4.7149658203125	-5.001068115234375	-0.789642333984375	9.782707983398437	0.5566518859863281	0.14963760375976562	1.605987548828125	-4.734039306640625	-2.84576416015625	10.000580334472655	-0.011372457885742187	-0.19033903198242186	3.84521484375	-4.642486572265625	-2.0904541015625	
287	1.1480000000000001	0.0	0.0	0.0	0.0	4.59	4.632	4.632	4.578	10.001178884887695	0.2262520568847656	-0.051475335693359374	4.99725341796875	-5.321502685546875	-0.8087158203125	9.871293444824218	0.33399113159179683	0.027533319091796873	1.018524169921875	-5.5694580078125	-2.605438232421875	9.897629663085937	0.12210428466796874	0.05626373901367187	3.51715087890625	-4.955291748046875	-1.674652099609375	
288	1.1520000000000001	0.0	0.0	0.0	0.0	4.59	4.632	4.632	4.575	9.981426721191406	-0.047884033203124995	-0.1406593475341797	4.82177734375	-5.222320556640625	-0.885009765625	9.843161575317382	0.4746504791259765	0.1879448303222656	1.4495849609375	-4.772186279296875	-3.032684326171875	10.264541067504883	-0.26216508178710934	-0.3585316986083984	3.59344482421875	-4.520416259765625	-2.101898193359375	
289	1.156	0.0	0.0	0.0	0.0	4.59	4.635	4.635	4.5840000000000005	9.694122521972655	0.17776947326660156	0.44891281127929683	3.650665283203125	-4.35638427734375	-0.804901123046875	9.7928833404541	0.5231330627441406	0.33758243408203126	0.80108642578125	-5.146026611328125	-2.66265869140625	10.158597644042969	0.28490999755859375	-0.40402153015136716	3.326416015625	-4.634857177734375	-1.857757568359375	
290	1.16	0.0	0.0	0.0	0.0	4.581	4.635	4.635	4.59	9.87608184814453	0.23523031311035156	0.08918401184082031	5.9661865234375	-5.977630615234375	-0.63323974609375	9.771335525512695	0.6057330200195312	0.21068974609375	1.277923583984375	-5.06591796875	-2.9449462890625	10.283096130371094	-0.30526071166992186	-0.5776011505126952	3.360748291015625	-4.924774169921875	-1.827239990234375	
291	1.164	0.0	0.0	0.0	0.0	4.59	4.632	4.635	4.578	9.767145672607422	0.1388636962890625	0.25438392639160157	3.7384033203125	-4.32586669921875	-0.865936279296875	9.90840357055664	0.4034229797363281	0.15682020874023436	0.835418701171875	-5.0201416015625	-2.628326416015625	10.264541067504883	0.16759411621093748	-0.47584757995605464	3.215789794921875	-4.6539306640625	-1.888275146484375	
292	1.168	0.0	0.0	0.0	0.0	4.59	4.635	4.635	4.563	9.970054263305663	0.17896657409667968	-0.10115502014160156	-0.247955322265625	-1.781463623046875	-1.0223388671875	9.976638317871092	0.5602431884765625	-0.15322890625	1.62506103515625	-5.06591796875	-3.1890869140625	10.23401499633789	-0.14544775085449219	-0.5458779785156249	3.41033935546875	-4.581451416015625	-1.953125	
293	1.172	0.0	0.0	0.0	0.0	4.599	4.632	0.006	0.003	9.65342109375	0.16819266662597654	0.2932897033691406	3.711700439453125	-4.4708251953125	-0.8544921875	9.7928833404541	0.47764323120117186	0.23822306518554687	0.23651123046875	-5.191802978515625	-2.37274169921875	10.018536846923828	0.30526071166992186	-0.4004302276611328	3.5858154296875	-4.73785400390625	-2.03704833984375	
294	1.176	0.0	0.0	0.0	0.0	0.003	0.003	0.003	0.006	9.803058697509766	-0.2454056701660156	0.13287819213867186	-0.789642333984375	-1.605987548828125	-0.6103515625	9.952696301269532	0.479438882446289	-0.05746083984375	0.9613037109375	-5.184173583984375	-2.910614013671875	10.315417852783202	-0.16998831787109375	-0.6590040069580078	3.27301025390625	-4.61578369140625	-1.613616943359375	
295	1.18	0.0	0.0	0.0	0.0	0.006	0.006	0.003	0.006	9.717465988159178	0.06703764648437499	0.277727392578125	3.894805908203125	-4.604339599609375	-0.865936279296875	9.770736975097655	0.6003460662841796	0.12150573425292968	1.117706298828125	-5.092620849609375	-3.368377685546875	10.062829577636718	0.030526071166992186	-0.2603694305419922	3.208160400390625	-4.924774169921875	-2.13623046875	
296	1.184	0.0	0.0	0.0	0.0	0.003	0.003	0.003	0.006	9.759963067626952	-0.015562310791015624	0.1562216583251953	-0.980377197265625	-1.36566162109375	-0.9002685546875	9.802460147094726	0.5315127685546874	-0.037708676147460936	1.445770263671875	-4.913330078125	-3.01361083984375	10.131064324951172	0.044292730712890624	-0.5919663604736328	3.078460693359375	-4.5928955078125	-1.697540283203125	
297	1.188	0.0	0.0	0.0	0.0	0.003	0.006	0.003	0.003	9.816226806640625	0.030526071166992186	0.09157821350097656	-1.010894775390625	-1.422882080078125	-1.0223388671875	9.699509475708007	0.6943184814453125	0.14544775085449219	1.049041748046875	-5.0506591796875	-3.032684326171875	10.036493359375	0.032920272827148434	-0.2747346405029297	3.2196044921875	-4.7760009765625	-1.842498779296875	
298	1.192	0.0	0.0	0.0	0.0	0.003	0.003	0.003	0.009000000000000001	9.824007962036132	-0.05746083984375	0.0909796630859375	-1.331329345703125	-1.285552978515625	-1.1749267578125	9.832986218261718	0.31064766540527344	0.15861585998535155	0.518798828125	-4.985809326171875	-3.1585693359375	10.31661495361328	-0.05327098693847656	-0.6853402252197265	3.246307373046875	-4.85992431640625	-2.0904541015625	
299	1.196	0.0	0.0	0.0	0.0	0.006	0.006	0.003	0.003	9.874884747314452	0.11133037719726561	0.054468087768554684	-1.186370849609375	-1.2664794921875	-1.102447509765625	9.690531219482422	0.7260416534423828	0.09816226806640624	0.8392333984375	-4.92095947265625	-3.116607666015625	9.994594830322265	-0.006584054565429687	-0.3076549133300781	3.276824951171875	-4.611968994140625	-2.124786376953125	
300	1.2	0.0	0.0	0.0	0.0	0.003	0.003	0.006	0.003	9.726444244384766	0.07122749938964844	0.18854338073730467	-1.6326904296875	-0.965118408203125	-1.0833740234375	9.714473236083984	0.3537432952880859	0.19812018737792966	0.48828125	-5.0811767578125	-2.89154052734375	9.916184725952148	0.10115502014160156	-0.5315127685546874	3.444671630859375	-4.756927490234375	-2.231597900390625	
301	1.204	0.0	0.0	0.0	0.0	0.006	0.003	0.003	0.006	9.911994873046874	0.13646949462890623	-0.002992752075195312	-0.469207763671875	-1.514434814453125	-1.0223388671875	9.7928833404541	0.5422866760253906	0.15682020874023436	0.640869140625	-4.665374755859375	-3.22723388671875	10.092757098388672	-0.06823474731445311	-0.22086510314941404	3.406524658203125	-5.031585693359375	-1.922607421875	
302	1.208	0.0	0.0	0.0	0.0	0.006	0.003	0.006	0.006	10.060435375976562	0.36391865234375	-0.4213794921875	3.875732421875	-4.535675048828125	-1.079559326171875	9.759364517211914	0.41539398803710936	0.2825157958984375	0.579833984375	-5.069732666015625	-3.47137451171875	9.949104998779296	0.07122749938964844	-0.39983167724609375	3.643035888671875	-4.7454833984375	-2.28118896484375	
303	1.212	0.0	0.0	0.0	0.0	0.006	0.006	0.003	0.006	9.935936889648437	0.3274070770263672	0.007781155395507812	-0.09918212890625	-1.85394287109375	-1.0223388671875	9.623493572998047	0.4800374328613281	0.297479556274414	0.461578369140625	-4.93621826171875	-3.131866455078125	9.666589202880859	0.06943184814453125	0.1131260284423828	3.6163330078125	-4.39453125	-2.15911865234375	
304	1.216	0.0	0.0	0.0	0.0	0.006	0.006	0.003	0.003	10.058639724731444	0.5159504577636719	-0.3956418243408203	5.458831787109375	-5.584716796875	-0.99945068359375	9.821613760375977	0.4177881896972656	0.24600422058105467	0.78582763671875	-4.856109619140625	-2.960205078125	9.93354268798828	-0.028730419921875	-0.37229835815429685	3.475189208984375	-4.46319580078125	-2.35748291015625	
305	1.22	0.0	0.0	0.0	0.0	0.003	0.003	0.003	0.006	10.08078609008789	0.15981296081542967	-0.2519897247314453	8.81195068359375	-7.694244384765625	-0.6561279296875	9.775525378417969	0.316034619140625	0.1197100830078125	0.48828125	-4.878997802734375	-3.063201904296875	9.890447058105469	-0.029328970336914062	-0.06045359191894531	3.513336181640625	-4.150390625	-1.983642578125	
306	1.224	0.0	0.0	0.0	0.0	0.006	0.003	0.006	0.003	10.007762939453125	0.5123591552734374	-0.3920505218505859	6.08062744140625	-6.20269775390625	-0.988006591796875	9.67856021118164	0.40282442932128903	-0.10414777221679687	1.15966796875	-5.115509033203125	-2.64739990234375	9.812036953735351	-0.07900865478515624	-0.05027823486328125	3.72314453125	-4.24957275390625	-2.353668212890625	
