	time	dac1	dac2	dac3	dac4	adc1.3	adc2.3	adc3.3	adc4.3	imu1accx	imu1accy	imu1accz	imu1gyrox	imu1gyroy	imu1gyroz	imu2accx	imu2accy	imu2accz	imu2gyrox	imu2gyroy	imu2gyroz	imu3accx	imu3accy	imu3accz	imu3gyrox	imu3gyroy	imu3gyroz	log
0	0.0	0.0	0.0	0.0	0.0	0.003	0.006	0.003	0.006	9.932345587158203	0.19692308654785154	0.0053869537353515625	2.4871826171875	-3.665924072265625	-0.751495361328125	9.783905084228515	0.2693476867675781	0.2059013427734375	0.698089599609375	-5.146026611328125	-2.857208251953125	10.09993970336914	-0.35015199279785153	-0.35015199279785153	3.421783447265625	-4.749298095703125	-1.97601318359375	Estabilizou em 10s, 2428 rpm
1	0.004	0.0	0.0	0.0	0.0	0.006	0.003	0.006	0.006	9.860519537353515	0.023343466186523436	0.05027823486328125	0.732421875	-2.162933349609375	-0.7781982421875	9.730035546875	0.6296750366210937	0.24361001892089842	1.239776611328125	-4.764556884765625	-3.055572509765625	9.90900212097168	0.14604630126953125	-0.14544775085449219	3.74603271484375	-4.5166015625	-2.277374267578125	Started
2	0.008	0.0	0.0	0.0	0.0	0.009000000000000001	0.003	0.003	0.003	9.9215716796875	0.28371289672851563	-0.017357962036132813	2.872467041015625	-3.734588623046875	-0.86212158203125	9.787496386718749	0.2723404388427734	0.22505495605468748	0.766754150390625	-5.157470703125	-2.899169921875	10.112509262084961	-0.3393780853271484	-0.354341845703125	3.51715087890625	-4.634857177734375	-1.781463623046875	IMU1|LSM6DS3|0x6A|I2C-1|±2g (±19,6m/s²)|±125º/s|400Hz
3	0.012	0.0	0.0	0.0	0.0	0.003	0.003	0.006	0.003	9.8694977935791	0.011971008300781249	0.018555062866210937	5.5389404296875	-5.512237548828125	-1.25885009765625	9.74859060974121	0.6314706878662109	0.1227028350830078	1.155853271484375	-5.19561767578125	-3.406524658203125	9.87668039855957	0.15682020874023436	-0.14125789794921875	3.7078857421875	-4.596710205078125	-2.231597900390625	IMU2|LSM6DS3|0x6B|I2C-1|±2g (±19,6m/s²)|±125º/s|400Hz
4	0.016	0.0	0.0	0.0	0.0	0.003	0.003	0.003	0.006	9.919776028442381	0.38187516479492184	-0.031124621582031248	3.543853759765625	-4.03594970703125	-0.6866455078125	9.789890588378906	0.2765302917480469	0.23403321228027343	0.4425048828125	-4.993438720703125	-2.81524658203125	9.909600671386718	-0.034715924072265626	-0.2232593048095703	3.509521484375	-4.57000732421875	-1.76239013671875	IMU3|LSM6DS3|0x6B|I2C-2|±2g (±19,6m/s²)|±125º/s|400Hz
5	0.02	0.0	0.0	0.0	0.0	0.003	0.006	0.006	0.006	9.894038360595703	0.49021278991699213	0.0143652099609375	5.809783935546875	-5.603790283203125	-1.178741455078125	9.771335525512695	0.6248866333007812	0.10953472595214843	1.1749267578125	-4.817962646484375	-3.376007080078125	9.880271701049804	0.17836802368164062	-0.14963760375976562	3.772735595703125	-4.364013671875	-2.35748291015625	ADC|ADS1015|0|0|1|0|±6,144 V|2400 SPS
6	0.024	0.0	0.0	0.0	0.0	0.006	0.006	0.003	0.003	9.924564431762695	0.49021278991699213	-0.05386953735351562	3.582000732421875	-4.4403076171875	-0.659942626953125	9.744999307250977	0.5279214660644531	0.10354922180175781	0.87738037109375	-5.413055419921875	-2.5634765625	9.894038360595703	0.013766659545898436	-0.24839842224121092	3.688812255859375	-4.764556884765625	-1.918792724609375	Gen1|Disabled
7	0.028	0.0	0.0	0.0	0.0	0.003	0.003	0.006	0.006	9.893439810180663	0.5135562561035156	0.014963760375976562	5.79833984375	-5.596160888671875	-1.01470947265625	9.77492682800293	0.6649895111083984	0.13168109130859373	1.361846923828125	-4.940032958984375	-3.50189208984375	9.967061511230469	-0.0047884033203125	-0.2154781494140625	3.803253173828125	-4.283905029296875	-2.62451171875	Gen2|Enabled|Noise|0.0|10.0|1668
8	0.032	0.0	0.0	0.0	0.0	0.006	0.006	0.003	0.006	9.926360083007811	0.3082534637451172	-0.0718260498046875	5.05828857421875	-5.451202392578125	-0.946044921875	9.757568865966796	0.5111620544433594	0.10773907470703124	0.507354736328125	-5.138397216796875	-2.54058837890625	9.913191973876952	0.01975216369628906	-0.28371289672851563	3.551483154296875	-4.596710205078125	-1.811981201171875	Gen3|Enabled|Noise|0.0|10.0|128
9	0.036000000000000004	0.0	0.0	0.0	0.0	0.009000000000000001	0.003	0.003	0.006	9.89583401184082	0.5578489868164063	0.004189852905273437	6.137847900390625	-5.9661865234375	-1.049041748046875	9.829993466186522	0.4070142822265625	0.06105214233398437	0.98419189453125	-4.634857177734375	-3.3416748046875	9.973047015380859	-0.008978256225585938	-0.26815058593749996	3.66973876953125	-4.3487548828125	-2.50244140625	Gen4|Enabled|Noise|0.0|10.0|128
10	0.04	0.0	0.0	0.0	0.0	0.006	0.003	0.006	0.003	9.919776028442381	0.2741360900878906	-0.06643909606933593	5.031585693359375	-5.367279052734375	-0.911712646484375	9.74200655517578	0.5470750793457031	0.12689268798828124	0.896453857421875	-4.96673583984375	-2.38800048828125	9.984419473266602	0.19213468322753904	-0.08978256225585937	3.47137451171875	-4.38690185546875	-1.7242431640625	Ctrl|Disabled
11	0.044	0.0	0.0	0.0	0.0	0.003	0.003	0.003	0.006	9.897629663085937	0.5512649322509765	0.013766659545898436	6.137847900390625	-5.8746337890625	-1.13677978515625	9.83777462158203	0.3938461730957031	0.0526724365234375	0.86212158203125	-4.90570068359375	-3.261566162109375	10.008361489868163	-0.03591302490234375	-0.30406361083984373	3.559112548828125	-4.550933837890625	-2.376556396484375	
12	0.048	0.0	0.0	0.0	0.0	0.003	0.003	0.003	0.006	9.94072529296875	0.18854338073730467	-0.062249243164062495	4.840850830078125	-5.260467529296875	-0.972747802734375	9.792284790039062	0.6272808349609375	0.13646949462890623	0.79345703125	-5.130767822265625	-2.628326416015625	9.98501802368164	0.1897404815673828	-0.04908113403320312	3.6468505859375	-4.795074462890625	-1.91497802734375	
13	0.052000000000000005	0.0	0.0	0.0	0.0	0.006	0.006	0.003	0.006	9.872490545654296	-0.33099837951660155	-0.03411737365722656	2.44903564453125	-3.833770751953125	-1.15966796875	9.821613760375977	0.43155484924316406	0.055066638183593745	0.812530517578125	-4.810333251953125	-3.2958984375	9.995193380737303	0.02154781494140625	-0.3058592620849609	3.65447998046875	-4.4403076171875	-2.391815185546875	
14	0.056	0.0	0.0	0.0	0.0	0.006	0.003	0.003	0.003	9.920374578857421	0.12389993591308593	-0.044292730712890624	4.39453125	-5.107879638671875	-0.980377197265625	9.781510882568359	0.6596025573730468	0.15322890625	0.60272216796875	-5.138397216796875	-2.57110595703125	9.97783541870117	0.20829554443359374	-0.051475335693359374	3.620147705078125	-4.425048828125	-1.76239013671875	
15	0.06	0.0	0.0	0.0	0.0	0.003	0.006	0.003	0.003	9.877877499389648	-0.45968671875	-0.061650692749023434	1.926422119140625	-3.47900390625	-1.12152099609375	9.905410818481444	0.18076222534179687	-0.017357962036132813	1.232147216796875	-5.01251220703125	-3.047943115234375	10.211270080566406	-0.3872621185302734	-0.49859249572753905	3.757476806640625	-4.558563232421875	-2.410888671875	
16	0.064	0.0	0.0	0.0	0.0	0.003	0.003	0.003	0.006	9.904812268066406	0.05746083984375	0.05805939025878906	-0.0762939453125	-1.983642578125	-0.69427490234375	9.77432827758789	0.6566098052978515	0.1657984649658203	0.453948974609375	-4.852294921875	-2.445220947265625	10.01015714111328	0.2813186950683594	-0.086191259765625	3.76129150390625	-4.741668701171875	-1.537322998046875	
17	0.068	0.0	0.0	0.0	0.0	0.006	0.003	0.003	0.003	9.87668039855957	-0.5458779785156249	-0.07062894897460938	1.399993896484375	-3.177642822265625	-1.125335693359375	9.880870251464843	0.19213468322753904	0.010175357055664061	1.316070556640625	-5.130767822265625	-2.83050537109375	10.196904870605469	-0.3058592620849609	-0.4465186096191406	3.47137451171875	-4.364013671875	-2.201080322265625	
18	0.07200000000000001	0.0	0.0	0.0	0.0	0.003	0.003	0.003	0.003	9.673771807861328	-0.23403321228027343	0.39145197143554683	0.00762939453125	-1.96075439453125	-0.40435791015625	9.771934075927733	0.48243163452148435	0.18375497741699218	1.499176025390625	-5.138397216796875	-3.21197509765625	10.091559997558592	0.239420166015625	-0.13826514587402344	3.12042236328125	-4.69970703125	-1.45721435546875	
19	0.076	0.0	0.0	0.0	0.0	0.003	0.003	0.006	0.003	9.878476049804688	-0.5931634613037109	-0.08319850769042968	1.15966796875	-3.18145751953125	-1.216888427734375	9.900023864746093	0.1975216369628906	0.037708676147460936	1.338958740234375	-5.218505859375	-3.116607666015625	10.210671530151366	-0.35673604736328124	-0.4375403533935547	3.582000732421875	-4.50897216796875	-2.490997314453125	
20	0.08	0.0	0.0	0.0	0.0	0.003	0.006	0.003	0.003	9.639055883789062	-0.16998831787109375	0.4207809417724609	-0.1220703125	-2.109527587890625	-0.6866455078125	9.64025298461914	0.7930792999267577	0.3651157531738281	1.461029052734375	-4.795074462890625	-3.05938720703125	10.081384640502929	0.24779987182617186	-0.1406593475341797	3.162384033203125	-4.72259521484375	-1.2969970703125	
21	0.084	0.0	0.0	0.0	0.0	0.003	0.006	0.006	0.003	9.829993466186522	-0.16699556579589842	0.22744915771484372	-1.270294189453125	-1.201629638671875	-0.77056884765625	9.916184725952148	0.19033903198242186	0.03531447448730469	0.8392333984375	-5.130767822265625	-2.895355224609375	10.13884548034668	-0.40282442932128903	-0.3597287994384765	3.284454345703125	-4.673004150390625	-1.659393310546875	
22	0.088	0.0	0.0	0.0	0.0	0.006	0.003	0.003	0.006	9.622296472167967	-0.1484405029296875	0.4686649749755859	-0.057220458984375	-2.033233642578125	-0.476837158203125	9.642647186279296	0.8206126190185546	0.3758896606445312	1.1138916015625	-4.917144775390625	-3.01361083984375	10.099341152954102	0.22744915771484372	-0.12629413757324218	3.025054931640625	-4.50897216796875	-1.56402587890625	
23	0.092	0.0	0.0	0.0	0.0	0.003	0.006	0.006	0.0	9.82580361328125	-0.11432312927246092	0.22744915771484372	-1.056671142578125	-0.988006591796875	-0.530242919921875	9.836577520751952	0.2088940948486328	0.2711433380126953	0.90789794921875	-5.0048828125	-2.880096435546875	10.164583148193358	-0.39324762268066404	-0.40222587890625	3.36456298828125	-4.711151123046875	-1.552581787109375	
24	0.096	0.0	0.0	0.0	0.0	0.003	0.003	0.003	0.006	9.600150106811522	-0.07422025146484375	0.47165772705078124	-0.003814697265625	-1.983642578125	-0.659942626953125	9.617508068847656	0.8230068206787109	0.4129997863769531	1.4801025390625	-5.22613525390625	-3.154754638671875	10.072406384277343	0.23223756103515625	-0.10354922180175781	3.879547119140625	-4.5318603515625	-2.44903564453125	
25	0.1	0.0	0.0	0.0	0.0	0.003	0.006	0.003	0.006	9.815628256225585	-0.055066638183593745	0.23702596435546874	-0.911712646484375	-1.15966796875	-0.579833984375	9.83837317199707	0.18854338073730467	0.25258827514648435	0.896453857421875	-4.93621826171875	-3.143310546875	10.162188946533202	-0.4070142822265625	-0.40581718139648437	3.35693359375	-4.695892333984375	-1.5411376953125	
26	0.10400000000000001	0.0	0.0	0.0	0.0	0.006	0.003	0.006	0.006	10.005967288208007	0.5255272644042969	-0.07003039855957031	2.51007080078125	-3.143310546875	-1.15203857421875	9.777321029663085	0.6907271789550781	0.2454056701660156	1.018524169921875	-4.840850830078125	-3.19671630859375	9.835978970336914	0.4016273284912109	-0.09816226806640624	3.753662109375	-4.474639892578125	-2.605438232421875	
27	0.108	0.0	0.0	0.0	0.0	0.006	0.003	0.006	0.003	9.829394915771484	0.040102877807617184	0.2561795776367187	-0.507354736328125	-1.422882080078125	-0.766754150390625	9.829394915771484	0.20051438903808594	0.2507926239013672	0.8544921875	-5.14984130859375	-3.009796142578125	10.154407791137695	-0.39983167724609375	-0.43454760131835934	3.35693359375	-4.8675537109375	-1.842498779296875	
28	0.112	0.0	0.0	0.0	0.0	0.006	0.006	0.006	0.003	9.983820922851562	0.5985504150390625	-0.03950432739257812	2.712249755859375	-3.696441650390625	-1.0833740234375	9.783905084228515	0.6661866119384765	0.24779987182617186	1.232147216796875	-4.913330078125	-3.326416015625	9.843760125732421	0.32501287536621093	-0.1149216796875	3.89862060546875	-4.680633544921875	-2.76947021484375	
29	0.116	0.0	0.0	0.0	0.0	0.006	0.003	0.003	0.003	9.833584768676758	0.13646949462890623	0.2232593048095703	5.954742431640625	-5.908966064453125	-0.9307861328125	9.744999307250977	0.40282442932128903	0.24480711975097655	0.457763671875	-4.81414794921875	-2.29644775390625	9.810241302490233	0.03411737365722656	-0.12509703674316405	3.734588623046875	-4.791259765625	-2.010345458984375	
30	0.12	0.0	0.0	0.0	0.0	0.006	0.003	0.006	0.006	9.974244116210937	0.9941922393798828	-0.07362170104980469	3.47900390625	-4.131317138671875	-0.797271728515625	9.787496386718749	0.612915625	0.258573779296875	0.881195068359375	-4.7607421875	-3.509521484375	9.821015209960937	0.33758243408203126	-0.1005564697265625	3.932952880859375	-4.428863525390625	-2.72369384765625	
31	0.124	0.0	0.0	0.0	0.0	0.0	0.003	0.003	0.006	9.951499200439452	0.11192892761230468	-0.13407529296874998	6.03485107421875	-5.83648681640625	-1.2664794921875	9.74200655517578	0.4429273071289062	0.2759317413330078	0.16021728515625	-4.67681884765625	-2.60162353515625	9.840168823242188	0.061650692749023434	-0.15981296081542967	3.60870361328125	-4.688262939453125	-1.99127197265625	
32	0.128	0.0	0.0	0.0	0.0	0.006	0.003	0.006	0.006	9.93952819213867	0.014963760375976562	0.013168109130859374	1.781463623046875	-3.322601318359375	-1.02996826171875	9.75517466430664	0.49320554199218747	0.13646949462890623	0.5645751953125	-4.98199462890625	-3.505706787109375	9.961076007080077	0.06105214233398437	-0.17836802368164062	3.787994384765625	-4.367828369140625	-2.1514892578125	
33	0.132	0.0	0.0	0.0	0.0	0.006	0.003	0.003	0.003	9.997587582397461	0.36272155151367186	-0.201112939453125	4.55474853515625	-5.428314208984375	-0.545501708984375	9.698910925292969	0.3950432739257812	0.2567781280517578	0.225067138671875	-5.023956298828125	-2.422332763671875	9.835380419921874	-0.028131869506835935	-0.17298106994628906	3.63922119140625	-4.8675537109375	-1.934051513671875	
34	0.136	0.0	0.0	0.0	0.0	0.006	0.006	0.006	0.003	9.995791931152343	0.41898529052734373	-0.08559270935058594	8.205413818359375	-7.221221923828125	-0.972747802734375	9.760561618041992	0.35015199279785153	0.14784195251464843	0.7171630859375	-4.817962646484375	-3.162384033203125	10.011354241943359	-0.28909985046386716	-0.21906945190429686	3.57818603515625	-4.291534423828125	-2.796173095703125	
35	0.14	0.0	0.0	0.0	0.0	0.003	0.006	0.003	0.006	9.988609326171874	0.5093664031982421	-0.20171148986816406	7.236480712890625	-6.778717041015625	-1.06048583984375	9.734225399780273	0.4112041351318359	0.09516951599121093	0.690460205078125	-5.08880615234375	-2.3040771484375	9.842563024902343	0.14484920043945312	-0.09337386474609374	3.597259521484375	-4.41741943359375	-1.636505126953125	
36	0.14400000000000002	0.0	0.0	0.0	0.0	0.006	0.006	0.006	0.0	9.976039767456054	0.02154781494140625	-0.10175357055664062	6.549835205078125	-6.14166259765625	-0.732421875	9.707290631103515	0.5039794494628906	0.13287819213867186	0.621795654296875	-4.734039306640625	-3.19671630859375	9.983222372436522	-0.21308394775390624	-0.22864625854492185	3.795623779296875	-4.337310791015625	-2.49481201171875	
37	0.148	0.0	0.0	0.0	0.0	0.006	0.003	0.006	0.006	9.976039767456054	0.20470424194335937	-0.17298106994628906	5.5694580078125	-5.72967529296875	-0.57220458984375	9.734823950195311	0.3441664886474609	0.09995791931152344	0.92315673828125	-5.107879638671875	-2.72369384765625	9.992799179077148	0.1849520782470703	-0.05746083984375	3.696441650390625	-4.749298095703125	-1.819610595703125	
38	0.152	0.0	0.0	0.0	0.0	0.006	0.003	0.006	0.003	10.001178884887695	0.30047230834960936	-0.16819266662597654	6.866455078125	-6.561279296875	-0.66375732421875	9.943119494628906	0.4782417816162109	-0.03651157531738281	1.575469970703125	-5.268096923828125	-3.108978271484375	9.995791931152343	-0.15382745666503905	-0.20051438903808594	3.673553466796875	-4.302978515625	-2.44903564453125	
39	0.156	0.0	0.0	0.0	0.0	0.003	0.003	0.003	0.003	9.80066449584961	-0.3345896820068359	0.26874913635253905	3.79180908203125	-4.60052490234375	-0.965118408203125	9.740809454345703	0.316034619140625	0.07781155395507812	1.0833740234375	-5.05828857421875	-2.716064453125	10.005368737792969	0.07422025146484375	-0.07242460021972656	3.631591796875	-4.695892333984375	-1.65557861328125	
40	0.16	0.0	0.0	0.0	0.0	0.003	0.003	0.003	0.003	9.973645565795898	0.001197100830078125	-0.18435352783203124	6.381988525390625	-5.954742431640625	-0.79345703125	9.900622415161132	0.5039794494628906	-0.018555062866210937	1.44195556640625	-5.04302978515625	-3.0670166015625	10.22204398803711	-0.2699462371826172	-0.5225345123291015	3.631591796875	-4.44793701171875	-2.101898193359375	
41	0.164	0.0	0.0	0.0	0.0	0.003	0.006	0.003	0.003	9.781510882568359	-0.2914940521240234	0.29269115295410153	2.838134765625	-3.9825439453125	-0.74005126953125	9.751583361816406	0.4255693450927734	0.04908113403320312	1.39617919921875	-4.8065185546875	-3.139495849609375	10.007762939453125	0.06344634399414062	-0.06943184814453125	3.696441650390625	-4.70733642578125	-1.76239013671875	
42	0.168	0.0	0.0	0.0	0.0	0.006	0.006	0.003	0.006	9.989207876586914	0.04129997863769531	-0.24779987182617186	-0.637054443359375	-1.3427734375	-1.079559326171875	9.942520944213866	0.4255693450927734	-0.0652419952392578	1.941680908203125	-5.069732666015625	-2.9144287109375	10.231022244262695	-0.22565350646972654	-0.5363011718749999	3.65447998046875	-4.596710205078125	-2.208709716796875	
43	0.17200000000000001	0.0	0.0	0.0	0.0	0.003	0.003	0.006	0.006	9.725247143554688	-0.25258827514648435	0.3555389465332031	3.101348876953125	-3.917694091796875	-0.835418701171875	9.682151513671874	0.5901707092285156	0.38666356811523434	1.0833740234375	-4.978179931640625	-3.021240234375	10.078990438842773	0.2166752502441406	-0.11252747802734374	3.39508056640625	-4.566192626953125	-1.850128173828125	
44	0.176	0.0	0.0	0.0	0.0	0.006	0.003	0.003	0.003	9.744999307250977	-0.2262520568847656	0.23582886352539062	-1.77001953125	-0.926971435546875	-0.820159912109375	9.904213717651366	0.40880993347167965	-0.009576806640625	1.82342529296875	-4.974365234375	-2.96783447265625	10.230423693847655	-0.23403321228027343	-0.5303156677246094	3.4027099609375	-4.41741943359375	-2.147674560546875	
45	0.18	0.0	0.0	0.0	0.0	0.009000000000000001	0.006	0.006	0.006	9.70369932861328	-0.3555389465332031	0.3968389251708984	1.4190673828125	-2.86865234375	-0.87738037109375	9.68454571533203	0.6027402679443359	0.4207809417724609	1.110076904296875	-4.985809326171875	-3.047943115234375	10.071209283447265	0.23223756103515625	-0.13108254089355467	3.337860107421875	-4.512786865234375	-1.739501953125	
46	0.184	0.0	0.0	0.0	0.0	0.006	0.003	0.006	0.003	9.7683427734375	0.08858546142578125	0.22385785522460935	-1.56402587890625	-1.12152099609375	-0.89263916015625	9.88266590270996	0.3890577697753906	0.14185644836425781	0.789642333984375	-4.695892333984375	-3.330230712890625	10.123283169555663	-0.2555810272216797	-0.45549686584472654	3.620147705078125	-4.638671875	-1.80816650390625	
47	0.188	0.0	0.0	0.0	0.0	0.003	0.003	0.003	0.006	9.849745629882811	0.22565350646972654	0.054468087768554684	-0.133514404296875	-1.8463134765625	-1.194000244140625	9.692326870727538	0.5225345123291015	0.4800374328613281	0.919342041015625	-4.940032958984375	-2.971649169921875	10.06163247680664	0.19871873779296872	-0.13946224670410157	3.574371337890625	-4.726409912109375	-1.743316650390625	
48	0.192	0.0	0.0	0.0	0.0	0.003	0.006	0.003	0.003	9.78629928588867	0.10414777221679687	0.23223756103515625	-1.407623291015625	-0.8544921875	-1.003265380859375	9.87069489440918	0.5087678527832031	0.13287819213867186	0.885009765625	-4.978179931640625	-3.18145751953125	10.101735354614258	-0.21428104858398436	-0.49320554199218747	3.2806396484375	-4.718780517578125	-2.094268798828125	
49	0.196	0.0	0.0	0.0	0.0	0.003	0.003	0.003	0.006	9.93414123840332	0.17657237243652343	-0.037708676147460936	-0.09918212890625	-1.99127197265625	-1.03759765625	9.82580361328125	0.48183308410644526	0.09756371765136718	0.6256103515625	-5.035400390625	-3.0364990234375	10.092158547973632	0.19572598571777342	-0.14484920043945312	3.448486328125	-4.795074462890625	-2.25830078125	
50	0.2	0.0	0.0	0.0	0.0	0.003	0.003	0.006	0.003	9.816825357055663	0.2292448089599609	0.2280477081298828	-1.995086669921875	-0.789642333984375	-0.8544921875	9.858723886108399	0.5446808776855468	0.17238251953125	0.919342041015625	-5.27191162109375	-3.1280517578125	10.096348400878906	-0.13826514587402344	-0.5045779998779296	3.42559814453125	-4.833221435546875	-1.9683837890625	
51	0.20400000000000001	0.0	0.0	0.0	0.0	0.006	0.003	0.003	0.006	10.022726699829102	0.3226186737060547	-0.13646949462890623	1.171112060546875	-2.79998779296875	-1.18255615234375	9.846752877807617	0.49739539489746093	0.08140285644531249	0.415802001953125	-4.76837158203125	-2.872467041015625	9.817423907470703	0.13946224670410157	-0.07062894897460938	3.57818603515625	-4.619598388671875	-1.995086669921875	
52	0.20800000000000002	0.0	0.0	0.0	0.0	0.009000000000000001	0.006	0.003	0.003	10.01733974609375	0.44891281127929683	-0.3220201232910156	5.779266357421875	-6.06536865234375	-0.92315673828125	9.753977563476562	0.45010991210937495	0.054468087768554684	0.244140625	-4.970550537109375	-2.536773681640625	10.084377392578125	-0.14784195251464843	-0.4848258361816406	3.3721923828125	-4.779815673828125	-1.796722412109375	
53	0.212	0.0	0.0	0.0	0.0	0.003	0.006	0.003	0.003	10.077793338012695	0.25737667846679685	-0.24480711975097655	2.31170654296875	-3.53240966796875	-0.972747802734375	9.836577520751952	0.48542438659667964	0.10654197387695312	0.40435791015625	-4.673004150390625	-2.6092529296875	9.82580361328125	0.13108254089355467	-0.04848258361816406	3.4942626953125	-4.5318603515625	-2.399444580078125	
54	0.216	0.0	0.0	0.0	0.0	0.003	0.003	0.006	0.003	9.970054263305663	0.4375403533935547	-0.2657563842773437	6.6375732421875	-6.40869140625	-0.988006591796875	9.74799205932617	0.47764323120117186	0.033518823242187495	0.55694580078125	-4.84466552734375	-2.529144287109375	9.816226806640625	0.011971008300781249	-0.08738836059570312	3.665924072265625	-4.711151123046875	-1.766204833984375	
55	0.22	0.0	0.0	0.0	0.0	0.006	0.003	0.003	0.003	10.129268673706054	0.23882161560058593	-0.31543606872558594	5.458831787109375	-5.603790283203125	-0.682830810546875	9.64623848876953	0.45489831542968745	0.15981296081542967	1.41143798828125	-4.974365234375	-3.1890869140625	9.853336932373047	0.10594342346191406	-0.022744915771484374	3.5858154296875	-4.520416259765625	-2.22015380859375	
56	0.224	0.0	0.0	0.0	0.0	0.003	0.003	0.003	0.006	9.913191973876952	0.3298012786865234	-0.1849520782470703	6.90460205078125	-6.664276123046875	-0.919342041015625	9.74200655517578	0.4477157104492187	0.017357962036132813	0.530242919921875	-4.718780517578125	-2.742767333984375	9.860519537353515	-0.04668693237304687	-0.09995791931152344	3.570556640625	-4.795074462890625	-1.922607421875	
57	0.228	0.0	0.0	0.0	0.0	0.006	0.003	0.003	0.003	9.771335525512695	-0.14305354919433594	0.2292448089599609	4.177093505859375	-4.8675537109375	-0.8544921875	9.60793126220703	0.5428852264404297	0.19632453613281248	1.430511474609375	-5.077362060546875	-3.231048583984375	9.934739788818359	0.05386953735351562	-0.09816226806640624	3.62396240234375	-4.383087158203125	-2.307891845703125	
58	0.232	0.0	0.0	0.0	0.0	0.009000000000000001	0.006	0.006	0.006	9.852738381958007	0.23582886352539062	-0.07481880187988281	6.256103515625	-6.427764892578125	-0.827789306640625	9.718064538574218	0.42975919799804685	0.24061726684570311	1.47247314453125	-5.0201416015625	-3.2806396484375	9.865906491088866	-0.047285482788085934	-0.09277531433105468	3.65447998046875	-4.60052490234375	-2.010345458984375	
59	0.23600000000000002	0.0	0.0	0.0	0.0	0.0	0.003	0.003	0.003	9.767145672607422	-0.21966800231933592	0.29089550170898437	2.960205078125	-4.009246826171875	-0.84686279296875	9.640851535034178	0.5339069702148437	0.20649989318847656	1.678466796875	-4.955291748046875	-3.570556640625	9.97783541870117	0.05566518859863281	-0.09038111267089843	3.734588623046875	-4.077911376953125	-2.37274169921875	
60	0.24	0.0	0.0	0.0	0.0	0.003	0.003	0.003	0.006	9.834781869506836	-0.23882161560058593	0.23104046020507812	-0.1068115234375	-2.025604248046875	-0.80108642578125	9.698910925292969	0.39324762268066404	0.28790274963378903	1.1444091796875	-5.001068115234375	-3.253936767578125	9.85752678527832	-0.058657940673828124	-0.1131260284423828	3.665924072265625	-4.66156005859375	-2.1209716796875	
61	0.244	0.0	0.0	0.0	0.0	0.003	0.003	0.006	0.003	9.78031378173828	-0.19512743530273435	0.316034619140625	1.705169677734375	-3.131866455078125	-0.84686279296875	9.6151138671875	0.5333084197998047	0.28012159423828126	1.40380859375	-4.669189453125	-2.811431884765625	9.937133990478515	0.09457096557617187	-0.08798691101074219	3.849029541015625	-4.15802001953125	-2.43377685546875	
62	0.248	0.0	0.0	0.0	0.0	0.003	0.003	0.003	0.009000000000000001	9.887454306030273	-0.15442600708007811	0.19153613281249998	0.0762939453125	-2.166748046875	-0.812530517578125	9.760561618041992	0.3477577911376953	0.3298012786865234	1.293182373046875	-5.245208740234375	-3.35693359375	10.044873065185547	-0.08858546142578125	0.04908113403320312	3.421783447265625	-4.791259765625	-1.5716552734375	
63	0.252	0.0	0.0	0.0	0.0	0.006	0.003	0.003	0.006	9.815628256225585	-0.08439560852050781	0.277727392578125	1.239776611328125	-2.796173095703125	-0.942230224609375	9.867702142333984	0.5309142181396485	0.229843359375	1.079559326171875	-4.558563232421875	-2.803802490234375	9.924564431762695	0.09576806640624999	-0.086191259765625	3.597259521484375	-4.207611083984375	-2.506256103515625	
64	0.256	0.0	0.0	0.0	0.0	0.006	0.003	0.003	0.003	9.897629663085937	-0.07481880187988281	0.09576806640624999	1.07574462890625	-2.86865234375	-0.835418701171875	9.701305126953125	0.4423287567138672	0.3028665100097656	0.4730224609375	-5.329132080078125	-3.0059814453125	9.922768780517577	-0.028131869506835935	0.06823474731445311	3.47137451171875	-4.63104248046875	-1.60980224609375	
65	0.26	0.0	0.0	0.0	0.0	0.006	0.003	0.003	0.006	9.935338339233398	0.3555389465332031	-0.07362170104980469	2.64739990234375	-3.82232666015625	-0.911712646484375	9.866505041503906	0.507570751953125	0.22385785522460935	1.30462646484375	-4.64630126953125	-2.681732177734375	10.280701928710936	-0.08140285644531249	-0.5919663604736328	3.635406494140625	-4.5318603515625	-2.155303955078125	
66	0.264	0.0	0.0	0.0	0.0	0.006	0.006	0.003	0.006	9.942520944213866	-0.086191259765625	0.07302315063476562	2.838134765625	-4.032135009765625	-0.87738037109375	9.840767373657226	0.3477577911376953	0.36631285400390623	0.240325927734375	-4.913330078125	-2.872467041015625	10.064026678466796	-0.1197100830078125	0.027533319091796873	3.475189208984375	-4.543304443359375	-1.8463134765625	
67	0.268	0.0	0.0	0.0	0.0	0.006	0.003	0.003	0.006	9.871891995239258	0.4082113830566406	-0.05805939025878906	3.406524658203125	-4.02069091796875	-0.701904296875	9.764751470947266	0.5758054992675781	0.19931728820800781	1.03759765625	-4.70733642578125	-2.8533935546875	10.162188946533202	-0.06643909606933593	-0.5189432098388671	3.597259521484375	-4.364013671875	-2.185821533203125	
68	0.272	0.0	0.0	0.0	0.0	0.003	0.003	0.006	0.006	9.911396322631836	0.06883329772949218	0.06763619689941405	3.833770751953125	-4.57763671875	-0.9765625	9.764751470947266	0.36750995483398435	0.36212300109863277	0.67138671875	-4.9896240234375	-2.64739990234375	10.06223102722168	0.24660277099609373	-0.24361001892089842	3.30352783203125	-4.665374755859375	-1.91497802734375	
69	0.276	0.0	0.0	0.0	0.0	0.003	0.003	0.006	0.006	9.931747036743163	-0.10474632263183593	-0.08978256225585937	2.25830078125	-3.337860107421875	-0.698089599609375	9.962273107910155	0.5626373901367188	-0.022744915771484374	1.483917236328125	-4.909515380859375	-2.841949462890625	10.389638104248046	-0.24779987182617186	-0.5925649108886718	3.53240966796875	-4.39453125	-2.197265625	
70	0.28	0.0	0.0	0.0	0.0	0.003	0.003	0.006	0.003	9.673173257446289	0.4213794921875	0.33698388366699217	3.082275390625	-3.9825439453125	-0.934600830078125	9.740809454345703	0.3190273712158203	0.4171896392822265	0.32806396484375	-5.035400390625	-3.017425537109375	10.084975942993163	0.15502455749511718	-0.26695348510742184	3.368377685546875	-4.669189453125	-1.964569091796875	
71	0.28400000000000003	0.0	0.0	0.0	0.0	0.003	0.003	0.003	0.006	9.851541281127929	0.14185644836425781	-0.04249707946777344	2.193450927734375	-3.459930419921875	-0.942230224609375	9.87608184814453	0.7062894897460937	-0.05027823486328125	1.495361328125	-5.1116943359375	-2.819061279296875	10.204087475585936	-0.06105214233398437	-0.5524620330810547	3.627777099609375	-4.90570068359375	-1.80816650390625	
72	0.28800000000000003	0.0	0.0	0.0	0.0	0.003	0.003	0.006	0.006	9.735422500610351	0.13467384338378904	0.2472013214111328	2.03704833984375	-3.536224365234375	-0.873565673828125	9.79408044128418	0.33039982910156246	0.2699462371826172	0.28228759765625	-4.604339599609375	-2.9754638671875	10.168174450683592	0.1131260284423828	-0.20829554443359374	3.360748291015625	-4.76837158203125	-1.7852783203125	
73	0.292	0.0	0.0	0.0	0.0	0.006	0.003	0.006	0.003	9.861716638183593	0.09935936889648436	0.052073886108398436	1.056671142578125	-2.712249755859375	-1.03759765625	9.917381826782226	0.5033808990478515	-0.020949264526367185	1.06048583984375	-5.084991455078125	-2.9449462890625	10.137049829101562	-0.33758243408203126	-0.46686932373046874	3.204345703125	-4.634857177734375	-1.934051513671875	
74	0.296	0.0	0.0	0.0	0.0	0.006	0.003	0.003	0.003	9.72345149230957	0.0430956298828125	0.22206220397949217	2.300262451171875	-3.475189208984375	-0.904083251953125	9.618705169677733	0.5141548065185546	0.3687070556640625	0.34332275390625	-4.894256591796875	-2.780914306640625	9.917980377197265	0.3220201232910156	-0.23343466186523437	3.261566162109375	-4.543304443359375	-2.09808349609375	
75	0.3	0.0	0.0	0.0	0.0	0.006	0.003	0.003	0.006	9.828197814941406	0.1801636749267578	0.13407529296874998	0.91552734375	-2.58636474609375	-0.232696533203125	9.787496386718749	0.43574470214843747	0.09696516723632811	0.965118408203125	-5.344390869140625	-3.246307373046875	10.115502014160155	-0.23044190979003906	-0.42796354675292964	3.047943115234375	-4.726409912109375	-1.54876708984375	
76	0.304	0.0	0.0	0.0	0.0	0.006	0.003	0.006	0.003	9.77432827758789	0.35015199279785153	0.11013327636718749	2.552032470703125	-3.803253173828125	-1.110076904296875	9.76774422302246	0.33518823242187495	0.27174188842773433	0.316619873046875	-4.848480224609375	-2.90679931640625	9.983222372436522	-0.03232172241210937	-0.10654197387695312	3.643035888671875	-4.44793701171875	-2.44140625	
77	0.308	0.0	0.0	0.0	0.0	-0.003	0.003	0.006	0.006	9.817423907470703	0.18315642700195311	0.17118541870117188	1.89208984375	-3.3111572265625	-0.95367431640625	9.76235726928711	0.5883750579833984	-0.016759411621093748	0.91552734375	-4.993438720703125	-3.1585693359375	10.014346994018554	-0.04129997863769531	-0.5380968231201172	3.36456298828125	-4.795074462890625	-1.8463134765625	
78	0.312	0.0	0.0	0.0	0.0	0.003	0.006	0.006	0.003	9.819219558715819	0.029927520751953124	0.028131869506835935	1.56402587890625	-3.07464599609375	-0.408172607421875	9.567229833984374	0.4896142395019531	0.2747346405029297	0.881195068359375	-4.726409912109375	-3.27301025390625	9.74799205932617	0.1562216583251953	-0.032920272827148434	3.902435302734375	-4.50897216796875	-2.391815185546875	
79	0.316	0.0	0.0	0.0	0.0	0.003	0.006	0.003	0.003	9.87608184814453	0.43634325256347656	0.0796072052001953	1.728057861328125	-3.200531005859375	-0.606536865234375	9.899425314331054	0.37289690856933594	-0.022146365356445312	0.675201416015625	-4.978179931640625	-3.421783447265625	9.99220062866211	-0.11252747802734374	-0.12629413757324218	3.726959228515625	-4.886627197265625	-2.017974853515625	
80	0.32	0.0	0.0	0.0	0.0	0.003	0.003	0.006	0.006	9.874286196899414	0.023343466186523436	-0.033518823242187495	3.414154052734375	-4.199981689453125	-1.445770263671875	9.695918173217773	0.48123453369140623	0.06883329772949218	0.9307861328125	-4.703521728515625	-3.1280517578125	9.78629928588867	0.11552023010253906	-0.16699556579589842	3.936767578125	-4.41741943359375	-2.593994140625	
81	0.324	0.0	0.0	0.0	0.0	0.003	0.006	0.006	0.003	9.79408044128418	-0.0053869537353515625	0.17836802368164062	2.285003662109375	-3.734588623046875	-0.522613525390625	9.726444244384766	0.5919663604736328	0.12988544006347655	0.858306884765625	-5.16510009765625	-2.704620361328125	9.652223992919922	0.19153613281249998	-0.022146365356445312	3.627777099609375	-4.5013427734375	-1.89208984375	
82	0.328	0.0	0.0	0.0	0.0	0.003	0.006	0.003	0.006	9.885658654785155	0.15562310791015624	0.04189852905273437	2.750396728515625	-3.932952880859375	-0.408172607421875	9.734823950195311	0.2765302917480469	0.27832594299316404	0.904083251953125	-4.96673583984375	-3.37982177734375	9.885060104370117	-0.08080430603027343	0.0	3.60107421875	-4.180908203125	-1.99127197265625	
83	0.332	0.0	0.0	0.0	0.0	0.006	0.003	0.003	0.006	10.06881508178711	0.32441432495117184	-0.3094505645751953	5.649566650390625	-6.153106689453125	-1.36566162109375	9.841365924072266	0.3716998077392578	0.0005985504150390625	1.255035400390625	-5.176544189453125	-2.666473388671875	9.92755718383789	0.06643909606933593	-0.18555062866210936	3.74603271484375	-4.566192626953125	-1.827239990234375	
84	0.336	0.0	0.0	0.0	0.0	0.003	0.003	0.003	0.006	9.745597857666015	0.23223756103515625	0.20290859069824219	4.98199462890625	-4.85992431640625	-1.308441162109375	9.582193594360351	0.536899722290039	0.2567781280517578	1.04522705078125	-4.638671875	-3.849029541015625	9.836577520751952	-0.105344873046875	-0.16879121704101563	3.650665283203125	-4.29534912109375	-2.227783203125	
85	0.34	0.0	0.0	0.0	0.0	0.003	0.003	0.006	0.003	9.989806427001952	-0.3315969299316406	-0.17178396911621094	1.605987548828125	-3.574371337890625	-0.370025634765625	9.791686239624022	0.2932897033691406	0.11911153259277343	0.823974609375	-5.401611328125	-2.567291259765625	9.853336932373047	0.09696516723632811	0.016160861206054686	3.665924072265625	-4.87518310546875	-2.048492431640625	
86	0.34400000000000003	0.0	0.0	0.0	0.0	0.003	0.006	0.003	0.006	10.040084661865233	0.4034229797363281	-0.29448680419921874	4.974365234375	-5.435943603515625	-0.89263916015625	9.94671079711914	0.37708676147460934	0.0987608184814453	1.10626220703125	-4.50897216796875	-2.849578857421875	10.172962854003906	-0.3848679168701172	-0.26815058593749996	3.772735595703125	-4.375457763671875	-2.079010009765625	
87	0.34800000000000003	0.0	0.0	0.0	0.0	0.006	0.003	0.006	0.003	10.007762939453125	0.7709329345703124	-0.21727380065917967	6.572723388671875	-6.427764892578125	-1.346588134765625	9.708487731933593	0.47704468078613277	0.037110125732421874	1.56402587890625	-5.451202392578125	-2.727508544921875	9.91438907470703	0.21607669982910155	-0.07481880187988281	3.780364990234375	-4.459381103515625	-1.983642578125	
88	0.352	0.0	0.0	0.0	0.0	0.006	0.003	0.003	0.003	9.865906491088866	-0.527322915649414	0.025737667846679687	3.53240966796875	-4.245758056640625	-0.980377197265625	9.745597857666015	0.4626794708251953	0.2346317626953125	1.194000244140625	-4.8065185546875	-2.655029296875	9.952696301269532	-0.24839842224121092	-0.12689268798828124	3.726959228515625	-4.062652587890625	-1.8768310546875	
89	0.356	0.0	0.0	0.0	0.0	0.0	0.003	0.003	0.003	10.047865817260742	-0.7170633972167968	-0.0909796630859375	2.5634765625	-4.05120849609375	-0.560760498046875	9.961076007080077	0.297479556274414	0.25318682556152344	0.179290771484375	-5.283355712890625	-2.643585205078125	10.190919366455077	0.0005985504150390625	-0.14305354919433594	3.559112548828125	-4.53948974609375	-1.99127197265625	
90	0.36	0.0	0.0	0.0	0.0	0.006	0.003	0.006	0.006	10.02332525024414	0.316034619140625	-0.297479556274414	3.77655029296875	-4.421234130859375	-0.278472900390625	9.759963067626952	0.5219359619140624	0.1370680450439453	1.2054443359375	-4.486083984375	-3.1280517578125	10.309432348632813	-0.19572598571777342	-0.6769605194091797	3.787994384765625	-4.47845458984375	-1.766204833984375	
91	0.364	0.0	0.0	0.0	0.0	0.003	0.003	0.003	4.542	9.598354455566406	0.7176619476318359	0.41838674011230464	6.6986083984375	-6.198883056640625	-1.880645751953125	9.710881933593749	0.4740519287109375	0.4207809417724609	0.63323974609375	-5.176544189453125	-2.590179443359375	9.879074600219726	0.20290859069824219	-0.017357962036132813	3.4637451171875	-4.451751708984375	-2.01416015625	
92	0.368	0.0	0.0	0.0	0.0	4.539	4.602	4.605	4.563	9.944316595458984	0.047285482788085934	0.003591302490234375	6.725311279296875	-6.29425048828125	-1.758575439453125	10.011354241943359	0.5099649536132812	-0.11133037719726561	1.2664794921875	-5.19561767578125	-3.025054931640625	10.405200415039062	-0.23223756103515625	-0.6536170532226562	3.60107421875	-4.64630126953125	-1.7242431640625	
93	0.372	0.0	0.0	0.0	0.0	4.563	4.6080000000000005	4.614	4.542	9.696516723632811	-0.7428010650634765	0.354940396118164	-0.23651123046875	-2.0904541015625	-0.652313232421875	9.861716638183593	0.4483142608642578	0.22385785522460935	0.232696533203125	-4.940032958984375	-2.58636474609375	10.129268673706054	0.13407529296874998	-0.23822306518554687	3.08990478515625	-4.726409912109375	-2.285003662109375	
94	0.376	0.0	0.0	0.0	0.0	4.5600000000000005	4.611	4.611	4.524	9.827599264526366	-0.5614402893066406	0.06943184814453125	-2.12860107421875	-0.751495361328125	-0.28228759765625	9.81862100830078	0.5823895538330078	-0.09696516723632811	1.80816650390625	-4.955291748046875	-3.284454345703125	10.102333905029296	-0.03950432739257812	-0.5698199951171875	3.543853759765625	-4.5928955078125	-1.5716552734375	
95	0.38	0.0	0.0	0.0	0.0	4.566	4.6080000000000005	4.611	4.533	9.689334118652344	0.6332663391113281	0.30346506042480464	3.89862060546875	-4.46319580078125	-0.514984130859375	9.611522564697266	0.6979097839355468	0.39743747558593745	1.0986328125	-5.14984130859375	-2.86865234375	9.997587582397461	0.10893617553710937	-0.16879121704101563	3.34930419921875	-5.054473876953125	-2.063751220703125	
96	0.384	0.0	0.0	0.0	0.0	4.563	4.602	4.6080000000000005	4.542	9.932345587158203	0.16460136413574217	0.051475335693359374	1.922607421875	-3.124237060546875	-1.861572265625	10.134655627441406	0.41838674011230464	-0.2819172454833984	1.59454345703125	-5.199432373046875	-3.0975341796875	10.461464154052734	-0.21248539733886718	-0.7266402038574218	3.570556640625	-4.848480224609375	-1.644134521484375	
97	0.388	0.0	0.0	0.0	0.0	4.563	4.611	4.611	4.557	9.586383447265625	0.26815058593749996	0.3848679168701172	5.229949951171875	-4.98199462890625	-1.48773193359375	9.525929855346678	0.7649474304199219	0.3363853332519531	0.194549560546875	-4.779815673828125	-2.777099609375	9.951499200439452	0.1514332550048828	-0.20530279235839843	3.276824951171875	-4.550933837890625	-2.109527587890625	
98	0.392	0.0	0.0	0.0	0.0	4.554	4.6080000000000005	4.611	4.557	9.7162688873291	-0.6105214233398437	0.31483751831054685	-4.89044189453125	0.7476806640625	-0.81634521484375	9.698910925292969	0.4423287567138672	0.26276363220214843	1.262664794921875	-5.19561767578125	-3.665924072265625	9.938929641723632	0.18914193115234373	-0.17178396911621094	3.276824951171875	-4.87518310546875	-1.45721435546875	
99	0.396	0.0	0.0	0.0	0.0	4.545	4.6080000000000005	4.602	4.5600000000000005	9.911994873046874	-0.0383072265625	0.1005564697265625	-2.124786376953125	-0.629425048828125	-0.621795654296875	9.697115274047851	0.6015431671142578	0.33578678283691404	1.01470947265625	-4.95147705078125	-3.154754638671875	10.173561404418944	-0.04189852905273437	-0.20350714111328125	3.47137451171875	-4.8828125	-1.93023681640625	
100	0.4	0.0	0.0	0.0	0.0	4.5600000000000005	4.611	4.614	4.533	9.893439810180663	-0.11552023010253906	0.02693476867675781	-3.73077392578125	0.446319580078125	-0.911712646484375	9.936535440063476	0.3848679168701172	0.1005564697265625	1.049041748046875	-5.161285400390625	-3.482818603515625	10.117896215820313	0.1197100830078125	-0.29568390502929687	3.086090087890625	-4.6844482421875	-1.827239990234375	
101	0.404	0.0	0.0	0.0	0.0	4.566	4.6080000000000005	4.611	4.521	9.815628256225585	0.3429693878173828	0.14544775085449219	1.13677978515625	-2.391815185546875	-1.24359130859375	9.571419686889648	0.6171054779052734	0.3651157531738281	0.545501708984375	-4.7149658203125	-3.143310546875	9.634267480468749	-0.06584054565429687	0.0939724151611328	3.753662109375	-4.2572021484375	-2.349853515625	
102	0.40800000000000003	0.0	0.0	0.0	0.0	4.563	4.605	4.611	4.548	9.9078050201416	-0.1083376251220703	0.04848258361816406	-1.4190673828125	-1.09100341796875	-0.93841552734375	9.944316595458984	0.34057518615722654	0.08319850769042968	0.446319580078125	-5.161285400390625	-2.857208251953125	10.16338604736328	0.0718260498046875	-0.31064766540527344	3.246307373046875	-4.93621826171875	-1.41143798828125	
103	0.41200000000000003	0.0	0.0	0.0	0.0	4.5600000000000005	4.614	4.611	4.548	9.949104998779296	0.1897404815673828	0.0143652099609375	1.52587890625	-2.81524658203125	-1.220703125	9.74799205932617	0.5207388610839844	0.2136824981689453	0.904083251953125	-4.72259521484375	-3.604888916015625	9.891045608520507	-0.2663549346923828	-0.04608838195800781	3.627777099609375	-4.161834716796875	-2.391815185546875	
104	0.41600000000000004	0.0	0.0	0.0	0.0	4.5600000000000005	4.611	4.611	4.557	9.87608184814453	0.5787982513427734	0.04249707946777344	3.215789794921875	-4.123687744140625	-0.89263916015625	9.751583361816406	0.4207809417724609	0.12150573425292968	0.86212158203125	-5.001068115234375	-2.826690673828125	9.961674557495117	0.1927332336425781	-0.2232593048095703	3.692626953125	-4.5623779296875	-2.216339111328125	
105	0.42	0.0	0.0	0.0	0.0	4.548	4.6080000000000005	4.6080000000000005	4.563	9.78629928588867	0.14245499877929688	0.20649989318847656	0.20599365234375	-2.315521240234375	-1.049041748046875	9.658808047485351	0.613514175415039	0.2705447875976562	1.064300537109375	-5.30242919921875	-3.437042236328125	9.74799205932617	-0.11731588134765625	0.07422025146484375	3.543853759765625	-4.543304443359375	-2.239227294921875	
106	0.424	0.0	0.0	0.0	0.0	4.563	4.6080000000000005	4.614	4.548	9.97184991455078	0.2280477081298828	-0.031124621582031248	1.8310546875	-3.452301025390625	-0.926971435546875	9.884461553955077	0.22565350646972654	0.1610100616455078	0.6561279296875	-4.978179931640625	-2.96783447265625	10.017938296508788	0.08858546142578125	-0.07900865478515624	3.662109375	-4.58526611328125	-2.410888671875	
107	0.428	0.0	0.0	0.0	0.0	4.5600000000000005	1.3860000000000001	0.003	0.003	9.803058697509766	0.011971008300781249	0.14305354919433594	5.0506591796875	-4.802703857421875	-0.640869140625	9.651625442504882	0.6075286712646484	0.28909985046386716	0.96893310546875	-4.680633544921875	-3.528594970703125	9.73063409729004	-0.06464344482421874	0.016759411621093748	3.82232666015625	-4.207611083984375	-2.254486083984375	
108	0.432	0.0	0.0	0.0	0.0	0.006	0.006	0.003	0.006	9.883264453125	0.47884033203125	-0.014963760375976562	1.93023681640625	-3.513336181640625	-0.904083251953125	9.701305126953125	0.36810850524902344	0.3220201232910156	0.629425048828125	-4.993438720703125	-2.681732177734375	9.698910925292969	0.2376245147705078	0.0939724151611328	3.734588623046875	-4.81414794921875	-2.03704833984375	
109	0.436	0.0	0.0	0.0	0.0	0.003	0.003	0.003	0.003	10.041880313110351	0.22206220397949217	-0.07721300354003906	6.275177001953125	-5.878448486328125	-0.60272216796875	9.861716638183593	0.36391865234375	0.15203180541992187	0.823974609375	-4.817962646484375	-2.72369384765625	10.10712230834961	-0.19333178405761717	-0.2663549346923828	3.757476806640625	-4.352569580078125	-1.739501953125	
110	0.44	0.0	0.0	0.0	0.0	0.003	0.003	0.006	0.006	10.040084661865233	0.2950853546142578	-0.27293898925781246	3.200531005859375	-3.95965576171875	-0.827789306640625	9.785102185058593	0.3124433166503906	0.15263035583496093	0.55694580078125	-4.940032958984375	-2.819061279296875	9.86411083984375	0.05686228942871093	-0.0796072052001953	3.429412841796875	-4.4097900390625	-2.43377685546875	
111	0.444	0.0	0.0	0.0	0.0	0.006	0.006	0.006	0.003	9.950900650024414	0.4800374328613281	0.023942016601562498	7.293701171875	-6.549835205078125	-0.48828125	9.651026892089844	0.4991910461425781	0.2316390106201172	0.77056884765625	-4.8065185546875	-2.834320068359375	9.87608184814453	-0.016160861206054686	-0.14604630126953125	3.7078857421875	-4.322052001953125	-1.97601318359375	
112	0.448	0.0	0.0	0.0	0.0	0.006	0.003	0.003	0.003	9.846154327392577	0.076614453125	0.19333178405761717	6.67572021484375	-6.534576416015625	-0.90789794921875	9.789890588378906	0.4955997436523437	0.1197100830078125	0.7781982421875	-5.115509033203125	-2.6397705078125	10.06163247680664	-0.03890577697753906	-0.19153613281249998	3.696441650390625	-4.619598388671875	-1.9989013671875	
113	0.452	0.0	0.0	0.0	0.0	0.003	0.003	0.006	0.006	10.04846436767578	0.2262520568847656	-0.06584054565429687	7.71331787109375	-6.5765380859375	-0.988006591796875	9.88266590270996	0.35015199279785153	0.12868833923339842	1.01470947265625	-4.909515380859375	-3.055572509765625	10.198101971435547	-0.15083470458984374	-0.3321954803466797	3.734588623046875	-4.1961669921875	-2.033233642578125	
114	0.456	0.0	0.0	0.0	0.0	0.003	0.003	0.003	0.006	9.82460651245117	-0.031124621582031248	0.24660277099609373	4.94384765625	-5.2947998046875	-0.77056884765625	9.738415252685547	0.5279214660644531	0.20290859069824219	0.70953369140625	-4.8828125	-2.559661865234375	10.015544094848632	-0.025737667846679687	-0.21727380065917967	3.543853759765625	-4.596710205078125	-2.12860107421875	
115	0.46	0.0	0.0	0.0	0.0	0.006	0.003	0.006	0.006	9.90840357055664	0.2998737579345703	0.07721300354003906	6.542205810546875	-6.092071533203125	-0.67901611328125	9.81862100830078	0.48542438659667964	0.03172317199707031	1.41143798828125	-5.115509033203125	-2.887725830078125	10.10712230834961	0.11911153259277343	-0.55545478515625	3.662109375	-4.730224609375	-1.811981201171875	
116	0.464	0.0	0.0	0.0	0.0	0.0	0.003	0.003	0.006	9.911396322631836	-0.09157821350097656	0.11252747802734374	4.8065185546875	-5.39398193359375	-0.988006591796875	9.91558617553711	0.3286041778564453	0.055066638183593745	0.530242919921875	-5.06591796875	-2.628326416015625	10.181342559814453	-0.17178396911621094	-0.2753331909179687	3.627777099609375	-4.795074462890625	-2.01416015625	
117	0.468	0.0	0.0	0.0	0.0	0.003	0.003	0.003	0.003	9.928155734252929	-0.20290859069824219	-0.15981296081542967	0.827789306640625	-2.6702880859375	-1.02996826171875	9.903615167236328	0.4997895965576172	-0.08020575561523437	1.590728759765625	-5.008697509765625	-2.933502197265625	10.263942517089843	0.03950432739257812	-0.5781997009277343	3.559112548828125	-4.39453125	-2.166748046875	
118	0.47200000000000003	0.0	0.0	0.0	0.0	0.003	0.003	0.003	0.006	9.777919580078125	-0.1274912384033203	0.24361001892089842	4.09698486328125	-4.947662353515625	-0.713348388671875	9.507374792480467	0.6757634185791015	0.37888241271972656	1.16729736328125	-5.0201416015625	-2.964019775390625	9.874884747314452	-0.02633621826171875	-0.040102877807617184	3.6773681640625	-4.695892333984375	-2.071380615234375	
119	0.47600000000000003	0.0	0.0	0.0	0.0	0.006	0.003	0.003	0.003	9.846154327392577	-0.18076222534179687	0.03411737365722656	0.949859619140625	-2.582550048828125	-1.056671142578125	9.955090502929687	0.4291606475830078	-0.04908113403320312	1.834869384765625	-5.252838134765625	-3.021240234375	10.284293231201172	0.007781155395507812	-0.5321113189697265	3.36456298828125	-4.398345947265625	-1.811981201171875	
120	0.48	0.0	0.0	0.0	0.0	0.003	0.006	0.003	0.006	9.8311905670166	-0.33518823242187495	0.16759411621093748	-0.3509521484375	-1.270294189453125	-1.186370849609375	9.712079034423828	0.5943605621337891	0.24181436767578124	1.148223876953125	-4.99725341796875	-3.0670166015625	10.206481677246094	-0.0796072052001953	-0.26755203552246093	3.4332275390625	-4.638671875	-1.689910888671875	
121	0.484	0.0	0.0	0.0	0.0	0.003	0.006	0.003	0.006	9.742605105590819	-0.17657237243652343	0.19871873779296872	-0.988006591796875	-1.30462646484375	-0.911712646484375	9.78031378173828	0.41898529052734373	0.2280477081298828	0.583648681640625	-4.92095947265625	-3.246307373046875	10.142436782836914	0.09277531433105468	-0.5153519073486328	3.559112548828125	-4.730224609375	-2.0751953125	
122	0.488	0.0	0.0	0.0	0.0	0.006	0.006	0.003	0.006	9.654019644165038	0.10773907470703124	0.4207809417724609	-1.392364501953125	-1.0528564453125	-0.888824462890625	9.619902270507811	0.6272808349609375	0.3082534637451172	0.850677490234375	-4.825592041015625	-2.7618408203125	10.070610733032225	0.037110125732421874	-0.1897404815673828	3.4637451171875	-4.81414794921875	-1.377105712890625	
123	0.492	0.0	0.0	0.0	0.0	0.006	0.006	0.003	0.003	9.816226806640625	-0.3447650390625	0.1083376251220703	-1.68609619140625	-0.713348388671875	-0.9765625	9.896432562255859	0.3321954803466797	0.14544775085449219	0.743865966796875	-5.008697509765625	-3.376007080078125	10.16338604736328	-0.19153613281249998	-0.5512649322509765	3.47900390625	-4.79888916015625	-2.384185791015625	
124	0.496	0.0	0.0	0.0	0.0	0.003	0.006	0.006	0.006	9.756371765136718	0.08978256225585937	0.30346506042480464	-1.2359619140625	-1.056671142578125	-1.1138916015625	9.597755905151367	0.6200982299804687	0.34057518615722654	0.87738037109375	-4.993438720703125	-3.143310546875	10.052055670166014	0.06284779357910156	-0.16160861206054686	3.31878662109375	-4.69970703125	-1.735687255859375	
125	0.5	0.0	0.0	0.0	0.0	0.003	0.003	0.003	0.003	9.920374578857421	0.4848258361816406	-0.0939724151611328	1.922607421875	-3.16619873046875	-0.63323974609375	9.764751470947266	0.45669396667480466	0.26276363220214843	0.888824462890625	-5.25665283203125	-3.246307373046875	9.963470208740233	-0.08379705810546874	-0.40402153015136716	3.41796875	-4.50897216796875	-2.079010009765625	
126	0.504	0.0	0.0	0.0	0.0	0.003	0.003	0.006	0.006	9.855731134033203	0.030526071166992186	0.1562216583251953	-0.972747802734375	-1.216888427734375	-1.033782958984375	9.84435867614746	0.38307226562499996	0.2059013427734375	0.6561279296875	-4.95147705078125	-3.13568115234375	9.828796365356444	0.14185644836425781	0.020350714111328123	3.963470458984375	-4.5623779296875	-2.13623046875	
127	0.508	0.0	0.0	0.0	0.0	0.003	0.003	0.003	0.003	10.022128149414062	0.37289690856933594	-0.2537853759765625	3.22723388671875	-3.734588623046875	-1.03759765625	9.849745629882811	0.4734533782958984	0.19812018737792966	0.629425048828125	-4.87518310546875	-3.185272216796875	10.005967288208007	-0.18435352783203124	-0.41898529052734373	3.376007080078125	-4.7607421875	-2.368927001953125	
128	0.512	0.0	0.0	0.0	0.0	0.009000000000000001	0.006	0.006	0.003	9.884461553955077	0.3142389678955078	0.09157821350097656	-0.629425048828125	-1.605987548828125	-1.079559326171875	9.745597857666015	0.4584896179199218	0.239420166015625	0.64849853515625	-4.98199462890625	-2.857208251953125	9.688137017822266	0.26336218261718747	0.1562216583251953	3.658294677734375	-4.611968994140625	-2.349853515625	
129	0.516	0.0	0.0	0.0	0.0	0.003	0.003	0.003	0.003	10.024522351074218	0.4291606475830078	-0.2920926025390625	4.08935546875	-4.76837158203125	-0.759124755859375	9.746196408081055	0.35314474487304687	0.03890577697753906	0.48065185546875	-5.27191162109375	-2.712249755859375	10.057442623901366	-0.22685060729980466	-0.44891281127929683	3.627777099609375	-5.5389404296875	-2.330780029296875	
130	0.52	0.0	0.0	0.0	0.0	0.009000000000000001	0.006	0.003	0.009000000000000001	9.945513696289062	0.12210428466796874	-0.07362170104980469	6.359100341796875	-6.38580322265625	-0.675201416015625	9.802460147094726	0.4423287567138672	0.15442600708007811	0.4425048828125	-4.924774169921875	-2.62451171875	9.810241302490233	0.20829554443359374	0.037708676147460936	3.74603271484375	-4.49371337890625	-2.26593017578125	
131	0.524	0.0	0.0	0.0	0.0	0.006	0.003	0.006	0.003	9.934739788818359	0.6218938812255859	-0.19393033447265623	6.076812744140625	-6.17218017578125	-0.919342041015625	9.643844287109374	0.44532150878906246	0.07242460021972656	0.7781982421875	-4.894256591796875	-2.971649169921875	9.742605105590819	-0.12629413757324218	0.047285482788085934	3.45611572265625	-4.69207763671875	-2.109527587890625	
132	0.528	0.0	0.0	0.0	0.0	0.006	0.006	0.003	0.003	9.847949978637695	0.1227028350830078	0.14724340209960937	6.175994873046875	-6.08062744140625	-0.759124755859375	9.714473236083984	0.5351040710449219	0.1897404815673828	1.270294189453125	-4.978179931640625	-3.223419189453125	9.852738381958007	0.22685060729980466	0.037110125732421874	3.7994384765625	-4.5623779296875	-2.197265625	
133	0.532	0.0	0.0	0.0	0.0	0.003	0.003	0.003	0.006	9.94072529296875	0.2932897033691406	-0.19393033447265623	3.1280517578125	-4.05120849609375	-1.026153564453125	9.746196408081055	0.41539398803710936	0.0017956512451171875	1.220703125	-5.115509033203125	-3.0670166015625	9.9461122467041	-0.2376245147705078	-0.07601590270996093	3.6773681640625	-4.7760009765625	-2.23541259765625	
134	0.536	0.0	0.0	0.0	0.0	0.003	0.006	0.003	0.006	9.795876092529296	0.11851298217773437	0.21128829650878905	4.405975341796875	-4.82177734375	-0.621795654296875	9.661800799560547	0.5608417388916015	0.2597708801269531	1.35040283203125	-4.871368408203125	-3.009796142578125	9.995193380737303	0.13646949462890623	-0.16460136413574217	3.749847412109375	-4.34112548828125	-2.18963623046875	
135	0.54	0.0	0.0	0.0	0.0	-0.006	0.003	0.003	0.003	9.855132583618163	-0.13587094421386717	0.1975216369628906	1.8157958984375	-3.44085693359375	-0.93841552734375	9.815029705810547	0.3573345977783203	0.3112462158203125	0.652313232421875	-5.092620849609375	-3.093719482421875	9.846154327392577	-0.1352723937988281	0.04967968444824218	3.7384033203125	-4.680633544921875	-2.117156982421875	
136	0.544	0.0	0.0	0.0	0.0	0.003	0.003	0.003	0.006	9.854534033203125	-0.1610100616455078	0.22086510314941404	3.59344482421875	-4.49371337890625	-0.957489013671875	9.832986218261718	0.3387795349121094	0.22864625854492185	1.02996826171875	-4.8370361328125	-3.154754638671875	10.139444030761718	-0.05027823486328125	-0.12449848632812499	3.6468505859375	-4.3487548828125	-2.391815185546875	
137	0.548	0.0	0.0	0.0	0.0	0.006	0.003	0.003	0.003	9.90122096557617	-0.2885013000488281	0.03531447448730469	1.308441162109375	-2.758026123046875	-0.911712646484375	9.746794958496093	0.4495113616943359	0.2885013000488281	0.579833984375	-4.932403564453125	-3.269195556640625	10.022128149414062	-0.003591302490234375	-0.12988544006347655	3.757476806640625	-4.421234130859375	-1.7547607421875	
138	0.552	0.0	0.0	0.0	0.0	0.003	0.006	0.003	0.003	9.842563024902343	0.0939724151611328	-0.001197100830078125	1.3275146484375	-2.87628173828125	-0.514984130859375	9.816825357055663	0.661398208618164	0.05686228942871093	1.049041748046875	-4.547119140625	-2.52532958984375	9.97244846496582	0.06883329772949218	-0.1149216796875	3.753662109375	-4.276275634765625	-2.0904541015625	
139	0.556	0.0	0.0	0.0	0.0	0.003	0.003	0.006	0.003	9.980828170776366	-0.16998831787109375	0.005985504150390624	2.490997314453125	-3.818511962890625	-0.904083251953125	9.875483297729492	0.3872621185302734	0.24899697265624998	0.49591064453125	-5.2490234375	-3.0975341796875	10.189722265624999	-0.006584054565429687	-0.13587094421386717	3.559112548828125	-4.428863525390625	-1.346588134765625	
140	0.56	0.0	0.0	0.0	0.0	0.006	0.003	0.003	0.006	9.911994873046874	0.14185644836425781	-0.1083376251220703	2.521514892578125	-3.89862060546875	-1.117706298828125	9.9461122467041	0.5147533569335937	0.017357962036132813	1.27410888671875	-4.756927490234375	-2.834320068359375	10.022128149414062	-0.07003039855957031	-0.15502455749511718	3.673553466796875	-4.344940185546875	-2.407073974609375	
141	0.5640000000000001	0.0	0.0	0.0	0.0	0.006	0.003	0.003	0.0	9.888052856445311	0.03651157531738281	0.04369418029785156	3.51715087890625	-4.581451416015625	-0.835418701171875	9.522937103271484	0.6625953094482422	0.5141548065185546	0.26702880859375	-4.81414794921875	-2.819061279296875	9.944316595458984	0.26276363220214843	-0.14604630126953125	3.662109375	-4.596710205078125	-1.636505126953125	
142	0.5680000000000001	0.0	0.0	0.0	0.0	0.009000000000000001	0.006	0.003	0.003	9.874286196899414	-0.10235212097167969	-0.02154781494140625	1.50299072265625	-2.8228759765625	-0.789642333984375	9.968258612060547	0.5243301635742187	0.105344873046875	1.52587890625	-4.61578369140625	-2.887725830078125	10.290278735351562	-0.1927332336425781	-0.5374982727050781	3.41796875	-4.55474853515625	-1.953125	
143	0.5720000000000001	0.0	0.0	0.0	0.0	0.003	0.003	0.003	0.006	9.727641345214844	0.1388636962890625	0.29388825378417965	1.8310546875	-3.246307373046875	-1.1749267578125	9.785102185058593	0.39863457641601563	0.4417302062988281	0.41961669921875	-5.031585693359375	-3.002166748046875	10.21545993347168	0.07302315063476562	-0.2651578338623047	3.787994384765625	-4.4097900390625	-1.86920166015625	
144	0.5760000000000001	0.0	0.0	0.0	0.0	0.003	0.003	0.003	0.003	9.795876092529296	0.12569558715820311	-0.0143652099609375	1.331329345703125	-2.796173095703125	-1.0528564453125	9.725247143554688	0.766743081665039	0.11192892761230468	1.190185546875	-4.817962646484375	-3.31878662109375	10.04846436767578	-0.06105214233398437	-0.5548562347412109	3.51715087890625	-4.38690185546875	-2.25067138671875	
145	0.58	0.0	0.0	0.0	0.0	0.003	0.003	0.003	0.003	9.619902270507811	0.2950853546142578	0.3142389678955078	1.9989013671875	-3.19671630859375	-0.92315673828125	9.649231240844726	0.5063736511230469	0.4644751220703125	0.438690185546875	-5.008697509765625	-2.704620361328125	9.947907897949218	0.3950432739257812	-0.14544775085449219	3.2501220703125	-4.98199462890625	-1.804351806640625	
146	0.584	0.0	0.0	0.0	0.0	0.003	0.003	0.003	0.006	9.96586441040039	-0.15861585998535155	-0.1274912384033203	0.545501708984375	-2.628326416015625	-0.949859619140625	10.079588989257813	0.46806642456054687	-0.12629413757324218	1.0833740234375	-4.974365234375	-3.177642822265625	10.35492218017578	-0.34177228698730466	-0.42497079467773435	3.72314453125	-4.46319580078125	-2.38037109375	
147	0.588	0.0	0.0	0.0	0.0	0.006	0.006	0.003	0.003	9.668983404541015	0.21009119567871093	0.2561795776367187	1.220703125	-2.95257568359375	-1.15966796875	9.50617769165039	0.6075286712646484	0.6123170745849609	0.67901611328125	-5.0201416015625	-3.223419189453125	9.93354268798828	0.26276363220214843	-0.23882161560058593	3.391265869140625	-4.44793701171875	-2.20489501953125	
148	0.592	0.0	0.0	0.0	0.0	0.003	0.003	0.003	0.006	9.798270294189452	0.3459621398925781	0.12868833923339842	-0.091552734375	-2.132415771484375	-0.52642822265625	9.911396322631836	0.5835866546630859	-0.028730419921875	0.89263916015625	-4.69970703125	-2.834320068359375	9.904213717651366	0.09756371765136718	-0.5021837982177734	3.143310546875	-4.7760009765625	-1.567840576171875	
149	0.596	0.0	0.0	0.0	0.0	0.003	0.003	0.006	0.003	9.694721072387695	0.10654197387695312	0.3232172241210937	1.15203857421875	-2.788543701171875	-1.308441162109375	9.775525378417969	0.4267664459228515	0.39145197143554683	0.49591064453125	-4.940032958984375	-3.36456298828125	10.198700521850585	0.0047884033203125	-0.10773907470703124	3.170013427734375	-4.840850830078125	-1.9683837890625	
150	0.6	0.0	0.0	0.0	0.0	0.003	0.003	0.006	4.5360000000000005	9.95389340209961	0.14425065002441406	-0.04249707946777344	-0.270843505859375	-1.743316650390625	-1.239776611328125	9.976638317871092	0.3286041778564453	-0.054468087768554684	1.361846923828125	-4.92095947265625	-3.406524658203125	10.147225186157225	-0.17417817077636719	-0.4608838195800781	3.406524658203125	-4.634857177734375	-2.079010009765625	
151	0.604	0.0	0.0	0.0	0.0	4.542	4.602	4.605	4.557	9.789890588378906	0.45669396667480466	0.12689268798828124	3.383636474609375	-4.03594970703125	-0.827789306640625	9.473855969238281	0.8415618835449218	0.3962403747558593	0.3509521484375	-4.669189453125	-3.276824951171875	9.749189160156249	0.38187516479492184	-0.15741875915527342	3.757476806640625	-4.2266845703125	-2.513885498046875	
152	0.608	0.0	0.0	0.0	0.0	4.557	4.6080000000000005	4.602	4.5600000000000005	9.891045608520507	0.16340426330566404	0.11372457885742186	-0.026702880859375	-2.025604248046875	-0.64849853515625	9.791087689208984	0.18315642700195311	0.19333178405761717	1.04522705078125	-5.329132080078125	-2.74658203125	10.116100564575195	-0.105344873046875	-0.277727392578125	3.3416748046875	-5.02777099609375	-1.560211181640625	
153	0.612	0.0	0.0	0.0	0.0	4.5600000000000005	4.611	4.614	4.53	9.961674557495117	0.03531447448730469	-0.022744915771484374	3.849029541015625	-4.364013671875	-0.896453857421875	9.769539874267577	0.38666356811523434	0.3058592620849609	0.659942626953125	-4.89044189453125	-3.47137451171875	10.032902056884765	-0.3800795135498047	-0.08559270935058594	3.917694091796875	-4.337310791015625	-2.811431884765625	
154	0.616	0.0	0.0	0.0	0.0	4.566	4.611	4.611	4.521	9.834781869506836	0.32561142578124996	0.06284779357910156	-1.064300537109375	-1.1749267578125	-1.064300537109375	9.647435589599608	0.5578489868164063	0.07601590270996093	0.7781982421875	-5.130767822265625	-3.05938720703125	9.819219558715819	0.2861070983886719	-0.3938461730957031	3.444671630859375	-4.84466552734375	-1.697540283203125	
155	0.62	0.0	0.0	0.0	0.0	4.563	4.605	4.611	4.542	9.733028298950195	0.3956418243408203	0.19393033447265623	2.895355224609375	-3.650665283203125	-0.81634521484375	9.469067565917967	0.4734533782958984	0.48662148742675776	0.759124755859375	-4.87518310546875	-2.99072265625	9.616310968017578	-0.06883329772949218	0.2262520568847656	3.871917724609375	-4.161834716796875	-2.41851806640625	
156	0.624	0.0	0.0	0.0	0.0	4.557	4.611	4.611	4.548	10.114903463745117	0.20470424194335937	-0.21966800231933592	5.3558349609375	-5.504608154296875	-0.946044921875	10.01674119567871	0.09935936889648436	0.10295067138671875	1.06048583984375	-5.218505859375	-3.143310546875	10.242993252563476	0.010175357055664061	-0.16759411621093748	3.444671630859375	-4.57763671875	-1.880645751953125	
157	0.628	0.0	0.0	0.0	0.0	4.5600000000000005	4.611	4.611	4.554	9.862315188598632	0.33039982910156246	-0.00239420166015625	2.742767333984375	-3.5858154296875	-0.865936279296875	9.548674771118163	0.5901707092285156	0.3633201019287109	0.667572021484375	-4.46319580078125	-3.543853759765625	9.641450085449218	-0.07721300354003906	0.003591302490234375	3.612518310546875	-4.001617431640625	-2.78472900390625	
158	0.632	0.0	0.0	0.0	0.0	4.548	4.611	4.6080000000000005	4.563	9.904812268066406	0.5734112976074218	0.0143652099609375	4.2877197265625	-4.795074462890625	-0.736236572265625	9.561244329833984	0.43514615173339843	0.34536358947753903	0.583648681640625	-5.100250244140625	-2.399444580078125	9.527126956176756	0.43574470214843747	0.26336218261718747	3.6468505859375	-4.5013427734375	-1.804351806640625	
159	0.636	0.0	0.0	0.0	0.0	4.563	4.6080000000000005	4.611	4.545	9.90900212097168	0.008978256225585938	0.044292730712890624	6.389617919921875	-6.191253662109375	-0.67138671875	9.816226806640625	0.2561795776367187	0.3393780853271484	0.7476806640625	-4.87518310546875	-3.192901611328125	10.268132369995117	-0.48662148742675776	-0.23642741394042968	3.620147705078125	-4.306793212890625	-1.8463134765625	
160	0.64	0.0	0.0	0.0	0.0	4.563	4.611	4.614	4.527	10.124480270385742	0.258573779296875	-0.3082534637451172	4.756927490234375	-5.13458251953125	-0.858306884765625	9.888052856445311	0.3238157745361328	0.04369418029785156	0.484466552734375	-4.8675537109375	-2.948760986328125	9.950302099609374	0.19153613281249998	-0.13587094421386717	3.36456298828125	-4.29534912109375	-2.040863037109375	
161	0.644	0.0	0.0	0.0	0.0	4.566	4.6080000000000005	0.006	0.003	9.87727894897461	0.47285482788085936	0.025737667846679687	6.496429443359375	-5.985260009765625	-0.579833984375	9.65940659790039	0.6111199737548828	0.17118541870117188	1.1444091796875	-5.023956298828125	-2.7923583984375	9.767145672607422	-0.02693476867675781	-0.12569558715820311	4.001617431640625	-4.413604736328125	-1.9683837890625	
162	0.648	0.0	0.0	0.0	0.0	0.006	0.006	0.003	0.003	10.045471615600585	0.2693476867675781	-0.1640028137207031	4.924774169921875	-5.672454833984375	-0.934600830078125	9.874884747314452	0.26276363220214843	0.1945288848876953	0.54168701171875	-5.268096923828125	-2.51007080078125	10.040084661865233	-0.017357962036132813	0.0017956512451171875	3.5552978515625	-4.69207763671875	-2.00653076171875	
163	0.652	0.0	0.0	0.0	0.0	0.0	0.003	0.003	0.003	10.0748005859375	0.012569558715820313	-0.23822306518554687	6.5460205078125	-6.03485107421875	-0.93841552734375	10.047267266845703	0.3172317199707031	-0.08559270935058594	1.39617919921875	-4.87518310546875	-2.899169921875	10.364498986816406	-0.354341845703125	-0.517746109008789	3.551483154296875	-4.543304443359375	-2.269744873046875	
164	0.656	0.0	0.0	0.0	0.0	0.006	0.003	0.006	0.006	9.698910925292969	0.06105214233398437	0.22385785522460935	3.70025634765625	-4.5166015625	-0.8544921875	9.651026892089844	0.4908113403320312	0.19393033447265623	0.820159912109375	-4.9896240234375	-3.086090087890625	9.904812268066406	0.19871873779296872	-0.38247371520996093	3.6468505859375	-4.5013427734375	-2.170562744140625	
165	0.66	0.0	0.0	0.0	0.0	0.003	0.003	0.006	0.006	9.849745629882811	0.11192892761230468	0.07721300354003906	5.626678466796875	-5.706787109375	-0.568389892578125	9.788693487548828	0.37888241271972656	0.1801636749267578	1.377105712890625	-5.157470703125	-2.620697021484375	9.977236868286132	-0.11911153259277343	-0.10175357055664062	3.726959228515625	-4.39453125	-1.667022705078125	
166	0.664	0.0	0.0	0.0	0.0	0.006	0.003	0.003	0.003	9.81862100830078	-0.05805939025878906	0.20171148986816406	4.21905517578125	-4.726409912109375	-1.010894775390625	9.949703549194336	0.4830301849365234	0.10235212097167969	1.03759765625	-5.3253173828125	-2.960205078125	10.383652600097655	-0.12629413757324218	-0.4159925384521484	3.5552978515625	-4.79888916015625	-2.14385986328125	
167	0.668	0.0	0.0	0.0	0.0	0.006	0.003	0.003	0.003	9.967061511230469	0.14006079711914063	-0.18076222534179687	5.21087646484375	-5.405426025390625	-0.946044921875	9.822212310791015	0.5213374114990235	0.06584054565429687	1.41143798828125	-4.9896240234375	-3.627777099609375	10.23341644592285	0.037708676147460936	-0.6572083557128906	3.421783447265625	-4.302978515625	-1.8157958984375	
168	0.672	0.0	0.0	0.0	0.0	0.003	0.003	0.006	0.006	9.567828384399414	-0.061650692749023434	0.469263525390625	1.949310302734375	-3.520965576171875	-1.1444091796875	9.628281976318359	0.5668272430419922	0.39264907226562495	0.682830810546875	-5.14984130859375	-2.696990966796875	9.84435867614746	0.1005564697265625	-0.10474632263183593	3.7689208984375	-4.85992431640625	-1.972198486328125	
169	0.676	0.0	0.0	0.0	0.0	0.003	0.003	0.003	0.003	9.842563024902343	-0.2232593048095703	0.18315642700195311	-2.048492431640625	-0.911712646484375	-0.8544921875	9.995791931152343	0.3872621185302734	0.020350714111328123	1.251220703125	-5.04302978515625	-3.143310546875	10.351330877685546	-0.03172317199707031	-0.4638765716552734	3.60107421875	-4.6844482421875	-1.773834228515625	
170	0.68	0.0	0.0	0.0	0.0	0.003	0.003	0.003	0.006	9.730035546875	-0.10773907470703124	0.2645592834472656	2.170562744140625	-3.284454345703125	-0.957489013671875	9.85752678527832	0.5105635040283203	0.143652099609375	0.90789794921875	-4.90570068359375	-3.040313720703125	10.15740054321289	-0.08140285644531249	-0.13347674255371092	3.3416748046875	-4.69970703125	-2.197265625	
171	0.684	0.0	0.0	0.0	0.0	0.006	0.003	0.006	0.006	9.654019644165038	0.19093758239746092	0.36750995483398435	-1.850128173828125	-0.457763671875	-0.782012939453125	9.685742816162108	0.6206967803955078	0.14185644836425781	1.689910888671875	-5.035400390625	-3.444671630859375	9.96586441040039	0.15083470458984374	-0.38307226562499996	3.41033935546875	-4.44793701171875	-2.132415771484375	
172	0.6880000000000001	0.0	0.0	0.0	0.0	0.006	0.003	0.003	0.009000000000000001	9.622296472167967	-0.22505495605468748	0.489015689086914	-1.285552978515625	-1.53350830078125	-0.957489013671875	9.714473236083984	0.6386532928466796	0.3393780853271484	0.621795654296875	-4.932403564453125	-2.899169921875	10.000580334472655	0.09995791931152344	-0.09157821350097656	3.467559814453125	-4.917144775390625	-1.667022705078125	
173	0.6920000000000001	0.0	0.0	0.0	0.0	0.003	0.003	0.006	0.006	9.861716638183593	-0.10953472595214843	0.14185644836425781	-2.391815185546875	-0.48065185546875	-0.865936279296875	10.038887561035155	0.479438882446289	-0.08738836059570312	1.373291015625	-4.917144775390625	-3.36456298828125	10.510545288085936	-0.10235212097167969	-0.718260498046875	3.597259521484375	-4.924774169921875	-2.101898193359375	
174	0.6960000000000001	0.0	0.0	0.0	0.0	0.003	0.003	0.003	0.006	9.91558617553711	0.2807201446533203	0.023942016601562498	-0.5645751953125	-1.422882080078125	-1.071929931640625	9.674968908691406	0.6374561920166015	0.2902969512939453	0.57220458984375	-4.913330078125	-3.41033935546875	9.872490545654296	0.12389993591308593	-0.07541735229492187	3.6163330078125	-4.486083984375	-1.987457275390625	
175	0.7000000000000001	0.0	0.0	0.0	0.0	0.003	0.003	0.006	0.003	9.683947164916992	0.1693897674560547	0.41838674011230464	-2.994537353515625	-0.43487548828125	-0.96893310546875	9.625289224243163	0.49679684448242184	0.4387374542236328	0.003814697265625	-4.718780517578125	-2.6397705078125	9.749189160156249	0.09157821350097656	-0.22505495605468748	3.353118896484375	-4.47845458984375	-2.025604248046875	
176	0.704	0.0	0.0	0.0	0.0	0.003	0.006	0.006	0.003	10.075399136352539	0.04129997863769531	-0.12389993591308593	-0.041961669921875	-1.895904541015625	-0.90789794921875	9.951499200439452	0.46627077331542965	0.14245499877929688	0.698089599609375	-4.8065185546875	-3.12042236328125	10.267533819580077	-0.06703764648437499	-0.24600422058105467	3.452301025390625	-4.787445068359375	-1.888275146484375	
177	0.708	0.0	0.0	0.0	0.0	0.006	0.003	0.003	0.003	10.078391888427733	0.5919663604736328	-0.40940848388671874	6.214141845703125	-5.94329833984375	-1.064300537109375	9.791686239624022	0.3435679382324219	0.2041056915283203	0.026702880859375	-4.78363037109375	-2.796173095703125	10.005368737792969	-0.11671733093261719	-0.44532150878906246	3.650665283203125	-4.7149658203125	-2.38800048828125	
178	0.712	0.0	0.0	0.0	0.0	0.003	0.003	0.006	0.006	9.95389340209961	0.469862075805664	0.010773907470703125	1.247406005859375	-2.8076171875	-0.91552734375	9.473855969238281	0.6494272003173828	0.3585316986083984	0.957489013671875	-4.93621826171875	-3.093719482421875	9.537302313232422	0.37828386230468747	0.19512743530273435	3.803253173828125	-4.337310791015625	-2.162933349609375	
179	0.716	0.0	0.0	0.0	0.0	0.006	0.003	0.006	0.003	10.01674119567871	0.4525041137695312	-0.20470424194335937	7.01141357421875	-6.732940673828125	-0.7476806640625	9.916783276367187	0.3190273712158203	-0.016160861206054686	0.06866455078125	-4.940032958984375	-2.655029296875	10.102333905029296	-0.17657237243652343	-0.4387374542236328	3.543853759765625	-4.940032958984375	-1.86920166015625	
180	0.72	0.0	0.0	0.0	0.0	0.003	0.003	0.003	0.003	10.154407791137695	0.18255787658691405	-0.3363853332519531	3.025054931640625	-3.74603271484375	-0.885009765625	9.756371765136718	0.46686932373046874	0.018555062866210937	0.81634521484375	-4.604339599609375	-2.933502197265625	9.982623822021484	0.14903905334472656	-0.06344634399414062	3.83758544921875	-4.21142578125	-2.410888671875	
181	0.724	0.0	0.0	0.0	0.0	0.003	0.003	0.006	0.003	9.880870251464843	0.5141548065185546	-0.04908113403320312	6.870269775390625	-6.572723388671875	-0.858306884765625	9.616909518432617	0.41958384094238277	0.20290859069824219	1.094818115234375	-4.82940673828125	-3.265380859375	9.756371765136718	-0.06763619689941405	0.00239420166015625	3.383636474609375	-4.302978515625	-1.995086669921875	
182	0.728	0.0	0.0	0.0	0.0	0.006	0.003	0.003	0.003	9.841365924072266	0.07781155395507812	0.2136824981689453	5.1727294921875	-5.56182861328125	-0.6256103515625	9.558850128173827	0.5237316131591797	0.20470424194335937	1.316070556640625	-5.161285400390625	-2.819061279296875	9.763554370117188	0.33099837951660155	0.11192892761230468	3.85284423828125	-4.497528076171875	-2.269744873046875	
183	0.732	0.0	0.0	0.0	0.0	0.003	0.003	0.006	0.006	9.951499200439452	0.11791443176269531	-0.08439560852050781	6.37054443359375	-6.092071533203125	-1.117706298828125	9.880870251464843	0.30406361083984373	0.12150573425292968	1.77001953125	-5.184173583984375	-3.62396240234375	10.089764346313476	-0.28909985046386716	-0.022744915771484374	3.719329833984375	-4.57763671875	-2.048492431640625	
184	0.736	0.0	0.0	0.0	0.0	0.003	0.003	0.003	0.003	9.937133990478515	-0.1274912384033203	0.1131260284423828	3.07464599609375	-3.894805908203125	-0.78582763671875	9.854534033203125	0.5686228942871093	0.1406593475341797	1.316070556640625	-4.38690185546875	-2.964019775390625	9.878476049804688	0.21188684692382811	-0.2472013214111328	3.387451171875	-4.283905029296875	-2.166748046875	
185	0.74	0.0	0.0	0.0	0.0	0.009000000000000001	0.003	0.006	0.006	9.779715231323241	0.31543606872558594	0.143652099609375	1.5411376953125	-3.2806396484375	-0.7781982421875	9.610325463867188	0.6691793640136718	0.2807201446533203	0.804901123046875	-5.115509033203125	-3.131866455078125	9.680954412841796	-0.013766659545898436	0.14006079711914063	3.711700439453125	-4.69207763671875	-1.89971923828125	
186	0.744	0.0	0.0	0.0	0.0	0.006	0.003	0.003	0.006	10.021529598999022	-0.01915361328125	0.03950432739257812	4.024505615234375	-4.7149658203125	-0.820159912109375	9.962273107910155	0.24600422058105467	0.1693897674560547	1.068115234375	-4.894256591796875	-2.780914306640625	10.241197601318358	-0.04548983154296875	-0.27892449340820313	3.582000732421875	-4.45556640625	-2.105712890625	
187	0.748	0.0	0.0	0.0	0.0	0.006	0.006	0.003	0.006	9.9461122467041	-0.21487959899902342	0.12689268798828124	3.070831298828125	-3.80706787109375	-1.010894775390625	9.80066449584961	0.46208092041015625	0.07721300354003906	0.61798095703125	-5.10406494140625	-3.12042236328125	9.95389340209961	-0.2041056915283203	-0.01915361328125	3.47137451171875	-4.46319580078125	-1.88446044921875	
188	0.752	0.0	0.0	0.0	0.0	0.009000000000000001	0.003	0.006	0.003	9.879673150634765	0.023343466186523436	0.10893617553710937	3.765106201171875	-4.405975341796875	-0.41961669921875	9.664793551635741	0.5039794494628906	0.2424129180908203	1.079559326171875	-4.802703857421875	-3.017425537109375	9.97244846496582	0.0526724365234375	-0.34536358947753903	3.582000732421875	-4.497528076171875	-2.086639404296875	
189	0.756	0.0	0.0	0.0	0.0	0.003	0.006	0.003	0.006	9.841964474487304	-0.003591302490234375	0.24660277099609373	3.6163330078125	-4.46319580078125	-0.736236572265625	9.85094273071289	0.45549686584472654	0.29269115295410153	0.823974609375	-5.30242919921875	-2.674102783203125	10.10053825378418	0.24660277099609373	-0.32142157287597656	3.627777099609375	-4.69207763671875	-1.628875732421875	
190	0.76	0.0	0.0	0.0	0.0	-0.003	0.006	0.006	0.006	9.93354268798828	-0.201112939453125	-0.07302315063476562	0.934600830078125	-2.506256103515625	-1.110076904296875	9.930549935913085	0.4261678955078125	0.04129997863769531	1.163482666015625	-4.72259521484375	-3.185272216796875	10.399214910888672	-0.2861070983886719	-0.517746109008789	3.719329833984375	-4.3182373046875	-2.40325927734375	
191	0.764	0.0	0.0	0.0	0.0	0.003	0.003	0.006	0.003	9.728239895629882	0.11552023010253906	0.3812766143798828	4.33349609375	-4.779815673828125	-1.12152099609375	9.740210903930663	0.41898529052734373	0.31064766540527344	0.60272216796875	-5.08880615234375	-2.73895263671875	10.01674119567871	0.2932897033691406	-0.38666356811523434	3.66973876953125	-4.364013671875	-1.842498779296875	
192	0.768	0.0	0.0	0.0	0.0	0.003	0.003	0.003	0.003	9.73602105102539	-0.0796072052001953	0.18435352783203124	-0.7171630859375	-1.422882080078125	-0.95367431640625	9.821015209960937	0.6973112335205077	-0.04608838195800781	1.750946044921875	-5.184173583984375	-3.04412841796875	10.052654220581054	-0.07481880187988281	-0.5189432098388671	3.53240966796875	-4.749298095703125	-1.720428466796875	
193	0.772	0.0	0.0	0.0	0.0	0.006	0.006	0.003	0.003	9.896432562255859	-0.10235212097167969	0.16280571289062498	3.997802734375	-4.8370361328125	-0.736236572265625	10.046070166015625	0.2166752502441406	0.13467384338378904	0.530242919921875	-4.764556884765625	-2.628326416015625	10.386046801757812	0.05985504150390625	-0.4997895965576172	3.574371337890625	-4.558563232421875	-1.819610595703125	
194	0.776	0.0	0.0	0.0	0.0	0.003	0.003	0.006	0.006	9.82580361328125	-0.012569558715820313	0.04608838195800781	0.621795654296875	-2.4261474609375	-1.09100341796875	9.866505041503906	0.6338648895263671	-0.07302315063476562	1.68609619140625	-4.863739013671875	-3.185272216796875	10.232219345092773	-0.24480711975097655	-0.5392939239501953	3.5552978515625	-4.703521728515625	-2.1514892578125	
195	0.78	0.0	0.0	0.0	0.0	0.0	4.578	4.602	4.548	9.636661682128906	0.01975216369628906	0.2753331909179687	-0.110626220703125	-2.0294189453125	-1.007080078125	9.49959363708496	0.5758054992675781	0.4064157318115234	0.621795654296875	-5.153656005859375	-3.0670166015625	9.726444244384766	0.2867056488037109	-0.04189852905273437	3.513336181640625	-4.63104248046875	-2.101898193359375	
196	0.784	0.0	0.0	0.0	0.0	4.5600000000000005	4.611	4.611	4.551	9.87069489440918	-0.3112462158203125	0.11073182678222655	0.38909912109375	-2.162933349609375	-0.823974609375	10.06223102722168	0.4369418029785156	-0.14903905334472656	1.5411376953125	-5.11932373046875	-3.017425537109375	10.351330877685546	-0.316034619140625	-0.5392939239501953	3.44085693359375	-5.05828857421875	-1.51824951171875	
197	0.788	0.0	0.0	0.0	0.0	4.557	4.611	4.6080000000000005	4.551	9.843760125732421	-0.08678981018066406	0.08978256225585937	-0.370025634765625	-1.94549560546875	-1.163482666015625	9.817423907470703	0.46686932373046874	0.17058686828613281	0.728607177734375	-4.9896240234375	-3.040313720703125	10.13226142578125	-0.012569558715820313	-0.2537853759765625	3.299713134765625	-4.665374755859375	-2.09808349609375	
198	0.792	0.0	0.0	0.0	0.0	4.548	4.6080000000000005	4.605	4.563	9.767145672607422	-0.00718260498046875	0.14245499877929688	0.19073486328125	-2.178192138671875	-1.232147216796875	9.72345149230957	0.5099649536132812	0.12210428466796874	1.068115234375	-4.772186279296875	-3.07464599609375	10.049661468505859	-0.052073886108398436	-0.5153519073486328	3.56292724609375	-4.703521728515625	-1.850128173828125	
199	0.796	0.0	0.0	0.0	0.0	4.563	4.611	4.614	4.5360000000000005	9.770138424682617	-0.08978256225585937	0.12868833923339842	-0.141143798828125	-1.86920166015625	-1.0986328125	9.682750064086914	0.6452373474121094	0.28431144714355466	0.461578369140625	-5.035400390625	-2.7923583984375	9.9078050201416	0.11252747802734374	-0.09576806640624999	3.208160400390625	-4.8828125	-1.99127197265625	
200	0.8	0.0	0.0	0.0	0.0	4.563	4.611	4.614	4.53	9.975441217041014	-0.0017956512451171875	-0.017357962036132813	0.308990478515625	-2.35748291015625	-0.789642333984375	10.014945544433592	0.22385785522460935	-0.02633621826171875	0.965118408203125	-4.917144775390625	-3.24249267578125	10.180744009399413	-0.17896657409667968	-0.3028665100097656	3.734588623046875	-4.69207763671875	-2.056121826171875	
201	0.804	0.0	0.0	0.0	0.0	4.566	4.611	4.611	4.5360000000000005	9.758167416381836	-0.0383072265625	0.1352723937988281	-0.827789306640625	-1.537322998046875	-1.07574462890625	9.615712417602538	0.5698199951171875	0.28790274963378903	0.7171630859375	-4.581451416015625	-3.59344482421875	9.842563024902343	0.13946224670410157	-0.15203180541992187	3.345489501953125	-4.61578369140625	-2.227783203125	
202	0.808	0.0	0.0	0.0	0.0	4.5600000000000005	4.599	4.611	4.554	9.79946739501953	0.30047230834960936	0.17836802368164062	0.52642822265625	-2.437591552734375	-0.682830810546875	9.727042794799804	0.3902548706054687	0.17836802368164062	0.858306884765625	-4.917144775390625	-3.173828125	9.843760125732421	0.13467384338378904	-0.2549824768066406	3.765106201171875	-5.054473876953125	-1.7242431640625	
203	0.812	0.0	0.0	0.0	0.0	4.557	4.614	4.611	3.636	9.889249957275391	0.07362170104980469	0.06943184814453125	3.314971923828125	-4.016876220703125	-0.762939453125	9.804255798339844	0.4477157104492187	0.20829554443359374	1.15203857421875	-4.94384765625	-3.25775146484375	9.92217023010254	-0.2280477081298828	-0.02154781494140625	3.780364990234375	-4.581451416015625	-2.414703369140625	
204	0.8160000000000001	0.0	0.0	0.0	0.0	0.003	0.003	0.006	0.006	9.913191973876952	0.11611878051757812	0.0053869537353515625	0.957489013671875	-2.55584716796875	-0.919342041015625	9.860519537353515	0.20350714111328125	0.09217676391601562	1.148223876953125	-5.054473876953125	-3.12042236328125	9.998784683227539	0.037110125732421874	-0.31004911499023435	3.589630126953125	-4.82177734375	-2.216339111328125	
205	0.8200000000000001	0.0	0.0	0.0	0.0	0.006	0.003	0.006	0.003	9.783905084228515	0.34835634155273437	0.16280571289062498	3.2196044921875	-4.161834716796875	-0.70953369140625	9.547477670288085	0.565031591796875	0.2807201446533203	0.8392333984375	-4.73785400390625	-3.391265869140625	9.578003741455078	0.020949264526367185	0.11073182678222655	3.8299560546875	-4.062652587890625	-2.18963623046875	
206	0.8240000000000001	0.0	0.0	0.0	0.0	0.003	0.003	0.003	0.003	9.937133990478515	0.17477672119140625	0.00718260498046875	1.026153564453125	-2.803802490234375	-1.003265380859375	9.815628256225585	0.3190273712158203	0.15682020874023436	0.865936279296875	-5.18035888671875	-2.86865234375	9.904213717651366	0.11911153259277343	0.018555062866210937	3.643035888671875	-4.764556884765625	-2.086639404296875	
207	0.8280000000000001	0.0	0.0	0.0	0.0	0.003	0.003	0.003	0.003	9.991003527832031	0.21009119567871093	-0.047884033203124995	4.436492919921875	-4.718780517578125	-1.056671142578125	9.789292037963866	0.39923312683105466	0.17417817077636719	1.12152099609375	-4.817962646484375	-2.948760986328125	9.924564431762695	-0.18734627990722655	-0.044292730712890624	3.80706787109375	-4.302978515625	-2.2735595703125	
208	0.8320000000000001	0.0	0.0	0.0	0.0	0.006	0.006	0.006	0.006	9.983222372436522	0.28790274963378903	-0.1304839904785156	5.8746337890625	-5.69915771484375	-0.888824462890625	9.591770401000977	0.4722562774658203	0.24001871643066405	0.751495361328125	-4.917144775390625	-2.95257568359375	9.783905084228515	0.15981296081542967	-0.02454056701660156	3.513336181640625	-4.367828369140625	-2.044677734375	
209	0.836	0.0	0.0	0.0	0.0	0.006	0.003	0.006	0.003	9.88266590270996	0.35314474487304687	0.031124621582031248	5.054473876953125	-5.077362060546875	-0.69427490234375	9.738415252685547	0.43933600463867184	0.12090718383789062	1.2664794921875	-5.146026611328125	-2.933502197265625	9.80724855041504	-0.0526724365234375	-0.07062894897460938	3.665924072265625	-4.45556640625	-2.750396728515625	
210	0.84	0.0	0.0	0.0	0.0	0.003	0.003	0.003	0.006	10.036493359375	0.15263035583496093	-0.08798691101074219	6.6680908203125	-6.465911865234375	-0.86212158203125	9.883264453125	0.25258827514648435	0.022744915771484374	0.911712646484375	-4.680633544921875	-2.66265869140625	10.074202035522461	-0.07721300354003906	-0.08200140686035155	3.566741943359375	-4.779815673828125	-2.20489501953125	
211	0.844	0.0	0.0	0.0	0.0	0.006	0.003	0.003	0.003	9.91498762512207	0.4177881896972656	-0.0053869537353515625	3.635406494140625	-4.512786865234375	-0.881195068359375	9.80724855041504	0.4686649749755859	0.06045359191894531	1.16729736328125	-4.76837158203125	-3.12042236328125	10.150217938232421	0.023343466186523436	-0.35613749694824215	3.757476806640625	-4.398345947265625	-2.1514892578125	
212	0.848	0.0	0.0	0.0	0.0	0.003	0.006	0.003	0.003	9.880870251464843	0.14724340209960937	0.029927520751953124	5.695343017578125	-5.855560302734375	-0.6561279296875	9.685742816162108	0.5482721801757812	0.2980781066894531	0.64849853515625	-4.85992431640625	-2.552032470703125	9.749189160156249	0.13168109130859373	0.03890577697753906	3.70025634765625	-4.581451416015625	-2.105712890625	
213	0.852	0.0	0.0	0.0	0.0	0.003	0.003	0.006	0.006	9.938331091308592	-0.22744915771484372	-0.1592144104003906	3.131866455078125	-4.314422607421875	-0.965118408203125	9.894038360595703	0.4800374328613281	0.023942016601562498	1.19781494140625	-4.75311279296875	-2.964019775390625	10.238204849243164	0.0047884033203125	-0.3298012786865234	3.688812255859375	-4.283905029296875	-1.880645751953125	
214	0.856	0.0	0.0	0.0	0.0	0.006	0.003	0.003	0.0	10.037690460205077	-0.07900865478515624	-0.17178396911621094	5.817413330078125	-5.89752197265625	-0.919342041015625	9.93294413757324	0.30705636291503907	0.054468087768554684	1.06048583984375	-4.985809326171875	-2.635955810546875	10.301052642822265	-0.13168109130859373	-0.4327519500732422	3.467559814453125	-4.58526611328125	-1.861572265625	
215	0.86	0.0	0.0	0.0	0.0	0.006	0.003	0.003	0.009000000000000001	9.802460147094726	-0.16879121704101563	0.03890577697753906	2.826690673828125	-3.902435302734375	-0.736236572265625	9.781510882568359	0.7535749725341796	0.03411737365722656	1.79290771484375	-5.2490234375	-3.34930419921875	10.022128149414062	0.23702596435546874	-0.35613749694824215	3.7841796875	-4.642486572265625	-2.010345458984375	
216	0.864	0.0	0.0	0.0	0.0	0.003	0.003	0.006	0.006	9.51814869995117	-0.13467384338378904	0.5710170959472656	-0.9918212890625	-1.468658447265625	-0.95367431640625	9.8449572265625	0.354940396118164	0.21428104858398436	0.835418701171875	-4.852294921875	-2.750396728515625	10.109516510009765	-0.017956512451171875	-0.2537853759765625	3.387451171875	-4.7760009765625	-1.62506103515625	
217	0.868	0.0	0.0	0.0	0.0	0.006	0.003	0.006	0.006	9.850344180297851	-0.35613749694824215	0.05626373901367187	2.132415771484375	-3.13568115234375	-1.087188720703125	9.961076007080077	0.59376201171875	-0.011372457885742187	1.60980224609375	-5.07354736328125	-3.383636474609375	10.388441003417968	-0.07781155395507812	-0.6649895111083984	3.360748291015625	-4.53948974609375	-1.758575439453125	
218	0.872	0.0	0.0	0.0	0.0	0.003	0.006	0.003	0.003	9.558251577758789	0.08020575561523437	0.5291185668945312	-1.132965087890625	-1.194000244140625	-0.9765625	9.645041387939452	0.5530605834960938	0.34536358947753903	0.873565673828125	-4.833221435546875	-3.265380859375	10.073004934692381	0.04848258361816406	-0.26695348510742184	3.41796875	-4.608154296875	-1.7547607421875	
219	0.876	0.0	0.0	0.0	0.0	0.003	0.006	0.006	0.006	9.701305126953125	-0.14125789794921875	0.23523031311035156	0.05340576171875	-2.101898193359375	-0.762939453125	9.824007962036132	0.661398208618164	0.11013327636718749	1.73187255859375	-4.8828125	-3.093719482421875	10.075997686767577	0.11133037719726561	-0.5243301635742187	3.437042236328125	-4.589080810546875	-2.086639404296875	
220	0.88	0.0	0.0	0.0	0.0	0.003	0.003	0.003	0.006	9.647435589599608	0.12689268798828124	0.4417302062988281	-0.537872314453125	-1.819610595703125	-1.064300537109375	9.783905084228515	0.4800374328613281	0.354940396118164	0.576019287109375	-4.9591064453125	-2.704620361328125	10.347141024780273	-0.07062894897460938	-0.42437224426269526	3.635406494140625	-4.993438720703125	-1.873016357421875	
221	0.884	0.0	0.0	0.0	0.0	0.006	0.006	0.003	0.006	9.952696301269532	0.2753331909179687	-0.09457096557617187	-0.77056884765625	-1.54876708984375	-1.09100341796875	9.874884747314452	0.4674678741455078	0.04608838195800781	0.37384033203125	-5.0506591796875	-2.99835205078125	10.165780249023436	-0.023343466186523436	-0.6111199737548828	3.448486328125	-4.634857177734375	-2.41851806640625	
222	0.888	0.0	0.0	0.0	0.0	0.0	0.006	0.006	0.003	9.624690673828125	0.3238157745361328	0.3896563201904297	-0.362396240234375	-1.48773193359375	-1.049041748046875	9.619902270507811	0.5087678527832031	0.3477577911376953	-0.244140625	-4.673004150390625	-2.590179443359375	9.794678991699218	0.21607669982910155	-0.08259995727539061	3.276824951171875	-4.66156005859375	-1.73187255859375	
223	0.892	0.0	0.0	0.0	0.0	0.003	0.006	0.006	0.006	9.94730934753418	0.26695348510742184	-0.08140285644531249	0.804901123046875	-2.532958984375	-0.7781982421875	9.868300692749022	0.5386953735351562	-0.01975216369628906	0.96893310546875	-4.985809326171875	-2.90679931640625	10.217255584716796	-0.076614453125	-0.5967547637939453	3.60107421875	-4.673004150390625	-2.15911865234375	
224	0.896	0.0	0.0	0.0	0.0	0.003	0.003	0.003	0.006	9.810241302490233	0.19632453613281248	0.12210428466796874	4.41741943359375	-4.795074462890625	-0.030517578125	9.750984811401366	0.3495534423828125	0.14963760375976562	1.2969970703125	-5.115509033203125	-3.215789794921875	10.077793338012695	0.06763619689941405	-0.21068974609375	3.559112548828125	-4.70733642578125	-1.789093017578125	
225	0.9	0.0	0.0	0.0	0.0	0.006	0.003	0.003	0.006	9.827599264526366	0.44891281127929683	0.10893617553710937	1.71661376953125	-3.19671630859375	-1.0833740234375	9.727042794799804	0.7703343841552734	0.04189852905273437	1.163482666015625	-5.0048828125	-3.040313720703125	9.879673150634765	-0.09816226806640624	-0.24779987182617186	3.665924072265625	-4.795074462890625	-2.29644775390625	
226	0.904	0.0	0.0	0.0	0.0	0.006	0.003	0.003	0.003	9.829394915771484	0.15981296081542967	0.08020575561523437	3.1280517578125	-3.92913818359375	-1.041412353515625	9.67197615661621	0.3447650390625	0.34835634155273437	0.629425048828125	-4.96673583984375	-3.021240234375	9.975441217041014	0.16639701538085935	-0.12389993591308593	3.570556640625	-4.840850830078125	-1.64031982421875	
227	0.908	0.0	0.0	0.0	0.0	0.003	0.003	0.003	0.003	9.892242709350585	0.2501940734863281	0.09457096557617187	1.232147216796875	-2.7618408203125	-0.93841552734375	9.984419473266602	0.594959112548828	-0.02633621826171875	0.820159912109375	-4.87518310546875	-3.07464599609375	10.103531005859374	-0.23822306518554687	-0.297479556274414	3.7841796875	-4.913330078125	-2.18963623046875	
228	0.912	0.0	0.0	0.0	0.0	0.006	0.003	0.006	0.006	9.866505041503906	0.2214636535644531	0.09935936889648436	2.506256103515625	-3.719329833984375	-1.132965087890625	9.676764559936522	0.3962403747558593	0.3495534423828125	0.675201416015625	-4.825592041015625	-3.383636474609375	9.785700735473633	0.13287819213867186	0.07122749938964844	3.749847412109375	-4.405975341796875	-2.567291259765625	
229	0.916	0.0	0.0	0.0	0.0	0.003	0.006	0.006	0.006	9.970054263305663	0.2705447875976562	-0.1879448303222656	3.936767578125	-4.791259765625	-0.6256103515625	9.683348614501952	0.5392939239501953	0.1352723937988281	0.705718994140625	-4.98199462890625	-2.81524658203125	9.849147079467773	-0.029328970336914062	-0.19692308654785154	3.582000732421875	-4.7607421875	-2.094268798828125	
230	0.92	0.0	0.0	0.0	0.0	0.003	0.003	0.003	0.003	9.897031112670899	0.15442600708007811	0.02154781494140625	3.253936767578125	-4.062652587890625	-0.80108642578125	9.779116680908203	0.30466216125488277	0.3920505218505859	0.850677490234375	-4.66156005859375	-2.971649169921875	9.888052856445311	-0.040701428222656245	0.027533319091796873	4.08935546875	-4.611968994140625	-2.422332763671875	
231	0.924	0.0	0.0	0.0	0.0	0.006	0.003	0.003	0.006	10.050858569335936	0.20290859069824219	-0.2154781494140625	5.168914794921875	-5.573272705078125	-1.12152099609375	9.798270294189452	0.3908534210205078	0.037708676147460936	0.8392333984375	-4.913330078125	-2.6397705078125	9.986215124511718	-0.14305354919433594	-0.2214636535644531	3.7689208984375	-4.550933837890625	-2.033233642578125	
232	0.928	0.0	0.0	0.0	0.0	0.006	0.003	0.003	0.006	9.765350021362304	0.3477577911376953	0.22206220397949217	4.123687744140625	-4.61578369140625	-0.90789794921875	9.613916766357422	0.4171896392822265	0.3651157531738281	0.858306884765625	-4.680633544921875	-3.11279296875	9.64623848876953	0.06045359191894531	0.19812018737792966	4.0740966796875	-4.4708251953125	-2.5177001953125	
233	0.932	0.0	0.0	0.0	0.0	0.003	4.596	4.6080000000000005	4.521	9.97903251953125	0.2088940948486328	-0.11432312927246092	4.67681884765625	-5.10406494140625	-0.804901123046875	9.841365924072266	0.20051438903808594	0.09217676391601562	0.873565673828125	-4.955291748046875	-2.655029296875	9.928754284667969	0.13108254089355467	0.037708676147460936	3.662109375	-4.596710205078125	-1.781463623046875	
234	0.936	0.0	0.0	0.0	0.0	4.5600000000000005	4.6080000000000005	4.6080000000000005	4.533	10.031704956054687	-0.04189852905273437	-0.1693897674560547	5.702972412109375	-5.340576171875	-0.759124755859375	9.739612353515625	0.45190556335449217	0.3172317199707031	0.762939453125	-4.718780517578125	-3.33404541015625	9.873089096069336	-0.12150573425292968	-0.00239420166015625	3.99017333984375	-4.73785400390625	-2.5177001953125	
235	0.9400000000000001	0.0	0.0	0.0	0.0	4.563	4.599	4.611	4.551	9.983820922851562	0.3315969299316406	-0.1131260284423828	4.619598388671875	-5.18035888671875	-0.766754150390625	9.795876092529296	0.296881005859375	0.2651578338623047	0.6103515625	-5.31005859375	-2.620697021484375	9.824007962036132	0.19632453613281248	0.06584054565429687	3.787994384765625	-4.398345947265625	-1.865386962890625	
236	0.9440000000000001	0.0	0.0	0.0	0.0	4.563	4.611	4.614	4.557	9.956287603759765	0.16879121704101563	-0.058657940673828124	6.565093994140625	-6.305694580078125	-0.8087158203125	9.657012396240233	0.5063736511230469	0.36152445068359373	0.7781982421875	-4.756927490234375	-2.948760986328125	10.157999093627929	-0.25797522888183594	-0.4369418029785156	3.704071044921875	-4.57763671875	-2.22015380859375	
237	0.9480000000000001	0.0	0.0	0.0	0.0	4.551	4.6080000000000005	4.611	4.5600000000000005	10.123283169555663	0.24959552307128904	-0.20949264526367187	5.054473876953125	-5.496978759765625	-0.8087158203125	9.938331091308592	0.21727380065917967	0.1322796417236328	0.286102294921875	-4.8828125	-2.31170654296875	10.046070166015625	0.059256491088867186	-0.03950432739257812	3.65447998046875	-4.451751708984375	-1.62506103515625	
238	0.9520000000000001	0.0	0.0	0.0	0.0	4.5600000000000005	4.6080000000000005	4.602	4.563	9.94012674255371	0.23582886352539062	-0.03591302490234375	6.679534912109375	-6.0882568359375	-0.675201416015625	9.95987890625	0.5524620330810547	-0.10295067138671875	1.651763916015625	-4.913330078125	-3.021240234375	10.25316860961914	-0.2932897033691406	-0.5183446594238281	3.673553466796875	-4.344940185546875	-2.166748046875	
239	0.9560000000000001	0.0	0.0	0.0	0.0	4.563	4.611	4.617	4.5360000000000005	9.75517466430664	0.14006079711914063	0.2693476867675781	4.84466552734375	-5.2490234375	-0.690460205078125	9.749189160156249	0.3848679168701172	0.1975216369628906	0.78582763671875	-5.14984130859375	-2.532958984375	10.028712203979492	0.3112462158203125	-0.39803602600097654	3.208160400390625	-4.81414794921875	-1.60980224609375	
240	0.96	0.0	0.0	0.0	0.0	4.566	4.6080000000000005	4.611	4.524	9.976039767456054	0.15322890625	-0.08858546142578125	6.52313232421875	-6.313323974609375	-0.823974609375	9.961076007080077	0.48662148742675776	-0.054468087768554684	1.323699951171875	-4.772186279296875	-2.7313232421875	10.274117874145507	-0.2950853546142578	-0.49260699157714843	3.780364990234375	-4.650115966796875	-1.8157958984375	
241	0.964	0.0	0.0	0.0	0.0	2.2920000000000003	0.003	0.006	0.006	9.76116016845703	0.05087678527832031	0.24181436767578124	4.5013427734375	-4.810333251953125	-0.827789306640625	9.771335525512695	0.5482721801757812	0.07302315063476562	0.736236572265625	-4.92095947265625	-2.849578857421875	10.254365710449218	0.12330138549804687	-0.489015689086914	3.51715087890625	-4.734039306640625	-1.97601318359375	
242	0.968	0.0	0.0	0.0	0.0	0.006	0.006	0.003	0.003	9.830592016601562	-0.10115502014160156	0.025737667846679687	-0.423431396484375	-1.99127197265625	-0.919342041015625	9.843760125732421	0.5345055206298828	0.00718260498046875	1.216888427734375	-4.96673583984375	-2.7008056640625	10.23401499633789	-0.14604630126953125	-0.6458358978271485	3.51715087890625	-4.67681884765625	-1.850128173828125	
243	0.972	0.0	0.0	0.0	0.0	0.009000000000000001	0.003	0.003	0.003	9.724648593139648	0.04668693237304687	0.28012159423828126	3.498077392578125	-4.764556884765625	-0.820159912109375	9.666589202880859	0.6254851837158203	0.2555810272216797	0.732421875	-5.10406494140625	-2.7008056640625	10.111910711669921	0.15083470458984374	-0.39863457641601563	3.2958984375	-4.611968994140625	-1.64794921875	
244	0.976	0.0	0.0	0.0	0.0	0.003	0.003	0.003	0.003	9.889848507690429	-0.1849520782470703	0.009576806640625	-1.0223388671875	-1.65557861328125	-1.186370849609375	9.950302099609374	0.35673604736328124	0.006584054565429687	1.41143798828125	-5.168914794921875	-3.444671630859375	10.266336718749999	-0.0909796630859375	-0.45010991210937495	3.086090087890625	-4.852294921875	-1.697540283203125	
245	0.98	0.0	0.0	0.0	0.0	0.003	0.006	0.003	0.003	9.628281976318359	0.040701428222656245	0.3872621185302734	3.330230712890625	-3.8299560546875	-0.896453857421875	9.643844287109374	0.7320271575927734	0.24061726684570311	0.762939453125	-4.871368408203125	-3.10516357421875	10.158597644042969	-0.008978256225585938	-0.39863457641601563	3.330230712890625	-4.96673583984375	-1.934051513671875	
246	0.984	0.0	0.0	0.0	0.0	0.003	0.003	0.006	0.006	9.752181912231444	-0.040102877807617184	0.20051438903808594	-1.64794921875	-1.30462646484375	-0.835418701171875	9.843161575317382	0.3938461730957031	0.08379705810546874	0.827789306640625	-4.8828125	-3.505706787109375	10.061033926391602	0.08978256225585937	-0.4477157104492187	3.452301025390625	-4.512786865234375	-1.64031982421875	
247	0.988	0.0	0.0	0.0	0.0	0.006	0.003	0.006	0.003	9.90900212097168	-0.001197100830078125	0.0047884033203125	-0.732421875	-1.31988525390625	-1.171112060546875	9.809044201660155	0.536899722290039	0.13108254089355467	0.629425048828125	-4.92095947265625	-3.0364990234375	9.922768780517577	-0.13587094421386717	-0.04548983154296875	3.53240966796875	-4.268646240234375	-2.124786376953125	
248	0.992	0.0	0.0	0.0	0.0	0.003	0.003	0.003	0.003	9.788094937133788	-0.0017956512451171875	0.16160861206054686	-1.651763916015625	-0.69427490234375	-1.03759765625	9.867702142333984	0.49260699157714843	0.06404489440917968	1.1138916015625	-4.8980712890625	-3.391265869140625	10.204087475585936	0.06823474731445311	-0.5662286926269531	3.215789794921875	-4.291534423828125	-1.89208984375	
249	0.996	0.0	0.0	0.0	0.0	0.0	0.006	0.003	0.003	9.829394915771484	0.24839842224121092	0.15562310791015624	-0.713348388671875	-1.5411376953125	-1.010894775390625	9.6917283203125	0.5620388397216797	0.27174188842773433	0.51116943359375	-4.70733642578125	-3.139495849609375	9.81862100830078	-0.022744915771484374	-0.06943184814453125	3.376007080078125	-4.79888916015625	-2.025604248046875	
250	1.0	0.0	0.0	0.0	0.0	0.012	0.006	0.003	0.006	9.75517466430664	0.09277531433105468	0.2651578338623047	3.71551513671875	-0.67138671875	-0.95367431640625	9.894038360595703	0.5057751007080078	0.06584054565429687	0.537872314453125	-4.886627197265625	-3.02886962890625	9.847351428222655	0.06045359191894531	-0.23104046020507812	3.44085693359375	-4.772186279296875	-2.277374267578125	
251	1.004	0.0	0.0	0.0	0.0	0.0	0.006	0.006	0.003	10.00955859069824	0.18614917907714842	-0.14006079711914063	-0.06103515625	-1.80816650390625	-1.33514404296875	9.829993466186522	0.4465186096191406	0.2232593048095703	0.67138671875	-4.81414794921875	-3.131866455078125	9.957484704589843	-0.08259995727539061	-0.12988544006347655	3.28826904296875	-4.467010498046875	-2.06756591796875	
252	1.008	0.0	0.0	0.0	0.0	0.003	0.006	0.006	0.006	9.92217023010254	0.6769605194091797	-0.15322890625	5.275726318359375	-5.245208740234375	-0.9613037109375	9.680954412841796	0.44532150878906246	0.1610100616455078	0.16021728515625	-4.650115966796875	-2.948760986328125	9.83777462158203	0.04129997863769531	-0.2651578338623047	3.51715087890625	-4.6539306640625	-2.162933349609375	
253	1.012	0.0	0.0	0.0	0.0	0.003	0.003	0.003	0.003	9.947907897949218	0.3908534210205078	0.020949264526367185	1.0833740234375	-2.6092529296875	-1.09100341796875	9.781510882568359	0.3968389251708984	0.2950853546142578	0.1983642578125	-4.642486572265625	-2.872467041015625	9.925761532592773	-0.14724340209960937	-0.034715924072265626	4.00543212890625	-4.33349609375	-2.071380615234375	
254	1.016	0.0	0.0	0.0	0.0	0.0	0.003	0.003	0.003	10.057442623901366	0.4626794708251953	-0.3477577911376953	5.931854248046875	-5.794525146484375	-0.865936279296875	9.790489138793944	0.4112041351318359	0.0017956512451171875	0.408172607421875	-5.153656005859375	-2.9144287109375	9.906607919311522	-0.03651157531738281	-0.3010708587646484	3.8299560546875	-4.787445068359375	-2.44140625	
255	1.02	0.0	0.0	0.0	0.0	0.006	0.003	0.003	0.006	9.973645565795898	0.2501940734863281	-0.10115502014160156	7.526397705078125	-6.91986083984375	-0.79345703125	9.673173257446289	0.48123453369140623	0.12689268798828124	0.896453857421875	-4.79888916015625	-2.918243408203125	9.87009634399414	0.15382745666503905	-0.059256491088867186	3.7384033203125	-4.24957275390625	-2.147674560546875	
256	1.024	0.0	0.0	0.0	0.0	0.006	0.003	0.006	0.006	9.968857162475585	0.4955997436523437	-0.2741360900878906	6.732940673828125	-6.7138671875	-0.9307861328125	9.72345149230957	0.5039794494628906	0.029328970336914062	0.621795654296875	-5.07354736328125	-2.96783447265625	9.864709390258788	-0.0796072052001953	-0.2328361114501953	3.90625	-4.634857177734375	-2.31170654296875	
257	1.028	0.0	0.0	0.0	0.0	0.003	0.006	0.003	0.003	9.91498762512207	0.09576806640624999	0.12808978881835936	6.153106689453125	-5.985260009765625	-0.8087158203125	9.692925421142577	0.4034229797363281	0.201112939453125	1.18255615234375	-5.04302978515625	-2.834320068359375	9.87608184814453	0.2088940948486328	-0.0047884033203125	4.1046142578125	-4.547119140625	-2.582550048828125	
258	1.032	0.0	0.0	0.0	0.0	0.003	0.003	0.003	0.003	9.916184725952148	0.30885201416015623	-0.10594342346191406	6.40106201171875	-6.4239501953125	-0.980377197265625	9.78031378173828	0.47644613037109373	0.20530279235839843	1.06048583984375	-4.89044189453125	-3.31878662109375	9.992799179077148	-0.22685060729980466	0.04129997863769531	3.51715087890625	-4.566192626953125	-2.08282470703125	
259	1.036	0.0	0.0	0.0	0.0	0.003	0.003	0.003	0.006	9.849147079467773	0.034715924072265626	0.20470424194335937	4.360198974609375	-4.657745361328125	-0.75531005859375	9.628281976318359	0.36930560607910157	0.3327940307617187	1.087188720703125	-4.741668701171875	-3.231048583984375	9.713276135253906	0.2902969512939453	0.11552023010253906	3.8909912109375	-4.100799560546875	-2.170562744140625	
260	1.04	0.0	0.0	0.0	0.0	0.003	0.006	0.006	0.003	9.88266590270996	-0.21009119567871093	0.1592144104003906	2.41851806640625	-3.528594970703125	-0.942230224609375	9.764751470947266	0.4746504791259765	0.2615665313720703	0.995635986328125	-5.10406494140625	-2.834320068359375	9.947907897949218	-0.19632453613281248	0.086191259765625	3.3416748046875	-4.459381103515625	-1.781463623046875	
261	1.044	0.0	0.0	0.0	0.0	0.006	0.006	0.006	0.003	9.986813674926758	0.03591302490234375	0.05746083984375	4.92095947265625	-5.176544189453125	-0.873565673828125	9.929352835083007	0.3950432739257812	0.03950432739257812	1.132965087890625	-4.894256591796875	-2.86865234375	10.289081634521484	-0.02154781494140625	-0.5087678527832031	3.749847412109375	-4.241943359375	-2.361297607421875	
262	1.048	0.0	0.0	0.0	0.0	0.006	0.006	0.003	0.009000000000000001	9.865307940673828	-0.02693476867675781	0.2442085693359375	4.085540771484375	-4.669189453125	-0.8087158203125	9.771335525512695	0.38187516479492184	0.2059013427734375	0.61798095703125	-5.039215087890625	-2.407073974609375	9.935936889648437	-0.11552023010253906	0.058657940673828124	3.421783447265625	-4.421234130859375	-1.67083740234375	
263	1.052	0.0	0.0	0.0	0.0	0.006	0.003	0.003	0.009000000000000001	9.988609326171874	0.022146365356445312	0.02454056701660156	1.19781494140625	-5.72967529296875	-0.63323974609375	9.836577520751952	0.5398924743652344	0.16340426330566404	1.24359130859375	-4.741668701171875	-2.93731689453125	10.15680199279785	0.0526724365234375	-0.38367081604003905	3.871917724609375	-4.45556640625	-2.23541259765625	
264	1.056	0.0	0.0	0.0	0.0	0.003	0.003	0.003	0.003	9.866505041503906	0.11252747802734374	0.2771288421630859	4.92095947265625	-5.3253173828125	-0.576019287109375	9.73063409729004	0.46148236999511716	0.46627077331542965	1.033782958984375	-5.3253173828125	-2.765655517578125	10.160991845703125	0.09038111267089843	-0.26276363220214843	3.2196044921875	-4.772186279296875	-1.697540283203125	
265	1.06	0.0	0.0	0.0	0.0	0.003	0.006	0.003	0.003	9.847351428222655	-0.1304839904785156	0.10594342346191406	0.751495361328125	-2.582550048828125	-1.06048583984375	9.866505041503906	0.5889736083984375	0.1005564697265625	1.30462646484375	-4.619598388671875	-3.002166748046875	10.217255584716796	-0.13347674255371092	-0.3298012786865234	3.753662109375	-4.4708251953125	-2.231597900390625	
266	1.064	0.0	0.0	0.0	0.0	0.006	0.003	0.003	2.181	9.826402163696288	0.032920272827148434	0.2920926025390625	4.64630126953125	-4.974365234375	-0.87738037109375	9.699509475708007	0.4644751220703125	0.46806642456054687	0.80108642578125	-5.245208740234375	-2.70843505859375	10.089165795898436	0.15562310791015624	-0.22445640563964842	3.2958984375	-4.73785400390625	-1.7547607421875	
267	1.068	0.0	0.0	0.0	0.0	4.527	4.602	4.6080000000000005	4.53	9.834183319091796	-0.1867477294921875	0.2232593048095703	0.469207763671875	-2.208709716796875	-0.75531005859375	9.95389340209961	0.5770026000976562	-0.006584054565429687	1.30462646484375	-5.054473876953125	-3.10516357421875	10.238204849243164	-0.17298106994628906	-0.28909985046386716	3.589630126953125	-4.23431396484375	-2.05230712890625	
268	1.072	0.0	0.0	0.0	0.0	4.5600000000000005	4.599	4.6080000000000005	4.545	9.737816702270507	0.11911153259277343	0.24121581726074218	0.385284423828125	-2.330780029296875	-1.10626220703125	9.839570272827148	0.4261678955078125	0.33518823242187495	0.69427490234375	-5.199432373046875	-2.78472900390625	10.225635290527343	0.10235212097167969	-0.3112462158203125	3.5400390625	-4.5928955078125	-1.949310302734375	
269	1.076	0.0	0.0	0.0	0.0	4.5600000000000005	4.611	4.6080000000000005	4.554	9.804255798339844	-0.08499415893554688	0.22685060729980466	0.51116943359375	-2.735137939453125	-0.9307861328125	9.90122096557617	0.5536591339111328	0.058657940673828124	0.92315673828125	-4.589080810546875	-2.857208251953125	10.128670123291014	-0.05985504150390625	-0.42377369384765623	3.574371337890625	-4.79888916015625	-1.811981201171875	
270	1.08	0.0	0.0	0.0	0.0	4.554	4.6080000000000005	4.6080000000000005	4.557	9.72943699645996	0.03591302490234375	0.18076222534179687	0.030517578125	-2.117156982421875	-0.92315673828125	9.765350021362304	0.5141548065185546	0.3537432952880859	0.598907470703125	-4.749298095703125	-3.13568115234375	10.137049829101562	0.16460136413574217	-0.3591302490234375	3.6773681640625	-4.711151123046875	-2.178192138671875	
271	1.084	0.0	0.0	0.0	0.0	4.545	4.6080000000000005	4.602	4.563	9.91438907470703	-0.16879121704101563	-0.006584054565429687	0.598907470703125	-2.7008056640625	-0.9307861328125	9.994594830322265	0.4010287780761719	-0.040102877807617184	1.47247314453125	-4.909515380859375	-3.04412841796875	10.184933862304687	-0.1322796417236328	-0.3525461944580078	3.429412841796875	-4.764556884765625	-1.804351806640625	
272	1.088	0.0	0.0	0.0	0.0	4.563	4.614	4.614	4.5360000000000005	9.715670336914062	-0.03531447448730469	0.22026655273437498	0.492095947265625	-1.972198486328125	-1.10626220703125	9.651625442504882	0.6470329986572265	0.3699041564941406	0.87738037109375	-4.978179931640625	-3.337860107421875	9.883264453125	-0.04908113403320312	-0.023343466186523436	3.612518310546875	-4.611968994140625	-2.4261474609375	
273	1.092	0.0	0.0	0.0	0.0	4.569	4.611	4.611	3.612	9.794678991699218	0.09038111267089843	0.2154781494140625	-0.5340576171875	-1.667022705078125	-0.762939453125	9.93952819213867	0.4165910888671875	-0.023343466186523436	1.83868408203125	-4.8980712890625	-3.063201904296875	10.12507882080078	-0.029927520751953124	-0.3800795135498047	3.3721923828125	-4.6539306640625	-1.48773193359375	
274	1.096	0.0	0.0	0.0	0.0	0.003	0.006	0.006	0.003	9.712079034423828	-0.06763619689941405	0.2914940521240234	0.408172607421875	-2.429962158203125	-1.087188720703125	9.693523971557617	0.6200982299804687	0.3064578125	0.67138671875	-5.161285400390625	-2.98309326171875	9.866505041503906	-0.055066638183593745	-0.06045359191894531	3.76129150390625	-4.730224609375	-2.227783203125	
275	1.1	0.0	0.0	0.0	0.0	0.0	0.006	0.003	0.006	9.85752678527832	0.15263035583496093	0.07900865478515624	0.408172607421875	-2.02178955078125	-0.965118408203125	9.760561618041992	0.2507926239013672	0.28969840087890625	0.78582763671875	-5.01251220703125	-3.3416748046875	9.834183319091796	0.16340426330566404	-0.04369418029785156	3.4637451171875	-4.611968994140625	-2.0904541015625	
276	1.104	0.0	0.0	0.0	0.0	0.003	0.003	0.003	0.006	9.697115274047851	-0.012569558715820313	0.3184288208007812	2.765655517578125	-1.056671142578125	-1.125335693359375	9.65342109375	0.6189011291503906	0.373495458984375	0.553131103515625	-4.795074462890625	-3.086090087890625	9.727641345214844	0.052073886108398436	0.14604630126953125	3.63922119140625	-4.428863525390625	-2.43377685546875	
277	1.108	0.0	0.0	0.0	0.0	0.0	0.006	0.006	0.003	9.906009368896484	0.2609679809570312	-0.004189852905273437	0.31280517578125	-2.391815185546875	-1.064300537109375	9.707290631103515	0.33698388366699217	0.3238157745361328	0.919342041015625	-4.932403564453125	-3.170013427734375	9.795876092529296	0.09696516723632811	-0.0652419952392578	3.597259521484375	-4.772186279296875	-2.1209716796875	
278	1.112	0.0	0.0	0.0	0.0	0.003	0.006	0.006	0.003	9.931747036743163	0.3525461944580078	-0.04668693237304687	4.18853759765625	-4.302978515625	-0.6256103515625	9.686939916992188	0.4477157104492187	0.18435352783203124	0.80108642578125	-5.0048828125	-3.360748291015625	9.86411083984375	-0.04548983154296875	-0.017956512451171875	3.719329833984375	-4.283905029296875	-2.399444580078125	
279	1.116	0.0	0.0	0.0	0.0	0.003	0.006	0.006	0.006	9.95329485168457	0.18076222534179687	-0.14963760375976562	0.225067138671875	-2.368927001953125	-0.8087158203125	9.724050042724608	0.2950853546142578	0.2501940734863281	0.499725341796875	-4.886627197265625	-3.143310546875	9.826402163696288	0.004189852905273437	-0.12868833923339842	3.589630126953125	-4.55474853515625	-2.23541259765625	
280	1.12	0.0	0.0	0.0	0.0	0.006	0.006	0.003	0.006	9.90840357055664	0.5351040710449219	0.009576806640625	5.0811767578125	-5.126953125	-0.766754150390625	9.635464581298828	0.5512649322509765	0.22206220397949217	0.751495361328125	-5.008697509765625	-3.124237060546875	9.828197814941406	0.008379705810546874	-0.08319850769042968	3.83758544921875	-4.467010498046875	-2.25830078125	
281	1.124	0.0	0.0	0.0	0.0	0.003	0.003	0.006	0.003	10.01733974609375	0.30406361083984373	-0.15741875915527342	7.07244873046875	-6.870269775390625	-0.7476806640625	9.81862100830078	0.26396073303222656	-0.06703764648437499	0.331878662109375	-4.573822021484375	-2.55584716796875	9.90122096557617	-0.03651157531738281	-0.20051438903808594	3.4942626953125	-4.75311279296875	-2.063751220703125	
282	1.1280000000000001	0.0	0.0	0.0	0.0	0.006	0.006	0.003	0.006	9.925162982177733	0.42975919799804685	-0.05027823486328125	5.382537841796875	-5.413055419921875	-0.774383544921875	9.630676177978515	0.5404910247802734	0.19093758239746092	0.49591064453125	-4.573822021484375	-3.116607666015625	9.93354268798828	-0.06584054565429687	-0.15502455749511718	3.810882568359375	-4.665374755859375	-2.0904541015625	
283	1.1320000000000001	0.0	0.0	0.0	0.0	0.006	0.003	0.003	0.006	9.9981861328125	0.3274070770263672	-0.17238251953125	7.007598876953125	-6.649017333984375	-0.629425048828125	9.783905084228515	0.2914940521240234	-0.14784195251464843	0.598907470703125	-5.001068115234375	-2.704620361328125	9.958083255004881	-0.05087678527832031	-0.21966800231933592	3.85284423828125	-4.45556640625	-2.124786376953125	
284	1.1360000000000001	0.0	0.0	0.0	0.0	0.009000000000000001	0.003	0.006	0.003	9.917381826782226	0.5530605834960938	-0.044891281127929686	6.542205810546875	-6.195068359375	-0.698089599609375	9.86411083984375	0.5494692810058593	0.012569558715820313	1.010894775390625	-4.871368408203125	-2.62451171875	9.885658654785155	-0.003591302490234375	-0.11133037719726561	3.86810302734375	-4.131317138671875	-2.048492431640625	
285	1.1400000000000001	0.0	0.0	0.0	0.0	0.003	0.003	0.003	0.006	10.028113653564452	0.058657940673828124	-0.20769699401855468	6.805419921875	-6.6375732421875	-1.155853271484375	9.759963067626952	0.3315969299316406	-0.15322890625	1.10626220703125	-4.955291748046875	-2.964019775390625	10.032902056884765	-0.15322890625	-0.13946224670410157	3.993988037109375	-4.695892333984375	-2.193450927734375	
286	1.1440000000000001	0.0	0.0	0.0	0.0	0.003	0.003	0.003	0.006	9.889848507690429	-0.2914940521240234	-0.11791443176269531	2.89154052734375	-4.425048828125	-0.87738037109375	9.846154327392577	0.5680243438720702	-0.062249243164062495	1.373291015625	-4.734039306640625	-2.89154052734375	10.230423693847655	0.0430956298828125	-0.5548562347412109	3.5552978515625	-4.627227783203125	-2.044677734375	
287	1.1480000000000001	0.0	0.0	0.0	0.0	0.003	0.006	0.003	0.006	9.949703549194336	-0.12210428466796874	-0.12090718383789062	5.611419677734375	-5.9814453125	-0.9613037109375	9.847949978637695	0.37828386230468747	0.33399113159179683	0.888824462890625	-4.886627197265625	-3.200531005859375	10.001178884887695	-0.11133037719726561	-0.10654197387695312	3.60870361328125	-4.169464111328125	-1.9989013671875	
288	1.1520000000000001	0.0	0.0	0.0	0.0	0.006	0.006	0.003	0.003	9.852139831542969	-0.21009119567871093	0.07302315063476562	1.86920166015625	-3.215789794921875	-0.858306884765625	9.874884747314452	0.4644751220703125	0.014963760375976562	1.583099365234375	-4.932403564453125	-2.742767333984375	10.34235262145996	-0.003591302490234375	-0.6009446166992187	3.7078857421875	-4.383087158203125	-2.170562744140625	
289	1.156	0.0	0.0	0.0	0.0	0.003	0.003	0.006	0.006	9.906009368896484	-0.16220716247558592	0.0143652099609375	-0.133514404296875	-5.16510009765625	-1.026153564453125	9.905410818481444	0.37828386230468747	0.34715924072265625	0.75531005859375	-4.90570068359375	-3.162384033203125	10.043077413940429	-0.12988544006347655	-0.1149216796875	3.08990478515625	-4.711151123046875	-1.80816650390625	
290	1.16	0.0	0.0	0.0	0.0	0.003	0.003	0.006	0.006	9.80665	-0.17417817077636719	0.12569558715820311	0.61798095703125	-2.399444580078125	-0.888824462890625	9.781510882568359	0.46686932373046874	0.19393033447265623	0.972747802734375	-5.069732666015625	-2.98309326171875	10.219051235961913	-0.008978256225585938	-0.5129577056884765	3.757476806640625	-4.53948974609375	-2.08282470703125	
291	1.164	0.0	0.0	0.0	0.0	0.006	0.003	0.006	0.009000000000000001	9.639055883789062	0.08140285644531249	0.38845921936035155	0.926971435546875	-2.429962158203125	-0.701904296875	9.957484704589843	0.36750995483398435	0.2932897033691406	0.4730224609375	-4.8675537109375	-2.8533935546875	10.166977349853514	0.011372457885742187	-0.4129997863769531	3.520965576171875	-4.730224609375	-1.8310546875	
292	1.168	0.0	0.0	0.0	0.0	0.003	0.003	0.006	0.003	9.943718045043944	-0.08858546142578125	-0.09038111267089843	0.5645751953125	-2.46429443359375	-0.8544921875	9.970054263305663	0.5458779785156249	-0.058657940673828124	0.90789794921875	-4.67681884765625	-2.66265869140625	10.267533819580077	-0.034715924072265626	-0.5021837982177734	3.406524658203125	-4.21905517578125	-2.101898193359375	
293	1.172	0.0	0.0	0.0	0.0	0.0	0.003	0.003	0.006	9.660603698730467	0.24899697265624998	0.4369418029785156	2.468109130859375	-3.79180908203125	-0.9307861328125	9.8449572265625	0.38367081604003905	0.32142157287597656	0.362396240234375	-4.924774169921875	-2.83050537109375	10.127473022460936	0.1274912384033203	-0.36571430358886714	3.4637451171875	-4.69970703125	-1.861572265625	
294	1.176	0.0	0.0	0.0	0.0	0.006	0.006	0.006	0.003	9.896432562255859	0.2651578338623047	0.36272155151367186	-0.202178955078125	-2.040863037109375	-0.743865966796875	9.879074600219726	0.5835866546630859	-0.08319850769042968	1.728057861328125	-4.993438720703125	-2.765655517578125	10.152013589477539	-0.10953472595214843	-0.4704606262207031	3.570556640625	-4.82940673828125	-2.155303955078125	
295	1.18	0.0	0.0	0.0	0.0	0.009000000000000001	0.003	0.006	0.009000000000000001	9.685742816162108	0.0796072052001953	0.4010287780761719	2.13623046875	-3.1890869140625	-0.90789794921875	9.7683427734375	0.5542576843261718	0.25917232971191406	0.804901123046875	-5.0048828125	-3.063201904296875	10.178948358154296	0.04129997863769531	-0.26396073303222656	3.5247802734375	-4.611968994140625	-1.62506103515625	
296	1.184	0.0	0.0	0.0	0.0	0.003	0.003	0.006	0.003	9.740210903930663	0.13108254089355467	0.39923312683105466	-0.339508056640625	-1.567840576171875	-0.843048095703125	9.894038360595703	0.5111620544433594	0.051475335693359374	1.476287841796875	-4.85992431640625	-3.032684326171875	10.192116467285155	-0.12808978881835936	-0.44592005920410155	3.51715087890625	-4.669189453125	-1.93023681640625	
297	1.188	0.0	0.0	0.0	0.0	0.006	0.003	0.003	4.548	9.624690673828125	0.2376245147705078	0.3968389251708984	1.56402587890625	-3.021240234375	-1.018524169921875	9.658209497070311	0.6392518432617187	0.430956298828125	0.408172607421875	-4.764556884765625	-3.1890869140625	9.804854348754882	0.13168109130859373	-0.03950432739257812	3.448486328125	-4.764556884765625	-2.231597900390625	
298	1.192	0.0	0.0	0.0	0.0	4.548	4.605	4.614	4.539	9.852139831542969	0.14963760375976562	0.2651578338623047	-0.743865966796875	-1.552581787109375	-1.007080078125	9.924564431762695	0.34177228698730466	0.12569558715820311	0.713348388671875	-4.6844482421875	-2.89154052734375	10.259154113769531	-0.16639701538085935	-0.411802685546875	3.551483154296875	-4.73785400390625	-1.861572265625	
299	1.196	0.0	0.0	0.0	0.0	4.557	4.611	4.614	4.527	9.919177478027343	0.13766659545898435	0.11372457885742186	2.03704833984375	-3.448486328125	-1.0528564453125	9.636063131713867	0.661398208618164	0.43514615173339843	0.7476806640625	-5.01251220703125	-3.0517578125	9.8311905670166	0.05566518859863281	-0.04608838195800781	3.65447998046875	-4.69207763671875	-2.20489501953125	
300	1.2	0.0	0.0	0.0	0.0	4.569	4.6080000000000005	4.611	4.53	9.808445651245117	0.23582886352539062	0.2950853546142578	-1.22833251953125	-1.392364501953125	-0.865936279296875	9.82580361328125	0.38845921936035155	0.1322796417236328	0.885009765625	-4.802703857421875	-3.276824951171875	10.16338604736328	-0.11791443176269531	-0.2759317413330078	3.72314453125	-4.7454833984375	-1.953125	
301	1.204	0.0	0.0	0.0	0.0	4.566	4.602	4.611	4.551	9.852738381958007	0.14185644836425781	0.21966800231933592	1.5716552734375	-2.895355224609375	-1.026153564453125	9.665990652465819	0.5093664031982421	0.4423287567138672	0.568389892578125	-4.718780517578125	-3.253936767578125	9.821015209960937	-0.027533319091796873	0.07601590270996093	3.66973876953125	-4.718780517578125	-2.3345947265625	
302	1.208	0.0	0.0	0.0	0.0	4.5600000000000005	4.614	4.611	4.554	9.805452899169921	0.07841010437011718	0.25318682556152344	-0.995635986328125	-1.617431640625	-0.911712646484375	9.804255798339844	0.42437224426269526	0.08439560852050781	1.3580322265625	-5.08880615234375	-3.376007080078125	9.916783276367187	0.10893617553710937	-0.1370680450439453	3.7078857421875	-4.64630126953125	-2.0294189453125	
303	1.212	0.0	0.0	0.0	0.0	4.557	4.6080000000000005	4.611	4.5600000000000005	9.790489138793944	0.18435352783203124	0.2645592834472656	1.117706298828125	-2.819061279296875	-0.84686279296875	9.62169792175293	0.5351040710449219	0.33099837951660155	0.7781982421875	-4.962921142578125	-3.383636474609375	9.731831198120117	0.1592144104003906	0.18734627990722655	3.9520263671875	-4.608154296875	-2.803802490234375	
304	1.216	0.0	0.0	0.0	0.0	4.545	4.6080000000000005	0.003	0.003	10.02392380065918	0.3268085266113281	-0.04129997863769531	3.0670166015625	-4.123687744140625	-0.96893310546875	9.827000714111328	0.3274070770263672	0.17118541870117188	0.629425048828125	-4.9896240234375	-2.79998779296875	9.94671079711914	0.044292730712890624	-0.28790274963378903	4.024505615234375	-4.970550537109375	-1.811981201171875	
305	1.22	0.0	0.0	0.0	0.0	0.003	0.003	0.003	0.006	9.813832604980469	0.10235212097167969	0.0526724365234375	0.614166259765625	-2.384185791015625	-1.026153564453125	9.743203656005859	0.5213374114990235	0.18315642700195311	0.8697509765625	-4.970550537109375	-3.05938720703125	10.038289010620117	-0.12330138549804687	-0.40880993347167965	3.60870361328125	-4.608154296875	-2.040863037109375	
