	time	dac1	dac2	dac3	dac4	adc1.3	adc2.3	adc3.3	adc4.3	imu1accx	imu1accy	imu1accz	imu1gyrox	imu1gyroy	imu1gyroz	imu2accx	imu2accy	imu2accz	imu2gyrox	imu2gyroy	imu2gyroz	imu3accx	imu3accy	imu3accz	imu3gyrox	imu3gyroy	imu3gyroz	log
0	0.0	0.0	0.0	0.0	0.0	0.003	0.003	0.003	0.006	9.866505041503906	0.034715924072265626	0.10893617553710937	2.38800048828125	-3.68499755859375	-0.84686279296875	9.777919580078125	0.38367081604003905	0.17597382202148437	0.9002685546875	-5.229949951171875	-2.98309326171875	10.017938296508788	-0.07900865478515624	-0.201112939453125	3.528594970703125	-4.489898681640625	-1.926422119140625	Estabilizou em 11s, 2402 rpm
1	0.004	0.0	0.0	0.0	0.0	0.003	0.006	0.006	0.003	9.871891995239258	0.04848258361816406	0.10594342346191406	2.468109130859375	-3.85284423828125	-1.12152099609375	9.776123928833007	0.38666356811523434	0.1753752716064453	0.9002685546875	-4.825592041015625	-2.925872802734375	10.022128149414062	-0.06943184814453125	-0.20949264526367187	3.48663330078125	-4.57000732421875	-2.063751220703125	Started
2	0.008	0.0	0.0	0.0	0.0	0.003	0.003	0.003	0.006	9.860519537353515	0.06404489440917968	0.09217676391601562	2.780914306640625	-3.566741943359375	-0.904083251953125	9.785102185058593	0.40940848388671874	0.1849520782470703	1.041412353515625	-5.069732666015625	-2.9754638671875	10.013748443603514	-0.06464344482421874	-0.21906945190429686	3.662109375	-4.604339599609375	-1.99127197265625	IMU1|LSM6DS3|0x6A|I2C-1|±2g (±19,6m/s²)|±125º/s|400Hz
3	0.012	0.0	0.0	0.0	0.0	0.006	0.003	0.003	0.006	9.861716638183593	0.07122749938964844	0.08559270935058594	2.460479736328125	-3.765106201171875	-0.8087158203125	9.78629928588867	0.41539398803710936	0.16759411621093748	0.89263916015625	-4.93621826171875	-2.933502197265625	10.026916552734374	-0.05027823486328125	-0.2088940948486328	3.6163330078125	-4.69207763671875	-1.97601318359375	IMU2|LSM6DS3|0x6B|I2C-1|±2g (±19,6m/s²)|±125º/s|400Hz
4	0.016	0.0	0.0	0.0	0.0	0.003	0.003	0.006	0.003	9.871293444824218	0.07781155395507812	0.07302315063476562	2.582550048828125	-3.864288330078125	-0.949859619140625	9.777919580078125	0.430956298828125	0.17776947326660156	0.99945068359375	-5.06591796875	-2.895355224609375	10.016142645263672	-0.04189852905273437	-0.21248539733886718	3.16619873046875	-4.543304443359375	-2.048492431640625	IMU3|LSM6DS3|0x6B|I2C-2|±2g (±19,6m/s²)|±125º/s|400Hz
5	0.02	0.0	0.0	0.0	0.0	0.0	0.006	0.003	0.0	9.871293444824218	0.086191259765625	0.06344634399414062	2.61688232421875	-3.902435302734375	-0.736236572265625	9.773729727172851	0.4435258575439453	0.1580173095703125	0.96893310546875	-4.8370361328125	-2.93731689453125	10.016142645263672	-0.029328970336914062	-0.21787235107421873	3.513336181640625	-4.512786865234375	-1.93023681640625	ADC|ADS1015|0|0|1|0|±6,144 V|2400 SPS
6	0.024	0.0	0.0	0.0	0.0	0.003	0.003	0.006	0.003	9.861118087768554	0.1083376251220703	0.06584054565429687	2.70843505859375	-3.692626953125	-0.820159912109375	9.777919580078125	0.4513070129394531	0.14425065002441406	0.881195068359375	-4.94384765625	-3.16619873046875	10.019135397338866	-0.02154781494140625	-0.2442085693359375	3.6468505859375	-4.550933837890625	-2.040863037109375	Gen1|Disabled
7	0.028	0.0	0.0	0.0	0.0	0.003	0.003	0.006	0.003	9.861716638183593	0.12210428466796874	0.03890577697753906	2.468109130859375	-3.89862060546875	-0.926971435546875	9.782109432983399	0.4638765716552734	0.14544775085449219	0.8544921875	-4.974365234375	-2.90679931640625	10.020931048583984	-0.002992752075195312	-0.23882161560058593	3.421783447265625	-4.550933837890625	-1.983642578125	Gen2|Enabled|Noise|0.0|10.0|1668
8	0.032	0.0	0.0	0.0	0.0	0.003	0.006	0.003	0.006	9.867702142333984	0.13287819213867186	0.03950432739257812	2.597808837890625	-3.5247802734375	-0.95367431640625	9.784503634643555	0.49260699157714843	0.13766659545898435	0.820159912109375	-5.161285400390625	-3.07464599609375	10.015544094848632	0.009576806640625	-0.24121581726074218	3.72314453125	-4.596710205078125	-1.922607421875	Gen3|Enabled|Noise|0.0|10.0|128
9	0.036000000000000004	0.0	0.0	0.0	0.0	0.006	0.006	0.006	0.006	9.872490545654296	0.13826514587402344	0.03531447448730469	2.704620361328125	-3.803253173828125	-0.942230224609375	9.776722479248047	0.5051765502929687	0.12030863342285156	0.58746337890625	-4.852294921875	-2.910614013671875	10.014945544433592	0.03172317199707031	-0.2645592834472656	3.604888916015625	-4.535675048828125	-2.025604248046875	Gen4|Enabled|Noise|0.0|10.0|128
10	0.04	0.0	0.0	0.0	0.0	0.009000000000000001	0.006	0.003	0.006	9.8694977935791	0.1592144104003906	0.02693476867675781	2.6397705078125	-3.7078857421875	-0.69427490234375	9.77432827758789	0.517746109008789	0.1227028350830078	0.9765625	-5.02777099609375	-2.9144287109375	10.02332525024414	0.04908113403320312	-0.2603694305419922	3.604888916015625	-4.72259521484375	-2.15911865234375	Ctrl|Disabled
11	0.044	0.0	0.0	0.0	0.0	0.006	0.003	0.003	0.006	9.85632968444824	0.15203180541992187	0.05327098693847656	2.536773681640625	-3.673553466796875	-0.789642333984375	9.777321029663085	0.507570751953125	0.11432312927246092	0.865936279296875	-4.848480224609375	-3.078460693359375	10.025719451904296	0.023343466186523436	-0.2741360900878906	3.63922119140625	-4.61578369140625	-2.063751220703125	
12	0.048	0.0	0.0	0.0	0.0	0.003	0.003	0.006	0.009000000000000001	9.87069489440918	0.20350714111328125	0.011372457885742187	2.803802490234375	-3.6773681640625	-0.843048095703125	9.789890588378906	0.5865794067382812	0.08918401184082031	0.87738037109375	-4.993438720703125	-3.032684326171875	10.028113653564452	0.105344873046875	-0.2759317413330078	3.80706787109375	-4.58526611328125	-2.002716064453125	
13	0.052000000000000005	0.0	0.0	0.0	0.0	0.003	0.006	0.003	0.006	9.846154327392577	0.17836802368164062	0.058657940673828124	2.490997314453125	-3.70025634765625	-0.743865966796875	9.749189160156249	0.584185205078125	0.14006079711914063	0.957489013671875	-4.909515380859375	-2.582550048828125	10.007164389038085	0.0939724151611328	-0.28371289672851563	3.543853759765625	-4.596710205078125	-2.170562744140625	
14	0.056	0.0	0.0	0.0	0.0	-0.003	0.006	0.003	0.006	9.861716638183593	0.10235212097167969	0.011971008300781249	2.2735595703125	-3.543853759765625	-0.9002685546875	9.79946739501953	0.5027823486328125	0.06883329772949218	0.797271728515625	-4.8065185546875	-3.13568115234375	10.04846436767578	-0.0526724365234375	-0.31543606872558594	3.692626953125	-4.7760009765625	-2.033233642578125	
15	0.06	0.0	0.0	0.0	0.0	0.006	0.006	0.003	0.0	9.847949978637695	0.20051438903808594	0.07062894897460938	2.67791748046875	-3.77655029296875	-0.79345703125	9.737218151855469	0.679953271484375	0.15981296081542967	0.797271728515625	-5.275726318359375	-3.101348876953125	10.036493359375	0.19931728820800781	-0.3136404174804687	3.673553466796875	-4.512786865234375	-1.857757568359375	
16	0.064	0.0	0.0	0.0	0.0	0.003	0.003	0.003	0.003	9.861118087768554	0.11372457885742186	0.017956512451171875	1.705169677734375	-3.398895263671875	-0.946044921875	9.792284790039062	0.49739539489746093	0.07900865478515624	0.79345703125	-4.70733642578125	-2.925872802734375	10.038289010620117	0.008379705810546874	-0.3477577911376953	3.60870361328125	-4.566192626953125	-2.162933349609375	
17	0.068	0.0	0.0	0.0	0.0	0.003	0.006	0.003	0.003	9.834183319091796	0.1610100616455078	0.09157821350097656	2.349853515625	-3.612518310546875	-0.90789794921875	9.725845693969726	0.5764040496826172	0.18734627990722655	1.018524169921875	-5.062103271484375	-2.899169921875	10.033500607299803	0.09157821350097656	-0.3022679595947265	3.589630126953125	-4.657745361328125	-2.01416015625	
18	0.07200000000000001	0.0	0.0	0.0	0.0	0.0	0.006	0.006	0.003	9.872490545654296	0.08259995727539061	0.04189852905273437	1.712799072265625	-3.330230712890625	-1.03759765625	9.82520506286621	0.5003881469726562	0.0718260498046875	1.02996826171875	-4.985809326171875	-3.047943115234375	10.088567245483398	0.008978256225585938	-0.34715924072265625	3.482818603515625	-4.6539306640625	-2.414703369140625	
19	0.076	0.0	0.0	0.0	0.0	0.009000000000000001	0.003	0.003	0.006	9.8694977935791	0.24121581726074218	0.037110125732421874	1.800537109375	-3.30352783203125	-0.980377197265625	9.696516723632811	0.6374561920166015	0.2316390106201172	0.946044921875	-4.940032958984375	-2.895355224609375	10.021529598999022	0.19333178405761717	-0.24779987182617186	3.509521484375	-4.547119140625	-1.9378662109375	
20	0.08	0.0	0.0	0.0	0.0	0.003	0.006	0.003	0.003	9.847949978637695	-0.001197100830078125	0.06763619689941405	1.3580322265625	-2.994537353515625	-0.9002685546875	9.821015209960937	0.35134909362792965	0.08499415893554688	1.04522705078125	-4.94384765625	-3.12042236328125	10.084377392578125	-0.1227028350830078	-0.3393780853271484	3.44085693359375	-4.619598388671875	-1.96075439453125	
21	0.084	0.0	0.0	0.0	0.0	0.006	0.006	0.006	0.006	9.888052856445311	0.18854338073730467	0.04548983154296875	2.071380615234375	-3.437042236328125	-1.06048583984375	9.76894132385254	0.6416460449218749	0.19632453613281248	1.125335693359375	-4.940032958984375	-3.05938720703125	10.062829577636718	0.15083470458984374	-0.20769699401855468	3.398895263671875	-4.6539306640625	-2.044677734375	
22	0.088	0.0	0.0	0.0	0.0	0.006	0.006	0.006	0.006	9.892841259765625	0.2555810272216797	0.044891281127929686	2.81524658203125	-3.536224365234375	-0.911712646484375	9.816226806640625	0.39803602600097654	0.0987608184814453	1.033782958984375	-4.913330078125	-2.8533935546875	10.047267266845703	-0.027533319091796873	-0.29089550170898437	3.444671630859375	-4.581451416015625	-1.9073486328125	
23	0.092	0.0	0.0	0.0	0.0	0.003	0.003	0.006	0.006	9.880870251464843	0.1640028137207031	0.06943184814453125	1.89971923828125	-2.964019775390625	-0.80108642578125	9.750386260986328	0.5823895538330078	0.22505495605468748	0.78582763671875	-4.96673583984375	-3.11279296875	10.035894808959961	0.086191259765625	-0.17956512451171874	3.391265869140625	-4.58526611328125	-1.804351806640625	
24	0.096	0.0	0.0	0.0	0.0	0.003	0.003	0.003	0.006	9.886855755615233	0.1975216369628906	0.05386953735351562	2.544403076171875	-3.787994384765625	-0.850677490234375	9.782707983398437	0.3597287994384765	0.2280477081298828	0.52642822265625	-4.9285888671875	-2.895355224609375	10.073603485107421	-0.14245499877929688	-0.27293898925781246	3.4027099609375	-4.604339599609375	-1.96075439453125	
25	0.1	0.0	0.0	0.0	0.0	0.006	0.003	0.003	0.003	9.900622415161132	0.1801636749267578	0.07601590270996093	1.811981201171875	-3.2806396484375	-0.946044921875	9.756371765136718	0.6566098052978515	0.2442085693359375	1.255035400390625	-5.0811767578125	-3.170013427734375	9.967061511230469	0.10295067138671875	-0.1927332336425781	3.71551513671875	-4.60052490234375	-2.246856689453125	
26	0.10400000000000001	0.0	0.0	0.0	0.0	0.009000000000000001	0.003	0.003	0.006	9.88266590270996	0.23523031311035156	0.05087678527832031	2.79998779296875	-3.734588623046875	-0.57220458984375	9.753379013061522	0.34117373657226563	0.24061726684570311	0.690460205078125	-4.894256591796875	-2.593994140625	10.019733947753906	-0.13287819213867186	-0.277727392578125	3.692626953125	-4.840850830078125	-1.903533935546875	
27	0.108	0.0	0.0	0.0	0.0	-0.003	0.006	0.003	0.006	9.854534033203125	0.20290859069824219	0.13347674255371092	3.631591796875	-4.253387451171875	-0.736236572265625	9.737218151855469	0.4531026641845703	0.22445640563964842	0.934600830078125	-4.680633544921875	-3.173828125	9.952097750854492	0.013766659545898436	-0.16220716247558592	3.810882568359375	-4.489898681640625	-2.18963623046875	
28	0.112	0.0	0.0	0.0	0.0	0.006	0.003	0.003	0.006	9.897031112670899	0.23702596435546874	0.040701428222656245	2.8228759765625	-3.604888916015625	-0.827789306640625	9.796474642944336	0.32022447204589843	0.22744915771484372	0.690460205078125	-4.98199462890625	-2.826690673828125	10.05564697265625	-0.1406593475341797	-0.3082534637451172	3.509521484375	-4.75311279296875	-1.972198486328125	
29	0.116	0.0	0.0	0.0	0.0	0.006	0.003	0.003	0.006	9.834183319091796	0.2723404388427734	0.13467384338378904	4.146575927734375	-4.291534423828125	-0.84686279296875	9.702502227783203	0.5039794494628906	0.22505495605468748	1.2054443359375	-4.8828125	-2.99835205078125	9.916783276367187	0.05626373901367187	-0.15562310791015624	3.70025634765625	-4.673004150390625	-2.292633056640625	
30	0.12	0.0	0.0	0.0	0.0	0.006	0.003	0.003	0.003	9.884461553955077	0.25438392639160157	0.06943184814453125	2.4261474609375	-3.9520263671875	-0.904083251953125	9.73063409729004	0.4572925170898437	0.16519991455078123	0.79345703125	-5.161285400390625	-2.8839111328125	9.920374578857421	0.00239420166015625	-0.09816226806640624	3.582000732421875	-4.7760009765625	-1.911163330078125	
31	0.124	0.0	0.0	0.0	0.0	0.009000000000000001	0.006	0.003	0.006	9.875483297729492	0.2280477081298828	0.12389993591308593	4.398345947265625	-4.505157470703125	-0.904083251953125	9.751583361816406	0.4429273071289062	0.21308394775390624	0.980377197265625	-5.115509033203125	-3.437042236328125	9.961076007080077	-0.011372457885742187	-0.16460136413574217	3.673553466796875	-4.367828369140625	-2.399444580078125	
32	0.128	0.0	0.0	0.0	0.0	0.006	0.003	0.003	0.003	9.922768780517577	0.08678981018066406	0.02154781494140625	3.570556640625	-4.50897216796875	-0.92315673828125	9.733028298950195	0.48063598327636714	0.14604630126953125	0.92315673828125	-4.909515380859375	-2.5482177734375	9.893439810180663	0.020350714111328123	-0.11552023010253906	3.56292724609375	-4.611968994140625	-1.83868408203125	
33	0.132	0.0	0.0	0.0	0.0	0.003	0.003	0.003	0.006	9.853336932373047	0.2765302917480469	0.13826514587402344	4.337310791015625	-4.825592041015625	-1.117706298828125	9.791087689208984	0.36750995483398435	0.11432312927246092	1.0986328125	-4.94384765625	-3.231048583984375	10.03050785522461	-0.19153613281249998	-0.21607669982910155	3.536224365234375	-4.425048828125	-2.422332763671875	
34	0.136	0.0	0.0	0.0	0.0	0.003	0.003	0.006	0.006	9.910199221801758	0.031124621582031248	0.025139117431640625	3.77655029296875	-4.50897216796875	-0.732421875	9.758765966796874	0.41958384094238277	0.12509703674316405	0.92315673828125	-5.02777099609375	-2.552032470703125	9.94072529296875	-0.028730419921875	-0.1227028350830078	3.498077392578125	-4.547119140625	-1.766204833984375	
35	0.14	0.0	0.0	0.0	0.0	0.006	0.003	0.003	0.006	9.899425314331054	0.16699556579589842	-0.025139117431640625	2.620697021484375	-3.77655029296875	-1.0986328125	9.82460651245117	0.3274070770263672	0.0987608184814453	1.0833740234375	-4.703521728515625	-3.265380859375	10.06163247680664	-0.2346317626953125	-0.2328361114501953	3.83758544921875	-4.543304443359375	-2.407073974609375	
36	0.14400000000000002	0.0	0.0	0.0	0.0	0.003	0.003	0.006	0.006	9.889249957275391	0.07003039855957031	0.04249707946777344	3.841400146484375	-4.669189453125	-0.9613037109375	9.777919580078125	0.5770026000976562	0.2723404388427734	0.843048095703125	-5.0201416015625	-2.674102783203125	10.01733974609375	0.17776947326660156	-0.1897404815673828	3.673553466796875	-4.52423095703125	-1.804351806640625	
37	0.148	0.0	0.0	0.0	0.0	0.006	0.006	0.006	0.003	9.893439810180663	-0.3507505432128906	-0.018555062866210937	2.422332763671875	-3.662109375	-0.80108642578125	9.809044201660155	0.3333925811767578	0.1197100830078125	0.8087158203125	-5.016326904296875	-3.376007080078125	10.050260018920898	-0.24301146850585936	-0.2346317626953125	3.543853759765625	-4.32586669921875	-2.41851806640625	
38	0.152	0.0	0.0	0.0	0.0	0.006	0.006	0.003	0.006	9.907206469726562	-0.0047884033203125	0.033518823242187495	3.692626953125	-4.50897216796875	-0.865936279296875	9.826402163696288	0.4991910461425781	0.239420166015625	0.823974609375	-4.75311279296875	-2.84576416015625	10.066420880126952	0.10953472595214843	-0.20290859069824219	3.41033935546875	-4.5928955078125	-1.99127197265625	
39	0.156	0.0	0.0	0.0	0.0	0.003	0.003	0.003	0.006	9.890447058105469	-0.3705027069091797	-0.034715924072265626	2.23541259765625	-3.41796875	-0.988006591796875	9.801263046264648	0.4159925384521484	0.11192892761230468	0.789642333984375	-4.76837158203125	-2.90679931640625	10.040683212280273	-0.19572598571777342	-0.239420166015625	3.490447998046875	-4.638671875	-2.02178955078125	
40	0.16	0.0	0.0	0.0	0.0	0.006	0.003	0.003	0.003	9.722254391479492	-0.08499415893554688	0.296881005859375	1.3580322265625	-2.93731689453125	-0.57220458984375	9.790489138793944	0.5686228942871093	0.23642741394042968	0.9002685546875	-5.14984130859375	-2.689361572265625	10.036493359375	0.19931728820800781	-0.2136824981689453	3.391265869140625	-4.7149658203125	-1.67083740234375	
41	0.164	0.0	0.0	0.0	0.0	0.003	0.003	0.003	0.006	9.90840357055664	-0.4644751220703125	-0.0652419952392578	1.903533935546875	-3.246307373046875	-1.018524169921875	9.905410818481444	0.10354922180175781	0.04608838195800781	1.28173828125	-5.34820556640625	-2.887725830078125	10.175357055664062	-0.42497079467773435	-0.40940848388671874	3.513336181640625	-4.61578369140625	-1.983642578125	
42	0.168	0.0	0.0	0.0	0.0	0.003	0.003	0.003	0.003	9.725247143554688	-0.1083376251220703	0.24480711975097655	1.220703125	-2.727508544921875	-0.553131103515625	9.810241302490233	0.5704185455322265	0.1975216369628906	0.0152587890625	-5.084991455078125	-2.979278564453125	10.0748005859375	0.20709844360351562	-0.2561795776367187	3.4942626953125	-4.61578369140625	-1.712799072265625	
43	0.17200000000000001	0.0	0.0	0.0	0.0	0.003	0.006	0.006	0.003	9.87009634399414	-0.4572925170898437	-0.054468087768554684	1.10626220703125	-3.3721923828125	-1.13677978515625	9.88266590270996	0.18555062866210936	0.052073886108398436	1.28173828125	-5.4168701171875	-3.1280517578125	10.13884548034668	-0.3393780853271484	-0.41539398803710936	3.5400390625	-4.604339599609375	-2.25067138671875	
44	0.176	0.0	0.0	0.0	0.0	0.003	0.003	0.003	0.0	9.725247143554688	-0.09816226806640624	0.24061726684570311	0.9918212890625	-2.727508544921875	-0.79345703125	9.747393508911133	0.6392518432617187	0.19812018737792966	1.171112060546875	-4.657745361328125	-3.021240234375	10.003573086547851	0.26336218261718747	-0.13826514587402344	3.3416748046875	-4.474639892578125	-2.12860107421875	
45	0.18	0.0	0.0	0.0	0.0	0.003	0.006	0.003	0.003	9.827599264526366	0.0526724365234375	0.12629413757324218	0.1983642578125	-1.850128173828125	-0.6866455078125	9.911994873046874	0.18375497741699218	0.003591302490234375	1.155853271484375	-5.14984130859375	-2.9144287109375	10.199897622680663	-0.39145197143554683	-0.4537012145996093	3.505706787109375	-4.61578369140625	-2.094268798828125	
46	0.184	0.0	0.0	0.0	0.0	0.006	0.003	0.003	0.003	9.718663088989258	-0.037110125732421874	0.25139117431640623	0.86212158203125	-2.529144287109375	-0.629425048828125	9.73063409729004	0.6943184814453125	0.19991583862304688	1.4495849609375	-4.9591064453125	-2.925872802734375	10.003573086547851	0.33039982910156246	-0.12808978881835936	3.345489501953125	-4.619598388671875	-1.94549560546875	
47	0.188	0.0	0.0	0.0	0.0	0.006	0.003	0.003	0.006	9.82520506286621	0.16998831787109375	0.11671733093261719	0.213623046875	-2.147674560546875	-0.743865966796875	9.78629928588867	0.32142157287597656	0.21428104858398436	0.682830810546875	-4.863739013671875	-2.685546875	10.007762939453125	-0.14185644836425781	-0.3902548706054687	3.406524658203125	-4.833221435546875	-1.621246337890625	
48	0.192	0.0	0.0	0.0	0.0	0.006	0.006	0.003	0.006	9.708487731933593	0.09157821350097656	0.15442600708007811	2.979278564453125	-3.7841796875	-1.354217529296875	9.752181912231444	0.7218518005371093	0.19393033447265623	1.079559326171875	-4.749298095703125	-2.849578857421875	10.024522351074218	0.3435679382324219	-0.13108254089355467	3.475189208984375	-4.6234130859375	-1.80816650390625	
49	0.196	0.0	0.0	0.0	0.0	0.0	0.006	0.006	0.006	9.834183319091796	0.23702596435546874	0.08559270935058594	0.66375732421875	-2.475738525390625	-0.881195068359375	9.79348189086914	0.3507505432128906	0.22685060729980466	0.86212158203125	-4.909515380859375	-2.86102294921875	10.036493359375	-0.13766659545898435	-0.40282442932128903	3.513336181640625	-4.817962646484375	-1.82342529296875	
50	0.2	0.0	0.0	0.0	0.0	0.006	0.006	0.003	0.006	9.904213717651366	0.7392097625732421	-0.011372457885742187	3.19671630859375	-3.84521484375	-1.171112060546875	9.775525378417969	0.6883329772949218	0.12808978881835936	1.007080078125	-4.795074462890625	-3.47137451171875	9.987412225341796	0.36810850524902344	-0.10893617553710937	3.83758544921875	-4.535675048828125	-2.666473388671875	
51	0.20400000000000001	0.0	0.0	0.0	0.0	0.006	0.006	0.003	0.009000000000000001	9.846752877807617	0.30406361083984373	0.08678981018066406	0.637054443359375	-2.1820068359375	-0.522613525390625	9.783306533813477	0.3890577697753906	0.22385785522460935	0.774383544921875	-4.94384765625	-2.9296875	10.019135397338866	-0.13587094421386717	-0.40880993347167965	3.658294677734375	-4.802703857421875	-1.850128173828125	
52	0.20800000000000002	0.0	0.0	0.0	0.0	0.003	0.003	0.003	0.003	9.917980377197265	0.7368155609130859	-0.028131869506835935	3.10516357421875	-4.02069091796875	-1.3427734375	9.792284790039062	0.7140706451416016	0.13646949462890623	0.957489013671875	-4.852294921875	-3.082275390625	9.9078050201416	0.24121581726074218	-0.22565350646972654	3.83758544921875	-4.18853759765625	-2.72369384765625	
53	0.212	0.0	0.0	0.0	0.0	0.003	0.006	0.003	0.003	9.937133990478515	0.6829460235595702	-0.10773907470703124	4.817962646484375	-5.237579345703125	-0.873565673828125	9.714473236083984	0.5889736083984375	0.11133037719726561	0.457763671875	-4.993438720703125	-2.5482177734375	10.001777435302733	-0.1388636962890625	-0.37888241271972656	3.47137451171875	-4.840850830078125	-1.77001953125	
54	0.216	0.0	0.0	0.0	0.0	0.003	0.003	0.006	0.003	9.90241806640625	0.7547720733642578	-0.028730419921875	3.28826904296875	-3.9825439453125	-1.2664794921875	9.789890588378906	0.7026981872558593	0.18315642700195311	0.99945068359375	-4.76837158203125	-3.421783447265625	9.886855755615233	0.24061726684570311	-0.19871873779296872	3.82232666015625	-4.604339599609375	-2.67791748046875	
55	0.22	0.0	0.0	0.0	0.0	0.006	0.003	0.003	0.003	9.925162982177733	0.6649895111083984	-0.10594342346191406	4.90570068359375	-5.3253173828125	-0.96893310546875	9.742605105590819	0.5668272430419922	0.1406593475341797	0.54168701171875	-4.79888916015625	-2.399444580078125	9.881468801879882	0.1693897674560547	-0.16460136413574217	3.528594970703125	-4.520416259765625	-1.728057861328125	
56	0.224	0.0	0.0	0.0	0.0	0.006	0.006	0.006	0.009000000000000001	9.889848507690429	0.7894879974365234	-0.037110125732421874	3.902435302734375	-4.390716552734375	-1.25885009765625	9.813832604980469	0.32620997619628905	0.006584054565429687	0.67901611328125	-4.95147705078125	-3.2501220703125	9.872490545654296	0.2998737579345703	-0.19033903198242186	3.963470458984375	-4.21142578125	-2.6092529296875	
57	0.228	0.0	0.0	0.0	0.0	0.003	0.003	0.006	0.006	9.891644158935547	0.6751648681640625	-0.06284779357910156	4.84466552734375	-5.474090576171875	-0.9918212890625	9.730035546875	0.4483142608642578	0.16699556579589842	0.308990478515625	-4.6844482421875	-2.35748291015625	9.87608184814453	0.10474632263183593	-0.13467384338378904	3.612518310546875	-4.69970703125	-1.73187255859375	
58	0.232	0.0	0.0	0.0	0.0	0.003	0.003	0.003	0.009000000000000001	9.924564431762695	0.001197100830078125	-0.00718260498046875	4.573822021484375	-5.37872314453125	-1.148223876953125	9.821613760375977	0.2819172454833984	0.008379705810546874	0.55694580078125	-4.7607421875	-3.16619873046875	10.090961447143554	-0.2998737579345703	-0.2723404388427734	3.66973876953125	-4.261016845703125	-2.29644775390625	
59	0.23600000000000002	0.0	0.0	0.0	0.0	0.003	0.006	0.003	0.003	9.893439810180663	0.7338228088378905	-0.051475335693359374	5.43975830078125	-5.5084228515625	-1.163482666015625	9.720458740234374	0.46627077331542965	0.18255787658691405	0.732421875	-5.1116943359375	-2.750396728515625	9.864709390258788	0.12509703674316405	-0.11791443176269531	3.414154052734375	-4.505157470703125	-1.85394287109375	
60	0.24	0.0	0.0	0.0	0.0	0.006	0.003	0.006	0.003	9.899425314331054	-0.05327098693847656	0.022744915771484374	4.12750244140625	-4.974365234375	-1.21307373046875	9.78689783630371	0.22505495605468748	0.040701428222656245	0.499725341796875	-4.711151123046875	-3.0517578125	10.062829577636718	-0.2741360900878906	-0.24121581726074218	3.787994384765625	-4.329681396484375	-2.62451171875	
61	0.244	0.0	0.0	0.0	0.0	0.003	0.003	0.006	0.006	9.892841259765625	0.6536170532226562	-0.09756371765136718	0.911712646484375	-2.532958984375	-0.6561279296875	9.731232647705077	0.47764323120117186	0.15502455749511718	0.8087158203125	-5.33294677734375	-2.86865234375	9.898228213500976	0.0383072265625	-0.11731588134765625	3.368377685546875	-4.82177734375	-1.62506103515625	
62	0.248	0.0	0.0	0.0	0.0	0.006	0.003	0.003	0.003	9.910797772216796	-0.16280571289062498	0.015562310791015624	3.932952880859375	-4.772186279296875	-1.3427734375	9.792284790039062	0.15322890625	0.04129997863769531	1.65557861328125	-4.96673583984375	-3.0670166015625	10.084975942993163	-0.3130418670654297	-0.2711433380126953	3.53240966796875	-4.398345947265625	-2.5787353515625	
63	0.252	0.0	0.0	0.0	0.0	0.006	0.003	0.006	0.006	9.815628256225585	-0.5572504364013672	0.21248539733886718	0.80108642578125	-2.99072265625	-0.49591064453125	9.689932669067382	0.5051765502929687	0.16220716247558592	1.110076904296875	-4.730224609375	-2.6092529296875	10.059238275146484	0.28012159423828126	-0.17298106994628906	3.35693359375	-4.69207763671875	-1.65557861328125	
64	0.256	0.0	0.0	0.0	0.0	0.006	0.006	0.003	0.003	9.903615167236328	-0.3016694091796875	0.01915361328125	3.56292724609375	-4.604339599609375	-1.251220703125	9.897031112670899	0.33578678283691404	0.05686228942871093	1.4801025390625	-4.619598388671875	-3.017425537109375	10.075399136352539	-0.3298012786865234	-0.25318682556152344	3.879547119140625	-4.29534912109375	-2.44903564453125	
65	0.26	0.0	0.0	0.0	0.0	0.003	0.006	0.003	0.003	9.815029705810547	-0.6206967803955078	0.22385785522460935	0.614166259765625	-2.4261474609375	-0.606536865234375	9.72285294189453	0.4525041137695312	0.14604630126953125	0.835418701171875	-5.0811767578125	-2.78472900390625	10.081983190917969	0.20470424194335937	-0.16160861206054686	3.658294677734375	-4.810333251953125	-1.667022705078125	
66	0.264	0.0	0.0	0.0	0.0	0.006	0.006	0.003	0.006	9.846154327392577	-0.6602011077880859	0.10773907470703124	-0.946044921875	-1.50299072265625	-0.6256103515625	9.920374578857421	0.3315969299316406	0.05327098693847656	1.64794921875	-5.023956298828125	-2.99072265625	10.212467181396484	-0.4961982940673828	-0.469263525390625	3.482818603515625	-4.474639892578125	-1.9989013671875	
67	0.268	0.0	0.0	0.0	0.0	0.006	0.003	0.006	0.003	9.809044201660155	-0.6111199737548828	0.23822306518554687	0.247955322265625	-2.51007080078125	-0.6256103515625	9.651026892089844	0.9660603698730468	0.4165910888671875	1.209259033203125	-4.8675537109375	-3.16619873046875	10.06163247680664	0.23343466186523437	-0.1322796417236328	3.47137451171875	-4.66156005859375	-1.483917236328125	
68	0.272	0.0	0.0	0.0	0.0	0.003	0.003	0.003	0.003	9.85692823486328	-0.556053335571289	0.1149216796875	-0.48065185546875	-1.590728759765625	-0.58746337890625	9.93354268798828	0.3315969299316406	0.040102877807617184	1.621246337890625	-5.115509033203125	-3.1280517578125	10.244788903808594	-0.5452794281005859	-0.4836287353515625	3.2196044921875	-4.505157470703125	-1.96075439453125	
69	0.276	0.0	0.0	0.0	0.0	0.003	0.006	0.006	0.003	9.807847100830077	-0.5434837768554687	0.27174188842773433	0.499725341796875	-2.3193359375	-0.5035400390625	9.693523971557617	1.0211270080566406	0.4261678955078125	1.544952392578125	-4.98199462890625	-3.032684326171875	10.034099157714843	0.5345055206298828	-0.07122749938964844	3.376007080078125	-4.581451416015625	-2.09808349609375	
70	0.28	0.0	0.0	0.0	0.0	0.003	0.003	0.006	0.006	9.849745629882811	-0.4782417816162109	0.15741875915527342	-0.316619873046875	-1.407623291015625	-0.560760498046875	9.853336932373047	0.4638765716552734	0.24361001892089842	0.492095947265625	-4.90570068359375	-2.864837646484375	10.197503421020507	-0.5674257934570313	-0.4752490295410156	3.345489501953125	-4.352569580078125	-1.644134521484375	
71	0.28400000000000003	0.0	0.0	0.0	0.0	0.003	0.006	0.003	0.006	9.83178911743164	0.7056909393310546	0.22385785522460935	2.742767333984375	-3.37982177734375	-0.9765625	9.692925421142577	0.8846575134277344	0.43574470214843747	1.178741455078125	-4.87518310546875	-3.1280517578125	10.005368737792969	0.4070142822265625	-0.05566518859863281	3.3111572265625	-4.650115966796875	-2.197265625	
72	0.28800000000000003	0.0	0.0	0.0	0.0	0.003	0.006	0.003	0.003	9.88386300354004	-0.36212300109863277	0.14006079711914063	-0.057220458984375	-1.68609619140625	-0.507354736328125	9.880870251464843	0.49021278991699213	0.19931728820800781	0.79345703125	-5.115509033203125	-2.864837646484375	10.214262832641602	-0.33518823242187495	-0.5404910247802734	3.368377685546875	-4.5623779296875	-1.819610595703125	
73	0.292	0.0	0.0	0.0	0.0	0.003	0.003	0.006	0.003	9.865906491088866	0.8463502868652343	0.14544775085449219	3.238677978515625	-3.63922119140625	-1.129150390625	9.797073193359374	0.6015431671142578	0.19632453613281248	0.58746337890625	-4.985809326171875	-2.857208251953125	10.006565838623047	0.48243163452148435	-0.10773907470703124	3.154754638671875	-4.7607421875	-1.85394287109375	
74	0.296	0.0	0.0	0.0	0.0	0.003	0.003	0.006	0.003	9.878476049804688	-0.3274070770263672	0.1610100616455078	4.98199462890625	-5.42449951171875	-0.69427490234375	9.894038360595703	0.37229835815429685	0.16639701538085935	0.576019287109375	-5.001068115234375	-2.887725830078125	10.005368737792969	-0.25917232971191406	-0.36930560607910157	3.41796875	-4.985809326171875	-1.789093017578125	
75	0.3	0.0	0.0	0.0	0.0	0.006	0.003	0.006	0.003	9.91558617553711	0.8984241729736328	0.04608838195800781	3.7841796875	-4.192352294921875	-1.346588134765625	9.82580361328125	0.6655880615234374	0.1406593475341797	0.54168701171875	-4.730224609375	-3.265380859375	10.05564697265625	0.5195417602539062	-0.13646949462890623	3.368377685546875	-4.66156005859375	-1.995086669921875	
76	0.304	0.0	0.0	0.0	0.0	0.003	0.006	0.003	0.003	9.956886154174803	0.8708908538818358	-0.18076222534179687	5.4779052734375	-5.31005859375	-1.102447509765625	9.734225399780273	0.2711433380126953	0.15502455749511718	0.34332275390625	-5.07354736328125	-2.35748291015625	10.007762939453125	-0.13946224670410157	-0.43574470214843747	3.5552978515625	-4.779815673828125	-1.743316650390625	
77	0.308	0.0	0.0	0.0	0.0	0.003	0.006	0.003	0.006	9.937732540893554	0.9169792358398436	-0.022744915771484374	4.15802001953125	-4.451751708984375	-1.18255615234375	9.7928833404541	0.6039373687744141	0.1292868896484375	0.705718994140625	-4.7454833984375	-3.082275390625	9.804854348754882	0.3705027069091797	-0.09756371765136718	4.2877197265625	-4.619598388671875	-3.27301025390625	
78	0.312	0.0	0.0	0.0	0.0	0.006	0.006	0.003	0.003	9.961076007080077	0.718260498046875	-0.18555062866210936	5.588531494140625	-5.832672119140625	-0.911712646484375	9.771335525512695	0.2555810272216797	0.13108254089355467	0.423431396484375	-5.1422119140625	-2.410888671875	10.046668716430663	-0.18734627990722655	-0.430956298828125	3.330230712890625	-4.72259521484375	-1.678466796875	
79	0.316	0.0	0.0	0.0	0.0	0.006	0.006	0.006	0.003	9.833584768676758	0.31004911499023435	0.1083376251220703	5.054473876953125	-5.489349365234375	-1.1444091796875	9.810839852905273	0.5225345123291015	0.004189852905273437	1.03759765625	-4.642486572265625	-3.627777099609375	9.816226806640625	0.2609679809570312	-0.1274912384033203	4.367828369140625	-4.3487548828125	-3.307342529296875	
80	0.32	0.0	0.0	0.0	0.0	0.003	0.003	0.006	0.006	9.91438907470703	0.16340426330566404	-0.19572598571777342	4.276275634765625	-5.30242919921875	-1.117706298828125	9.721655841064452	0.36631285400390623	0.06404489440917968	0.70953369140625	-4.978179931640625	-2.7008056640625	9.80066449584961	0.22445640563964842	-0.052073886108398436	3.742218017578125	-4.619598388671875	-1.8463134765625	
81	0.324	0.0	0.0	0.0	0.0	0.003	0.003	0.003	0.003	9.839570272827148	-0.26755203552246093	0.09696516723632811	3.1890869140625	-4.131317138671875	-0.232696533203125	9.651625442504882	0.5847837554931641	0.18914193115234373	0.95367431640625	-4.856109619140625	-3.662109375	9.846154327392577	0.0909796630859375	-0.11133037719726561	3.91387939453125	-4.268646240234375	-2.54058837890625	
82	0.328	0.0	0.0	0.0	0.0	0.003	0.003	0.006	0.003	9.957484704589843	0.16041151123046873	-0.2885013000488281	3.353118896484375	-4.26483154296875	-0.74005126953125	9.711480484008788	0.5668272430419922	0.029328970336914062	1.45721435546875	-5.22613525390625	-2.620697021484375	9.795876092529296	0.28490999755859375	-0.06703764648437499	3.45611572265625	-4.58526611328125	-1.4801025390625	
83	0.332	0.0	0.0	0.0	0.0	0.003	0.006	0.006	0.006	9.843161575317382	0.4836287353515625	0.06643909606933593	6.542205810546875	-5.79071044921875	-0.9918212890625	9.682151513671874	0.3280056274414062	0.16460136413574217	1.094818115234375	-4.84466552734375	-3.4942626953125	10.096348400878906	-0.5668272430419922	-0.27832594299316404	3.475189208984375	-4.405975341796875	-2.3040771484375	
84	0.336	0.0	0.0	0.0	0.0	0.009000000000000001	0.003	0.003	0.003	9.85692823486328	-0.40940848388671874	0.13347674255371092	2.468109130859375	-4.039764404296875	-1.262664794921875	9.719860189819336	0.5027823486328125	0.1352723937988281	0.759124755859375	-5.130767822265625	-3.093719482421875	9.839570272827148	0.2214636535644531	-0.008379705810546874	3.66973876953125	-4.589080810546875	-1.865386962890625	
85	0.34	0.0	0.0	0.0	0.0	0.003	0.006	0.003	0.006	9.813234054565429	-0.14784195251464843	0.14305354919433594	4.4097900390625	-4.852294921875	-0.827789306640625	9.662399349975585	0.7613561279296874	0.12988544006347655	0.80108642578125	-4.840850830078125	-3.4332275390625	10.073004934692381	-0.21428104858398436	-0.22744915771484372	3.543853759765625	-4.40216064453125	-2.20489501953125	
86	0.34400000000000003	0.0	0.0	0.0	0.0	0.003	0.003	0.003	0.006	9.847949978637695	-0.32142157287597656	0.10714052429199218	0.35858154296875	-2.4566650390625	-0.7171630859375	9.642647186279296	0.8008604553222656	0.17836802368164062	0.949859619140625	-4.878997802734375	-2.8839111328125	9.815628256225585	0.10714052429199218	-0.08259995727539061	3.673553466796875	-4.730224609375	-1.99127197265625	
87	0.34800000000000003	0.0	0.0	0.0	0.0	0.006	0.003	0.003	0.003	9.819219558715819	0.020949264526367185	0.18435352783203124	1.3580322265625	-2.9296875	-1.12152099609375	9.945513696289062	0.12150573425292968	0.1466448516845703	0.988006591796875	-4.955291748046875	-3.101348876953125	10.044873065185547	-0.11252747802734374	-0.17298106994628906	3.444671630859375	-4.40216064453125	-2.227783203125	
88	0.352	0.0	0.0	0.0	0.0	0.003	0.003	0.003	0.003	9.866505041503906	-0.15741875915527342	0.16519991455078123	1.506805419921875	-2.986907958984375	-1.186370849609375	9.719860189819336	0.7751227874755859	0.17477672119140625	1.0528564453125	-5.016326904296875	-3.0364990234375	10.115502014160155	0.10175357055664062	-0.1484405029296875	3.421783447265625	-4.634857177734375	-2.14385986328125	
89	0.356	0.0	0.0	0.0	0.0	0.006	0.003	0.006	0.003	9.84435867614746	0.051475335693359374	0.03411737365722656	0.774383544921875	-2.552032470703125	-0.888824462890625	9.815029705810547	1.1797428680419921	0.11013327636718749	1.514434814453125	-4.95147705078125	-3.12042236328125	9.993397729492187	-0.013168109130859374	-0.21308394775390624	3.520965576171875	-4.37164306640625	-2.288818359375	
90	0.36	0.0	0.0	0.0	0.0	0.003	0.003	0.006	0.003	9.834183319091796	-0.19512743530273435	0.19812018737792966	0.732421875	-2.7008056640625	-0.949859619140625	9.818022457885741	-0.42796354675292964	0.421978042602539	-0.3509521484375	-5.07354736328125	-1.68609619140625	10.109516510009765	0.11372457885742186	-0.2059013427734375	3.505706787109375	-4.573822021484375	-1.8310546875	
91	0.364	0.0	0.0	0.0	0.0	0.006	0.003	0.006	0.003	9.87069489440918	0.13587094421386717	0.04548983154296875	1.07574462890625	-2.864837646484375	-0.84686279296875	9.771934075927733	1.3233949676513672	0.11252747802734374	1.38092041015625	-4.78363037109375	-2.712249755859375	10.266336718749999	-0.1292868896484375	-0.7015010864257812	3.72314453125	-4.413604736328125	-2.34222412109375	
92	0.368	0.0	0.0	0.0	0.0	0.006	0.006	0.006	0.003	9.71686743774414	0.5608417388916015	0.2819172454833984	3.131866455078125	-4.09698486328125	-0.7476806640625	9.834183319091796	-0.27353753967285155	0.3699041564941406	0.507354736328125	-4.8675537109375	-3.1890869140625	10.062829577636718	0.12030863342285156	-0.2316390106201172	3.673553466796875	-4.581451416015625	-2.00653076171875	
93	0.372	0.0	0.0	0.0	0.0	0.003	0.006	0.003	0.003	9.880870251464843	0.1484405029296875	0.011372457885742187	0.640869140625	-2.5634765625	-1.064300537109375	9.804255798339844	1.1845312713623046	-0.008379705810546874	1.4495849609375	-5.100250244140625	-2.368927001953125	10.187328063964843	-0.06105214233398437	-0.6859387756347656	3.757476806640625	-4.38690185546875	-2.0904541015625	
94	0.376	0.0	0.0	0.0	0.0	0.003	0.003	0.003	0.003	9.720458740234374	0.4129997863769531	0.29448680419921874	3.597259521484375	-4.055023193359375	-0.5645751953125	9.84435867614746	0.34536358947753903	0.4082113830566406	0.286102294921875	-4.8828125	-3.734588623046875	10.123881719970703	0.13467384338378904	-0.2705447875976562	3.19671630859375	-4.863739013671875	-1.6937255859375	
95	0.38	0.0	0.0	0.0	0.0	0.003	0.003	0.006	0.003	9.911994873046874	0.16699556579589842	-0.07362170104980469	1.89971923828125	-2.9449462890625	-0.8544921875	9.911994873046874	0.517746109008789	-0.07721300354003906	1.102447509765625	-5.039215087890625	-2.01416015625	10.231022244262695	-0.08559270935058594	-0.7308300567626953	3.803253173828125	-4.787445068359375	-2.178192138671875	
96	0.384	0.0	0.0	0.0	0.0	0.0	0.006	0.003	0.003	9.688137017822266	0.527322915649414	0.31483751831054685	3.971099853515625	-4.444122314453125	-0.850677490234375	9.721655841064452	0.55545478515625	0.16280571289062498	0.86212158203125	-4.756927490234375	-3.53240966796875	10.02332525024414	0.20709844360351562	-0.2609679809570312	3.1585693359375	-4.825592041015625	-1.67083740234375	
97	0.388	0.0	0.0	0.0	0.0	0.006	0.006	0.006	0.003	9.883264453125	0.08978256225585937	0.07003039855957031	1.2664794921875	-3.040313720703125	-0.81634521484375	9.97184991455078	0.0430956298828125	-0.058657940673828124	0.90789794921875	-4.974365234375	-2.300262451171875	10.271125122070313	-0.1227028350830078	-0.7104793426513671	3.47137451171875	-3.917694091796875	-2.09808349609375	
98	0.392	0.0	0.0	0.0	0.0	0.006	0.003	0.003	0.003	9.725247143554688	0.354341845703125	0.3010708587646484	3.57818603515625	-4.444122314453125	-0.896453857421875	9.76235726928711	0.9594763153076171	0.10354922180175781	0.83160400390625	-4.90570068359375	-3.3111572265625	10.153809240722655	0.14484920043945312	-0.34715924072265625	3.078460693359375	-5.031585693359375	-1.70135498046875	
99	0.396	0.0	0.0	0.0	0.0	0.003	0.003	0.003	0.006	9.840767373657226	0.13108254089355467	0.1149216796875	0.919342041015625	-2.872467041015625	-1.209259033203125	9.791686239624022	0.027533319091796873	0.03950432739257812	0.9765625	-5.001068115234375	-3.07464599609375	10.000580334472655	-0.14784195251464843	-0.41060558471679687	3.41796875	-4.863739013671875	-1.89208984375	
100	0.4	0.0	0.0	0.0	0.0	0.006	0.003	0.006	0.006	9.667786303710937	0.3477577911376953	0.3651157531738281	1.529693603515625	-3.223419189453125	-0.896453857421875	9.707290631103515	0.8271966735839843	0.20769699401855468	0.789642333984375	-5.008697509765625	-2.62451171875	10.098742602539062	0.16998831787109375	-0.30885201416015623	3.177642822265625	-4.741668701171875	-1.918792724609375	
101	0.404	0.0	0.0	0.0	0.0	0.003	0.003	0.006	0.003	9.86351228942871	0.18435352783203124	0.11911153259277343	1.094818115234375	-3.0517578125	-0.885009765625	9.882067352294921	0.18854338073730467	-0.013766659545898436	0.67138671875	-5.138397216796875	-3.582000732421875	10.117297665405273	-0.1352723937988281	-0.4513070129394531	3.307342529296875	-4.99725341796875	-2.002716064453125	
102	0.40800000000000003	0.0	0.0	0.0	0.0	0.003	0.003	0.003	0.003	9.912593423461914	-0.013168109130859374	-0.09516951599121093	1.651763916015625	-3.055572509765625	-1.02996826171875	9.743802206420899	0.3812766143798828	0.22026655273437498	1.094818115234375	-4.734039306640625	-2.9296875	9.79348189086914	0.08738836059570312	0.10235212097167969	3.986358642578125	-4.31060791015625	-2.40325927734375	
103	0.41200000000000003	0.0	0.0	0.0	0.0	0.009000000000000001	0.006	0.003	0.006	9.82520506286621	0.2561795776367187	0.1945288848876953	1.19781494140625	-3.017425537109375	-1.232147216796875	9.783306533813477	0.6625953094482422	-0.025139117431640625	0.90789794921875	-4.81414794921875	-3.509521484375	9.999383233642577	-0.04548983154296875	-0.4291606475830078	3.284454345703125	-4.99725341796875	-1.819610595703125	
104	0.41600000000000004	0.0	0.0	0.0	0.0	0.003	0.003	0.006	0.003	9.931148486328125	-0.10594342346191406	-0.086191259765625	1.567840576171875	-3.017425537109375	-1.018524169921875	9.683348614501952	0.35194764404296874	0.2214636535644531	0.9918212890625	-4.840850830078125	-2.79998779296875	9.789890588378906	0.08379705810546874	0.10953472595214843	3.849029541015625	-4.734039306640625	-2.407073974609375	
105	0.42	0.0	0.0	0.0	0.0	0.003	0.003	0.003	0.003	9.9461122467041	0.20649989318847656	-0.08499415893554688	3.551483154296875	-4.53948974609375	-0.9613037109375	9.812036953735351	0.7212532501220703	-0.04608838195800781	1.0528564453125	-4.78363037109375	-3.124237060546875	9.872490545654296	0.010175357055664061	0.13467384338378904	3.54766845703125	-4.581451416015625	-2.00653076171875	
106	0.424	0.0	0.0	0.0	0.0	0.003	0.006	0.006	0.003	9.83178911743164	-0.033518823242187495	0.0005985504150390625	2.109527587890625	-3.36456298828125	-0.9002685546875	9.662997900390625	0.2867056488037109	0.13826514587402344	1.07574462890625	-4.8370361328125	-3.2196044921875	9.79946739501953	0.08140285644531249	-0.009576806640625	3.95965576171875	-4.627227783203125	-2.300262451171875	
107	0.428	0.0	0.0	0.0	0.0	0.003	0.006	0.006	0.003	9.923367330932617	0.2328361114501953	-0.09756371765136718	3.154754638671875	-4.268646240234375	-0.8697509765625	9.674370358276366	0.6171054779052734	0.22685060729980466	1.129150390625	-5.176544189453125	-2.681732177734375	9.750386260986328	0.09816226806640624	0.16759411621093748	3.4637451171875	-4.5623779296875	-2.101898193359375	
108	0.432	0.0	0.0	0.0	0.0	0.006	0.003	0.003	0.006	9.880271701049804	-0.010773907470703125	-0.017357962036132813	2.06756591796875	-3.292083740234375	-1.003265380859375	9.763554370117188	0.3507505432128906	0.08140285644531249	1.071929931640625	-5.16510009765625	-3.520965576171875	9.950900650024414	-0.051475335693359374	-0.054468087768554684	3.582000732421875	-4.512786865234375	-1.895904541015625	
109	0.436	0.0	0.0	0.0	0.0	0.003	0.006	0.003	0.003	9.974842666625976	-0.047285482788085934	-0.17896657409667968	2.407073974609375	-3.795623779296875	-0.995635986328125	9.721655841064452	0.41419688720703124	0.16879121704101563	1.03759765625	-5.092620849609375	-2.8228759765625	9.817423907470703	0.018555062866210937	0.10235212097167969	3.5552978515625	-4.741668701171875	-1.941680908203125	
110	0.44	0.0	0.0	0.0	0.0	0.003	0.003	0.003	0.0	9.860519537353515	0.35194764404296874	0.14903905334472656	4.2266845703125	-4.49371337890625	-0.762939453125	9.753379013061522	0.5063736511230469	0.21128829650878905	1.5716552734375	-4.924774169921875	-3.353118896484375	9.97783541870117	-0.07003039855957031	-0.14245499877929688	3.7384033203125	-4.520416259765625	-2.315521240234375	
111	0.444	0.0	0.0	0.0	0.0	0.006	0.003	0.003	0.009000000000000001	10.02332525024414	-0.06823474731445311	-0.22505495605468748	2.6092529296875	-3.841400146484375	-0.96893310546875	9.827000714111328	0.1849520782470703	0.11791443176269531	0.972747802734375	-5.035400390625	-2.55584716796875	9.928155734252929	0.013168109130859374	0.025139117431640625	3.63922119140625	-4.581451416015625	-1.7547607421875	
112	0.448	0.0	0.0	0.0	0.0	0.009000000000000001	0.006	0.006	0.003	9.94671079711914	0.11013327636718749	0.008978256225585938	4.138946533203125	-4.673004150390625	-0.69427490234375	9.837176071166992	0.5674257934570313	0.15263035583496093	1.346588134765625	-4.58526611328125	-3.276824951171875	10.147225186157225	-0.24480711975097655	-0.19931728820800781	3.437042236328125	-4.344940185546875	-2.1820068359375	
113	0.452	0.0	0.0	0.0	0.0	0.003	0.006	0.003	0.006	9.976638317871092	0.24121581726074218	-0.24001871643066405	4.726409912109375	-4.878997802734375	-1.10626220703125	9.753379013061522	0.3130418670654297	0.36272155151367186	0.621795654296875	-5.05828857421875	-2.727508544921875	9.995791931152343	0.1562216583251953	-0.18136077575683593	3.6468505859375	-4.4403076171875	-1.834869384765625	
114	0.456	0.0	0.0	0.0	0.0	0.0	0.006	0.003	0.003	9.920374578857421	-0.040102877807617184	-0.022744915771484374	3.753662109375	-4.543304443359375	-0.751495361328125	9.821015209960937	0.5973533142089843	0.16041151123046873	1.392364501953125	-4.825592041015625	-2.979278564453125	10.111910711669921	-0.1562216583251953	-0.2454056701660156	3.681182861328125	-4.37164306640625	-2.079010009765625	
115	0.46	0.0	0.0	0.0	0.0	0.0	0.003	0.003	0.003	9.753977563476562	0.2537853759765625	0.421978042602539	3.936767578125	-4.29534912109375	-0.621795654296875	9.935338339233398	0.2154781494140625	0.33758243408203126	0.431060791015625	-4.92095947265625	-2.819061279296875	10.220846887207031	0.006584054565429687	-0.25797522888183594	3.566741943359375	-4.634857177734375	-1.796722412109375	
116	0.464	0.0	0.0	0.0	0.0	0.006	0.006	0.003	0.003	9.904213717651366	0.33518823242187495	-0.10115502014160156	3.9520263671875	-4.41741943359375	-0.858306884765625	9.90840357055664	0.650624301147461	-0.09337386474609374	1.605987548828125	-4.5623779296875	-2.964019775390625	10.201094723510742	-0.13467384338378904	-0.5979518646240234	3.582000732421875	-4.413604736328125	-2.254486083984375	
117	0.468	0.0	0.0	0.0	0.0	0.003	0.003	0.003	0.006	9.655815295410155	0.18914193115234373	0.4429273071289062	4.146575927734375	-4.34112548828125	-0.835418701171875	9.760561618041992	0.4950011932373047	0.3752911102294922	0.49591064453125	-5.268096923828125	-2.777099609375	10.026916552734374	0.2280477081298828	-0.2609679809570312	3.5552978515625	-4.5166015625	-1.750946044921875	
118	0.47200000000000003	0.0	0.0	0.0	0.0	0.003	0.006	0.003	0.006	9.877877499389648	0.04668693237304687	0.08678981018066406	-0.213623046875	-1.964569091796875	-0.667572021484375	10.002375985717773	0.42437224426269526	-0.10235212097167969	1.50299072265625	-4.8828125	-2.864837646484375	10.321403356933594	-0.2442085693359375	-0.5674257934570313	3.5247802734375	-4.772186279296875	-1.8157958984375	
119	0.47600000000000003	0.0	0.0	0.0	0.0	0.006	0.003	0.006	0.003	9.719261639404296	0.4435258575439453	0.2885013000488281	3.978729248046875	-4.329681396484375	-0.713348388671875	9.692925421142577	0.5404910247802734	0.3028665100097656	0.46539306640625	-4.95147705078125	-3.093719482421875	10.050858569335936	0.18435352783203124	-0.258573779296875	3.520965576171875	-4.779815673828125	-2.071380615234375	
120	0.48	0.0	0.0	0.0	0.0	0.003	0.006	0.006	0.003	9.79946739501953	-0.029328970336914062	0.18854338073730467	-0.019073486328125	-2.071380615234375	-1.041412353515625	9.88386300354004	0.5793968017578125	-0.09516951599121093	1.556396484375	-4.917144775390625	-2.880096435546875	10.12567737121582	-0.05985504150390625	-0.5871779571533203	3.5858154296875	-4.703521728515625	-1.800537109375	
121	0.484	0.0	0.0	0.0	0.0	0.006	0.003	0.006	0.003	9.67856021118164	-0.14185644836425781	0.4644751220703125	2.819061279296875	-3.658294677734375	-0.6561279296875	9.680355862426758	0.5141548065185546	0.3435679382324219	0.3509521484375	-4.90570068359375	-2.81524658203125	9.975441217041014	0.03591302490234375	-0.11611878051757812	3.429412841796875	-4.611968994140625	-2.00653076171875	
122	0.488	0.0	0.0	0.0	0.0	0.009000000000000001	0.006	0.006	0.006	9.88386300354004	0.23582886352539062	0.0796072052001953	-0.6866455078125	-1.567840576171875	-0.629425048828125	9.987412225341796	0.47285482788085936	-0.15502455749511718	0.885009765625	-5.18035888671875	-3.261566162109375	10.302249743652343	-0.21188684692382811	-0.5967547637939453	3.490447998046875	-4.512786865234375	-2.05230712890625	
123	0.492	0.0	0.0	0.0	0.0	0.003	0.006	0.006	0.003	9.907206469726562	-0.011372457885742187	-0.10893617553710937	1.605987548828125	-2.9449462890625	-1.2664794921875	9.58339069519043	0.6386532928466796	0.3327940307617187	0.606536865234375	-4.89044189453125	-2.750396728515625	9.867103591918944	0.17896657409667968	-0.19333178405761717	3.612518310546875	-4.558563232421875	-2.29644775390625	
124	0.496	0.0	0.0	0.0	0.0	0.003	0.003	0.006	0.006	9.788094937133788	-0.27892449340820313	0.2454056701660156	-1.03759765625	-1.392364501953125	-0.980377197265625	9.850344180297851	0.3495534423828125	0.07422025146484375	0.492095947265625	-4.764556884765625	-2.918243408203125	9.92755718383789	0.027533319091796873	-0.31064766540527344	3.28826904296875	-4.917144775390625	-1.617431640625	
125	0.5	0.0	0.0	0.0	0.0	0.006	0.003	0.003	0.003	10.011354241943359	-0.10594342346191406	-0.20231004028320312	0.026702880859375	-2.0904541015625	-0.698089599609375	9.704896429443359	0.4860229370117187	0.2902969512939453	0.766754150390625	-5.2642822265625	-2.777099609375	10.075997686767577	-0.022744915771484374	-0.20949264526367187	3.35693359375	-4.611968994140625	-2.376556396484375	
126	0.504	0.0	0.0	0.0	0.0	0.003	0.003	0.006	4.5	9.833584768676758	0.43574470214843747	0.1322796417236328	4.817962646484375	-4.669189453125	-1.171112060546875	9.884461553955077	0.42377369384765623	0.004189852905273437	1.155853271484375	-4.817962646484375	-3.19671630859375	9.980828170776366	0.11552023010253906	-0.36691140441894526	3.574371337890625	-4.791259765625	-1.918792724609375	
127	0.508	0.0	0.0	0.0	0.0	4.53	4.59	4.593	4.497	9.840168823242188	0.03531447448730469	0.03232172241210937	2.00653076171875	-3.177642822265625	-1.708984375	9.561842880249023	0.5045779998779296	0.354341845703125	0.9002685546875	-4.817962646484375	-3.131866455078125	9.74799205932617	-0.14724340209960937	-0.06404489440917968	4.0130615234375	-4.718780517578125	-2.57110595703125	
128	0.512	0.0	0.0	0.0	0.0	4.542	4.596	4.596	4.506	9.94072529296875	-0.19692308654785154	-0.08678981018066406	1.018524169921875	-2.99835205078125	-0.5035400390625	9.929951385498047	0.32620997619628905	0.0718260498046875	0.705718994140625	-4.82177734375	-3.093719482421875	10.111910711669921	-0.023942016601562498	-0.3477577911376953	3.63922119140625	-4.99725341796875	-1.97601318359375	
129	0.516	0.0	0.0	0.0	0.0	4.539	4.5840000000000005	4.596	4.527	9.944316595458984	-0.23523031311035156	-0.08379705810546874	-1.33514404296875	-1.10626220703125	-0.64849853515625	9.667786303710937	0.5141548065185546	0.25737667846679685	0.713348388671875	-4.604339599609375	-3.41796875	9.843161575317382	-0.24181436767578124	-0.09816226806640624	4.009246826171875	-4.222869873046875	-2.880096435546875	
130	0.52	0.0	0.0	0.0	0.0	4.539	4.593	4.596	4.533	9.888052856445311	1.1474211456298828	-0.07601590270996093	5.31768798828125	-5.4473876953125	-1.0833740234375	9.733028298950195	0.373495458984375	0.03591302490234375	1.3275146484375	-5.43212890625	-2.60162353515625	9.9215716796875	0.14963760375976562	-0.22685060729980466	3.54766845703125	-4.3182373046875	-2.056121826171875	
131	0.524	0.0	0.0	0.0	0.0	4.53	4.596	4.599	4.539	9.836577520751952	-0.09038111267089843	0.19033903198242186	5.832672119140625	-5.6304931640625	-1.010894775390625	9.694122521972655	0.4878185882568359	0.3381809844970703	1.125335693359375	-4.95147705078125	-3.299713134765625	9.78629928588867	-0.22864625854492185	0.022146365356445312	4.1046142578125	-4.20379638671875	-2.620697021484375	
132	0.528	0.0	0.0	0.0	0.0	4.524	4.596	4.59	4.542	9.96047745666504	-0.30885201416015623	-0.03172317199707031	1.911163330078125	-3.36456298828125	-1.1138916015625	9.816226806640625	0.3226186737060547	0.03950432739257812	0.484466552734375	-4.970550537109375	-2.849578857421875	9.967660061645507	0.25318682556152344	-0.08918401184082031	3.459930419921875	-4.718780517578125	-1.9378662109375	
133	0.532	0.0	0.0	0.0	0.0	4.542	4.596	4.596	4.506	9.919177478027343	0.3507505432128906	0.037110125732421874	3.696441650390625	-4.138946533203125	0.06103515625	9.700108026123047	0.5297171173095703	0.26755203552246093	1.10626220703125	-4.756927490234375	-3.41033935546875	9.701903677368163	-0.15382745666503905	0.03651157531738281	3.963470458984375	-4.589080810546875	-2.719879150390625	
134	0.536	0.0	0.0	0.0	0.0	4.548	4.596	4.596	4.497	9.934739788818359	0.7433996154785156	-0.04848258361816406	2.048492431640625	-3.41033935546875	-0.286102294921875	9.79348189086914	0.24181436767578124	0.12569558715820311	1.430511474609375	-5.077362060546875	-2.8839111328125	9.785102185058593	0.33698388366699217	0.0987608184814453	3.6773681640625	-4.547119140625	-2.12860107421875	
135	0.54	0.0	0.0	0.0	0.0	4.545	4.593	4.596	4.518	9.948506448364258	0.910395181274414	0.003591302490234375	9.181976318359375	-7.4920654296875	-1.438140869140625	9.817423907470703	0.5033808990478515	0.15502455749511718	0.48828125	-4.749298095703125	-2.780914306640625	10.292672937011718	-0.36152445068359373	-0.5153519073486328	3.459930419921875	-4.566192626953125	-1.922607421875	
136	0.544	0.0	0.0	0.0	0.0	4.542	4.593	4.596	4.533	9.961076007080077	-0.5458779785156249	0.13766659545898435	3.53240966796875	-4.550933837890625	-0.865936279296875	9.81263550415039	0.40761283264160153	0.3076549133300781	0.213623046875	-5.16510009765625	-2.6702880859375	9.865307940673828	0.3298012786865234	0.07601590270996093	3.681182861328125	-4.505157470703125	-2.197265625	
137	0.548	0.0	0.0	0.0	0.0	4.5360000000000005	4.596	4.599	4.533	9.873687646484374	-0.2867056488037109	0.17058686828613281	2.704620361328125	-4.116058349609375	-0.54931640625	9.587580548095703	0.5398924743652344	0.48662148742675776	0.720977783203125	-4.60052490234375	-3.414154052734375	10.037690460205077	-0.25139117431640623	-0.14963760375976562	3.383636474609375	-4.383087158203125	-1.8463134765625	
138	0.552	0.0	0.0	0.0	0.0	4.524	4.596	4.596	4.539	9.966462960815429	0.19153613281249998	0.07362170104980469	4.0435791015625	-4.94384765625	0.019073486328125	9.897629663085937	0.34715924072265625	0.24959552307128904	0.736236572265625	-4.924774169921875	-2.84576416015625	10.135852728271484	0.21068974609375	-0.32920272827148434	3.887176513671875	-4.863739013671875	-2.44903564453125	
139	0.556	0.0	0.0	0.0	0.0	4.539	4.596	4.596	4.521	9.956886154174803	0.7206546997070312	0.0383072265625	7.3699951171875	-6.763458251953125	-1.3580322265625	9.95987890625	0.5015852478027344	0.014963760375976562	1.1138916015625	-4.711151123046875	-2.635955810546875	10.357316381835936	-0.469862075805664	-0.6853402252197265	3.025054931640625	-4.695892333984375	-1.667022705078125	
140	0.56	0.0	0.0	0.0	0.0	4.539	4.596	4.596	4.5	9.988609326171874	0.5889736083984375	-0.003591302490234375	8.3770751953125	-7.16400146484375	-1.430511474609375	9.801861596679688	0.46627077331542965	0.1322796417236328	0.48828125	-5.336761474609375	-1.9378662109375	10.090362896728514	0.2819172454833984	-0.43514615173339843	3.6773681640625	-4.66156005859375	-2.132415771484375	
141	0.5640000000000001	0.0	0.0	0.0	0.0	4.542	4.596	4.596	4.506	9.909600671386718	-0.37409400939941406	-0.00718260498046875	2.410888671875	-3.936767578125	-0.95367431640625	9.97903251953125	0.6093243225097655	-0.2454056701660156	1.506805419921875	-5.279541015625	-2.655029296875	10.24000050048828	-0.2657563842773437	-0.527322915649414	3.3111572265625	-4.730224609375	-1.6632080078125	
142	0.5680000000000001	0.0	0.0	0.0	0.0	4.542	4.587	4.593	4.527	9.879673150634765	-0.14245499877929688	0.16699556579589842	5.687713623046875	-5.91278076171875	-0.949859619140625	9.80665	0.43035774841308594	0.19213468322753904	1.47247314453125	-5.054473876953125	-3.299713134765625	10.18373676147461	0.16879121704101563	-0.3172317199707031	3.383636474609375	-4.4708251953125	-1.861572265625	
143	0.5720000000000001	0.0	0.0	0.0	0.0	4.539	4.593	0.006	0.006	9.83777462158203	-0.43574470214843747	-0.016759411621093748	-0.133514404296875	-2.20489501953125	-0.827789306640625	9.837176071166992	0.5458779785156249	0.08020575561523437	1.583099365234375	-4.92095947265625	-2.964019775390625	10.13166287536621	0.029927520751953124	-0.421978042602539	3.63922119140625	-4.53948974609375	-1.850128173828125	
144	0.5760000000000001	0.0	0.0	0.0	0.0	-0.003	0.003	0.003	0.006	9.582193594360351	-0.1322796417236328	0.39145197143554683	-0.026702880859375	-1.781463623046875	-0.83160400390625	9.593566052246093	0.6458358978271485	0.536899722290039	0.946044921875	-4.8370361328125	-2.96783447265625	10.059836825561522	0.18854338073730467	-0.3268085266113281	3.65447998046875	-4.840850830078125	-2.170562744140625	
145	0.58	0.0	0.0	0.0	0.0	0.003	0.003	0.003	0.006	9.926958633422851	-0.27353753967285155	-0.14125789794921875	0.74005126953125	-2.5634765625	-0.980377197265625	9.976039767456054	0.45070846252441404	-0.06823474731445311	0.995635986328125	-5.054473876953125	-3.047943115234375	10.27232222290039	-0.029927520751953124	-0.5572504364013672	3.448486328125	-4.520416259765625	-1.728057861328125	
146	0.584	0.0	0.0	0.0	0.0	0.006	0.003	0.003	0.006	9.683947164916992	0.1322796417236328	0.17776947326660156	1.9073486328125	-3.143310546875	-1.28936767578125	9.629479077148437	0.6685808135986328	0.28969840087890625	0.537872314453125	-4.8370361328125	-2.643585205078125	9.934739788818359	0.010175357055664061	-0.07302315063476562	3.509521484375	-4.4708251953125	-2.254486083984375	
147	0.588	0.0	0.0	0.0	0.0	0.003	0.006	0.003	0.003	9.925162982177733	-0.0652419952392578	-0.22266075439453123	1.171112060546875	-3.1585693359375	-0.7476806640625	9.805452899169921	0.4704606262207031	0.054468087768554684	1.132965087890625	-4.764556884765625	-3.093719482421875	10.166977349853514	0.06643909606933593	-0.575206948852539	3.42559814453125	-4.63104248046875	-1.811981201171875	
148	0.592	0.0	0.0	0.0	0.0	0.003	0.006	0.006	0.006	9.6917283203125	0.1304839904785156	0.277727392578125	1.8157958984375	-3.30352783203125	-0.934600830078125	9.694122521972655	0.6476315490722656	0.2561795776367187	0.392913818359375	-4.93621826171875	-2.399444580078125	10.056245523071288	-0.03890577697753906	-0.23044190979003906	3.15093994140625	-4.703521728515625	-1.80816650390625	
149	0.596	0.0	0.0	0.0	0.0	0.003	0.003	0.003	0.006	9.823409411621093	0.12569558715820311	0.2214636535644531	-0.31280517578125	-2.0294189453125	-0.9613037109375	9.90122096557617	0.41539398803710936	-0.002992752075195312	1.01470947265625	-4.95147705078125	-3.353118896484375	10.089165795898436	0.09636661682128905	-0.4255693450927734	3.582000732421875	-5.08880615234375	-2.124786376953125	
150	0.6	0.0	0.0	0.0	0.0	0.003	0.003	0.003	0.009000000000000001	9.564237081909178	0.05686228942871093	0.4387374542236328	0.057220458984375	-2.20489501953125	-1.16729736328125	9.679757312011718	0.6015431671142578	0.1975216369628906	1.140594482421875	-4.974365234375	-3.139495849609375	9.923367330932617	0.017956512451171875	-0.1292868896484375	3.513336181640625	-4.863739013671875	-2.155303955078125	
151	0.604	0.0	0.0	0.0	0.0	0.003	0.003	0.006	0.006	9.816825357055663	0.11671733093261719	0.14724340209960937	-1.537322998046875	-1.15203857421875	-1.049041748046875	9.868899243164062	0.4447229583740234	0.051475335693359374	1.06048583984375	-5.07354736328125	-3.231048583984375	9.970054263305663	0.08798691101074219	-0.36272155151367186	3.604888916015625	-4.642486572265625	-2.071380615234375	
152	0.608	0.0	0.0	0.0	0.0	0.006	0.006	0.003	0.009000000000000001	9.682151513671874	-0.001197100830078125	0.28490999755859375	1.674652099609375	-2.941131591796875	-0.774383544921875	9.80724855041504	0.4734533782958984	0.10115502014160156	0.926971435546875	-4.634857177734375	-3.215789794921875	10.035296258544921	-0.07362170104980469	-0.10414777221679687	3.5400390625	-4.329681396484375	-2.1820068359375	
153	0.612	0.0	0.0	0.0	0.0	0.003	0.006	0.006	0.006	9.892841259765625	0.26396073303222656	-0.0017956512451171875	-0.232696533203125	-1.743316650390625	-0.988006591796875	9.701903677368163	0.3477577911376953	0.22445640563964842	0.2288818359375	-4.817962646484375	-2.925872802734375	9.950302099609374	0.05087678527832031	-0.36152445068359373	3.513336181640625	-4.772186279296875	-2.044677734375	
154	0.616	0.0	0.0	0.0	0.0	0.006	0.003	0.003	0.003	9.865307940673828	0.19333178405761717	0.04668693237304687	3.2806396484375	-4.05120849609375	-0.64849853515625	9.720458740234374	0.5027823486328125	0.14604630126953125	0.713348388671875	-4.749298095703125	-3.063201904296875	9.7928833404541	0.018555062866210937	-0.051475335693359374	3.4942626953125	-4.24957275390625	-1.97601318359375	
155	0.62	0.0	0.0	0.0	0.0	0.006	0.006	0.003	0.003	9.93354268798828	0.1849520782470703	-0.06823474731445311	0.858306884765625	-2.57110595703125	-0.8087158203125	9.73063409729004	0.30406361083984373	0.19393033447265623	0.431060791015625	-5.107879638671875	-2.742767333984375	10.00955859069824	-0.05386953735351562	-0.37768531188964843	3.6468505859375	-4.909515380859375	-2.25830078125	
156	0.624	0.0	0.0	0.0	0.0	0.006	0.003	0.006	0.006	9.860519537353515	0.2262520568847656	0.10654197387695312	4.37164306640625	-4.58526611328125	-0.9307861328125	9.74200655517578	0.3435679382324219	0.1753752716064453	0.762939453125	-5.0048828125	-3.147125244140625	9.858723886108399	0.015562310791015624	-0.07003039855957031	3.711700439453125	-4.436492919921875	-1.995086669921875	
157	0.628	0.0	0.0	0.0	0.0	0.006	0.003	0.006	0.003	9.983820922851562	0.21428104858398436	-0.1657984649658203	5.88226318359375	-5.954742431640625	-0.762939453125	9.666589202880859	0.34057518615722654	0.24301146850585936	0.423431396484375	-4.89044189453125	-2.72369384765625	9.84435867614746	-0.08499415893554688	-0.052073886108398436	3.54766845703125	-4.459381103515625	-2.094268798828125	
158	0.632	0.0	0.0	0.0	0.0	0.003	0.006	0.003	0.003	9.90122096557617	0.2567781280517578	0.0796072052001953	4.421234130859375	-4.6844482421875	-0.659942626953125	9.740809454345703	0.4070142822265625	0.1849520782470703	0.728607177734375	-4.60052490234375	-3.017425537109375	9.873089096069336	0.0526724365234375	-0.07242460021972656	3.45611572265625	-4.180908203125	-2.178192138671875	
159	0.636	0.0	0.0	0.0	0.0	0.003	0.006	0.003	0.003	10.041281762695311	0.08439560852050781	-0.24600422058105467	6.160736083984375	-5.86700439453125	-0.820159912109375	9.785700735473633	0.36092590026855464	0.11552023010253906	0.965118408203125	-5.19561767578125	-2.880096435546875	9.92755718383789	-0.2041056915283203	-0.12569558715820311	3.414154052734375	-4.60052490234375	-2.056121826171875	
160	0.64	0.0	0.0	0.0	0.0	0.006	0.006	0.003	0.003	9.9078050201416	0.36391865234375	0.023343466186523436	5.413055419921875	-5.42449951171875	-0.774383544921875	9.68454571533203	0.4752490295410156	0.11013327636718749	0.66375732421875	-4.82177734375	-2.864837646484375	10.069413632202147	0.12988544006347655	-0.31663316955566406	4.024505615234375	-4.467010498046875	-2.071380615234375	
161	0.644	0.0	0.0	0.0	0.0	0.0	0.003	0.006	0.003	10.002974536132811	0.051475335693359374	-0.1580173095703125	6.893157958984375	-6.66046142578125	-0.64849853515625	9.759364517211914	0.36810850524902344	0.07122749938964844	0.881195068359375	-5.04302978515625	-2.5634765625	9.897031112670899	-0.19153613281249998	-0.06045359191894531	3.597259521484375	-4.72259521484375	-1.922607421875	
162	0.648	0.0	0.0	0.0	0.0	0.003	0.003	0.006	0.006	9.945513696289062	-0.3800795135498047	-0.143652099609375	3.551483154296875	-4.8980712890625	-0.92315673828125	9.661800799560547	0.32142157287597656	-0.06943184814453125	1.972198486328125	-5.168914794921875	-2.93731689453125	10.204087475585936	0.03950432739257812	-0.364517202758789	3.787994384765625	-4.375457763671875	-2.086639404296875	
163	0.652	0.0	0.0	0.0	0.0	0.006	0.003	0.003	0.006	9.964068759155273	-0.10235212097167969	-0.10594342346191406	6.20269775390625	-6.0577392578125	-0.980377197265625	9.726444244384766	0.45489831542968745	0.058657940673828124	1.15966796875	-4.913330078125	-2.956390380859375	10.126275921630858	-0.07362170104980469	-0.27353753967285155	3.383636474609375	-4.520416259765625	-1.88446044921875	
164	0.656	0.0	0.0	0.0	0.0	0.003	0.006	0.006	0.006	9.865307940673828	-0.41359833679199215	-0.0526724365234375	2.26593017578125	-3.54766845703125	-0.95367431640625	9.894038360595703	0.4740519287109375	0.0143652099609375	1.74713134765625	-5.0506591796875	-2.864837646484375	10.116699114990233	0.10654197387695312	-0.3477577911376953	3.5247802734375	-4.184722900390625	-2.03704833984375	
165	0.66	0.0	0.0	0.0	0.0	0.006	0.003	0.003	0.0	9.961076007080077	-0.16639701538085935	-0.05327098693847656	-0.370025634765625	-1.453399658203125	-0.919342041015625	9.7683427734375	0.41419688720703124	0.07003039855957031	0.86212158203125	-5.138397216796875	-2.956390380859375	10.219649786376953	-0.025737667846679687	-0.35134909362792965	3.7078857421875	-4.764556884765625	-1.888275146484375	
166	0.664	0.0	0.0	0.0	0.0	0.003	0.006	0.006	0.003	9.827000714111328	-0.32561142578124996	0.11372457885742186	1.361846923828125	-3.02886962890625	-0.919342041015625	9.923367330932617	0.49200844116210934	0.0718260498046875	1.888275146484375	-4.99725341796875	-3.35693359375	10.19570776977539	0.013168109130859374	-0.3315969299316406	4.344940185546875	-4.49371337890625	-2.37274169921875	
167	0.668	0.0	0.0	0.0	0.0	0.006	0.006	0.003	0.003	9.528324057006836	-0.04548983154296875	0.690128628540039	-1.049041748046875	-0.99945068359375	-0.835418701171875	9.651026892089844	0.5297171173095703	0.47285482788085936	0.766754150390625	-5.1422119140625	-2.910614013671875	10.06881508178711	0.05746083984375	-0.30705636291503907	3.513336181640625	-4.581451416015625	-1.96075439453125	
168	0.672	0.0	0.0	0.0	0.0	0.0	0.003	0.006	0.003	9.773729727172851	-0.2454056701660156	0.24959552307128904	0.347137451171875	-2.170562744140625	-1.125335693359375	9.91498762512207	0.575206948852539	0.14245499877929688	1.50299072265625	-5.100250244140625	-3.204345703125	10.225635290527343	-0.022744915771484374	-0.718260498046875	3.387451171875	-4.69207763671875	-1.93023681640625	
169	0.676	0.0	0.0	0.0	0.0	0.003	0.003	0.003	0.006	9.64683703918457	0.1370680450439453	0.4686649749755859	-0.812530517578125	-1.270294189453125	-1.033782958984375	9.795876092529296	0.4004302276611328	0.4686649749755859	0.446319580078125	-4.924774169921875	-2.79998779296875	10.217255584716796	-0.030526071166992186	-0.30346506042480464	3.5858154296875	-4.7454833984375	-2.00653076171875	
170	0.68	0.0	0.0	0.0	0.0	0.006	0.003	0.003	0.006	9.94072529296875	0.31184476623535157	-0.181959326171875	-0.095367431640625	-1.97601318359375	-1.003265380859375	9.890447058105469	0.4525041137695312	0.034715924072265626	0.57220458984375	-4.764556884765625	-2.81524658203125	10.059238275146484	-0.0430956298828125	-0.5578489868164063	3.681182861328125	-4.669189453125	-2.31170654296875	
171	0.684	0.0	0.0	0.0	0.0	0.009000000000000001	0.003	0.006	0.006	9.649829791259766	0.4542997650146484	0.46208092041015625	0.89263916015625	-2.368927001953125	-0.9765625	9.708487731933593	0.37708676147460934	0.4944026428222656	0.64849853515625	-4.985809326171875	-2.452850341796875	9.900622415161132	0.26336218261718747	-0.1388636962890625	3.08990478515625	-4.756927490234375	-1.62506103515625	
172	0.6880000000000001	0.0	0.0	0.0	0.0	0.006	0.006	0.006	0.003	10.01733974609375	0.412401235961914	-0.2214636535644531	1.74713134765625	-3.28826904296875	-1.03759765625	9.99160207824707	0.55545478515625	-0.076614453125	0.713348388671875	-4.863739013671875	-2.834320068359375	10.280701928710936	-0.09935936889648436	-0.6985083343505859	3.509521484375	-4.75311279296875	-2.155303955078125	
173	0.6920000000000001	0.0	0.0	0.0	0.0	0.006	0.006	0.006	0.003	9.744400756835937	0.47704468078613277	0.26396073303222656	2.117156982421875	-3.185272216796875	-0.789642333984375	9.739612353515625	0.37708676147460934	0.1149216796875	0.6866455078125	-4.779815673828125	-2.918243408203125	10.060435375976562	0.11073182678222655	-0.19213468322753904	3.19671630859375	-5.096435546875	-1.804351806640625	
174	0.6960000000000001	0.0	0.0	0.0	0.0	0.006	0.003	0.003	0.003	9.904213717651366	0.3429693878173828	-0.04129997863769531	1.888275146484375	-3.28826904296875	-1.049041748046875	9.83238766784668	0.6835445739746093	-0.047884033203124995	0.850677490234375	-4.901885986328125	-2.5482177734375	9.928754284667969	-0.16220716247558592	-0.34237083740234375	3.566741943359375	-4.901885986328125	-2.155303955078125	
175	0.7000000000000001	0.0	0.0	0.0	0.0	0.006	0.003	0.003	0.003	9.926360083007811	0.054468087768554684	-0.020949264526367185	3.398895263671875	-4.146575927734375	-1.026153564453125	9.759963067626952	0.40282442932128903	0.20829554443359374	1.148223876953125	-5.157470703125	-3.16619873046875	10.095151300048828	0.14903905334472656	-0.21428104858398436	3.322601318359375	-4.810333251953125	-1.598358154296875	
176	0.704	0.0	0.0	0.0	0.0	0.006	0.006	0.003	0.003	9.880870251464843	0.09217676391601562	0.0939724151611328	1.3427734375	-3.10516357421875	-0.926971435546875	9.82460651245117	0.488417138671875	0.062249243164062495	1.190185546875	-5.06591796875	-3.200531005859375	10.137049829101562	-0.2657563842773437	-0.37229835815429685	3.650665283203125	-4.87518310546875	-2.23541259765625	
177	0.708	0.0	0.0	0.0	0.0	0.003	0.006	0.003	0.003	9.884461553955077	-0.04848258361816406	0.014963760375976562	1.45721435546875	-3.086090087890625	-1.0528564453125	9.658808047485351	0.4997895965576172	0.2855085479736328	0.79345703125	-4.89044189453125	-3.208160400390625	9.93414123840332	0.3064578125	-0.22385785522460935	3.814697265625	-4.55474853515625	-1.678466796875	
178	0.712	0.0	0.0	0.0	0.0	0.003	0.003	0.006	0.003	9.788094937133788	0.3321954803466797	0.26276363220214843	3.200531005859375	-4.009246826171875	-0.514984130859375	9.709086282348633	0.5572504364013672	0.12689268798828124	0.873565673828125	-5.18798828125	-2.93731689453125	9.932345587158203	-0.09337386474609374	-0.36092590026855464	3.398895263671875	-4.848480224609375	-2.0294189453125	
179	0.716	0.0	0.0	0.0	0.0	0.003	0.003	0.003	0.006	9.967061511230469	-0.02633621826171875	-0.1514332550048828	1.64031982421875	-3.131866455078125	-1.003265380859375	9.72345149230957	0.3896563201904297	0.2454056701660156	1.323699951171875	-4.791259765625	-3.093719482421875	9.916783276367187	0.09038111267089843	-0.02454056701660156	3.681182861328125	-4.41741943359375	-2.35748291015625	
180	0.72	0.0	0.0	0.0	0.0	0.003	0.006	0.003	0.006	9.996390481567381	0.17118541870117188	-0.22565350646972654	3.688812255859375	-4.53948974609375	-0.9613037109375	9.767145672607422	0.5033808990478515	0.04668693237304687	0.659942626953125	-4.810333251953125	-2.92205810546875	9.986813674926758	-0.1131260284423828	-0.37828386230468747	3.91387939453125	-4.848480224609375	-2.227783203125	
181	0.724	0.0	0.0	0.0	0.0	0.006	0.003	0.006	0.006	9.847351428222655	0.20829554443359374	0.00239420166015625	2.38037109375	-3.662109375	-0.766754150390625	9.53131680908203	0.536899722290039	0.27174188842773433	0.64849853515625	-4.53948974609375	-2.986907958984375	9.708487731933593	0.15562310791015624	-0.044891281127929686	3.765106201171875	-4.5318603515625	-2.590179443359375	
182	0.728	0.0	0.0	0.0	0.0	0.006	0.003	0.006	0.009000000000000001	9.977236868286132	0.2813186950683594	-0.2454056701660156	4.306793212890625	-4.848480224609375	-0.885009765625	9.794678991699218	0.4447229583740234	0.12689268798828124	1.018524169921875	-5.43212890625	-2.681732177734375	9.860519537353515	0.14125789794921875	0.11791443176269531	3.353118896484375	-4.6234130859375	-1.697540283203125	
183	0.732	0.0	0.0	0.0	0.0	0.003	0.003	0.006	0.006	9.988609326171874	0.1388636962890625	0.047285482788085934	5.3558349609375	-5.24139404296875	-0.934600830078125	9.648632690429688	0.4273649963378906	0.2609679809570312	1.331329345703125	-4.8828125	-3.429412841796875	9.958083255004881	-0.06344634399414062	-0.10953472595214843	3.5400390625	-4.222869873046875	-2.37274169921875	
184	0.736	0.0	0.0	0.0	0.0	0.006	0.003	0.006	0.006	9.90122096557617	0.15981296081542967	-0.1406593475341797	3.39508056640625	-4.428863525390625	-0.91552734375	9.73602105102539	0.4578910675048828	0.04848258361816406	1.06048583984375	-5.084991455078125	-2.960205078125	9.82460651245117	0.21607669982910155	-0.020949264526367185	3.326416015625	-4.63104248046875	-1.850128173828125	
185	0.74	0.0	0.0	0.0	0.0	0.006	0.006	0.003	0.003	9.897629663085937	0.10714052429199218	-0.010175357055664061	4.085540771484375	-4.6844482421875	-0.629425048828125	9.545682019042967	0.565031591796875	0.31483751831054685	1.57928466796875	-5.07354736328125	-2.777099609375	9.999981784057617	-0.08080430603027343	-0.239420166015625	3.719329833984375	-4.35638427734375	-2.147674560546875	
186	0.744	0.0	0.0	0.0	0.0	0.003	0.003	0.006	0.006	10.025719451904296	0.2184709014892578	-0.14245499877929688	4.062652587890625	-4.726409912109375	-0.850677490234375	9.951499200439452	0.27174188842773433	-0.00718260498046875	0.926971435546875	-5.504608154296875	-2.605438232421875	10.149020837402343	0.08319850769042968	-0.15203180541992187	3.2958984375	-4.749298095703125	-1.934051513671875	
187	0.748	0.0	0.0	0.0	0.0	-0.003	0.003	0.006	0.003	10.011354241943359	0.076614453125	-0.16220716247558592	5.199432373046875	-5.245208740234375	-1.10626220703125	9.906607919311522	0.5626373901367188	0.03411737365722656	1.38092041015625	-4.589080810546875	-2.98309326171875	10.271125122070313	-0.2998737579345703	-0.4034229797363281	3.704071044921875	-4.375457763671875	-2.223968505859375	
188	0.752	0.0	0.0	0.0	0.0	0.006	0.006	4.488	4.521	9.702502227783203	0.24480711975097655	0.3705027069091797	4.238128662109375	-4.886627197265625	-0.804901123046875	9.630077627563477	0.4950011932373047	0.12509703674316405	1.209259033203125	-5.18798828125	-2.5634765625	9.647435589599608	0.39863457641601563	0.15562310791015624	3.574371337890625	-4.787445068359375	-2.08282470703125	
189	0.756	0.0	0.0	0.0	0.0	4.533	4.593	4.596	4.5360000000000005	9.963470208740233	-0.09816226806640624	-0.05985504150390625	4.90570068359375	-5.352020263671875	-0.8087158203125	9.955090502929687	0.4560954162597656	0.022744915771484374	1.47247314453125	-4.7607421875	-2.948760986328125	10.351330877685546	-0.3435679382324219	-0.4273649963378906	3.509521484375	-4.505157470703125	-1.89208984375	
190	0.76	0.0	0.0	0.0	0.0	4.527	4.593	4.593	4.539	9.8449572265625	-0.13347674255371092	0.21188684692382811	3.7078857421875	-4.222869873046875	-1.06048583984375	9.943119494628906	0.36930560607910157	0.2765302917480469	0.751495361328125	-5.19561767578125	-2.918243408203125	10.293271487426757	0.10654197387695312	-0.31543606872558594	3.513336181640625	-4.57000732421875	-2.1209716796875	
191	0.764	0.0	0.0	0.0	0.0	4.539	4.59	4.587	4.527	9.862315188598632	0.32920272827148434	-0.00239420166015625	-1.087188720703125	-1.41143798828125	-1.071929931640625	9.641450085449218	0.5680243438720702	0.18555062866210936	1.51824951171875	-4.58526611328125	-3.082275390625	10.000580334472655	-0.16041151123046873	-0.38786066894531246	3.368377685546875	-4.344940185546875	-1.880645751953125	
192	0.768	0.0	0.0	0.0	0.0	4.5360000000000005	4.596	4.593	4.506	9.726444244384766	0.19632453613281248	0.3495534423828125	4.314422607421875	-4.962921142578125	-0.675201416015625	9.78031378173828	0.5494692810058593	0.28790274963378903	0.522613525390625	-5.146026611328125	-2.620697021484375	10.070012182617187	0.316034619140625	-0.36152445068359373	3.5400390625	-4.642486572265625	-1.97601318359375	
193	0.772	0.0	0.0	0.0	0.0	4.545	4.596	4.596	4.5	9.94012674255371	-0.15023615417480468	-0.003591302490234375	0.476837158203125	-2.3345947265625	-0.885009765625	10.122086068725585	0.34536358947753903	-0.13108254089355467	1.40380859375	-5.123138427734375	-2.994537353515625	10.295067138671874	-0.2741360900878906	-0.25258827514648435	3.566741943359375	-4.741668701171875	-1.708984375	
194	0.776	0.0	0.0	0.0	0.0	4.545	4.59	4.599	4.524	9.72345149230957	0.04848258361816406	0.2723404388427734	3.665924072265625	-4.6539306640625	-0.766754150390625	9.759963067626952	0.5009866973876953	0.2088940948486328	0.51116943359375	-5.031585693359375	-2.8533935546875	10.072406384277343	0.17118541870117188	-0.4417302062988281	3.4942626953125	-4.734039306640625	-2.01416015625	
195	0.78	0.0	0.0	0.0	0.0	4.539	4.596	4.596	4.533	9.855731134033203	-0.18136077575683593	-0.06284779357910156	-0.6103515625	-1.99127197265625	-0.782012939453125	9.815029705810547	0.5758054992675781	-0.06763619689941405	1.0833740234375	-4.95147705078125	-2.3651123046875	9.944915145874022	0.06045359191894531	-0.4644751220703125	3.4027099609375	-4.459381103515625	-1.54876708984375	
196	0.784	0.0	0.0	0.0	0.0	4.533	4.596	4.596	4.53	9.814431155395507	-0.27832594299316404	0.11432312927246092	-0.06866455078125	-1.918792724609375	-0.8087158203125	9.804255798339844	0.5141548065185546	0.22385785522460935	0.79345703125	-5.18798828125	-3.082275390625	9.981426721191406	-0.08259995727539061	-0.0053869537353515625	3.398895263671875	-4.638671875	-2.044677734375	
197	0.788	0.0	0.0	0.0	0.0	4.521	4.599	4.593	4.545	9.948506448364258	-0.229843359375	-0.14784195251464843	0.911712646484375	-2.62451171875	-1.285552978515625	9.91498762512207	0.3064578125	-0.003591302490234375	1.3427734375	-4.749298095703125	-3.406524658203125	10.212467181396484	-0.2609679809570312	-0.43574470214843747	3.5247802734375	-4.619598388671875	-2.140045166015625	
198	0.792	0.0	0.0	0.0	0.0	4.545	4.59	4.593	4.518	9.681552963256836	0.0526724365234375	0.23523031311035156	0.5645751953125	-2.399444580078125	-0.827789306640625	9.501987838745116	0.8212111694335937	0.2555810272216797	0.9765625	-4.863739013671875	-2.971649169921875	9.76175871887207	0.20290859069824219	-0.3130418670654297	3.28826904296875	-4.7149658203125	-1.96075439453125	
199	0.796	0.0	0.0	0.0	0.0	4.545	4.599	4.596	0.006	9.903016616821288	-0.258573779296875	0.003591302490234375	-0.782012939453125	-1.697540283203125	-0.904083251953125	9.737218151855469	0.33698388366699217	0.2166752502441406	0.942230224609375	-5.191802978515625	-3.2196044921875	10.20229182434082	-0.17238251953125	-0.25438392639160157	3.612518310546875	-4.791259765625	-1.766204833984375	
200	0.8	0.0	0.0	0.0	0.0	0.003	0.006	0.003	0.006	9.886855755615233	-0.25737667846679685	0.09816226806640624	-0.400543212890625	-1.8157958984375	-1.30462646484375	9.848548529052733	0.3315969299316406	0.21009119567871093	0.995635986328125	-5.100250244140625	-3.2806396484375	10.19570776977539	-0.296881005859375	-0.15322890625	3.82232666015625	-4.53948974609375	-2.532958984375	
201	0.804	0.0	0.0	0.0	0.0	0.003	0.003	0.006	0.0	9.846752877807617	0.2747346405029297	-0.0005985504150390625	0.732421875	-2.597808837890625	-1.110076904296875	9.680954412841796	0.5602431884765625	0.11911153259277343	0.4425048828125	-4.913330078125	-3.284454345703125	9.807847100830077	0.2316390106201172	-0.33518823242187495	3.612518310546875	-4.70733642578125	-2.323150634765625	
202	0.808	0.0	0.0	0.0	0.0	0.006	0.003	0.003	0.003	9.737218151855469	-0.1484405029296875	0.25917232971191406	-1.514434814453125	-1.140594482421875	-0.942230224609375	9.496600885009766	0.4944026428222656	0.30705636291503907	0.61798095703125	-4.703521728515625	-3.10516357421875	9.7683427734375	0.004189852905273437	0.03232172241210937	3.570556640625	-4.749298095703125	-2.14385986328125	
203	0.812	0.0	0.0	0.0	0.0	0.003	0.003	0.003	0.003	10.050858569335936	-0.01975216369628906	-0.09756371765136718	1.0223388671875	-2.765655517578125	-0.92315673828125	9.973047015380859	0.09696516723632811	0.21906945190429686	0.766754150390625	-4.99725341796875	-2.9754638671875	10.242394702148436	-0.19213468322753904	-0.28012159423828126	3.704071044921875	-4.8980712890625	-2.34222412109375	
204	0.8160000000000001	0.0	0.0	0.0	0.0	0.003	0.006	0.006	0.006	9.862315188598632	0.08798691101074219	0.016160861206054686	5.51605224609375	-5.191802978515625	-0.93841552734375	9.667187753295899	0.5189432098388671	0.15562310791015624	0.812530517578125	-4.69207763671875	-3.44085693359375	9.843760125732421	-0.16220716247558592	-0.05686228942871093	3.604888916015625	-4.4097900390625	-2.521514892578125	
205	0.8200000000000001	0.0	0.0	0.0	0.0	0.003	0.003	0.006	0.006	9.821015209960937	0.6141127258300781	0.00718260498046875	1.880645751953125	-3.27301025390625	-0.7476806640625	9.554660275268555	0.4165910888671875	0.3507505432128906	0.743865966796875	-4.90570068359375	-2.307891845703125	9.624092123413085	0.26815058593749996	-0.11013327636718749	3.65447998046875	-4.566192626953125	-2.34222412109375	
206	0.8240000000000001	0.0	0.0	0.0	0.0	0.003	0.003	0.006	0.006	9.943718045043944	0.14425065002441406	0.0909796630859375	5.37872314453125	-5.5694580078125	-0.514984130859375	9.888052856445311	0.34177228698730466	0.15562310791015624	1.010894775390625	-4.772186279296875	-3.25775146484375	10.050858569335936	-0.2615665313720703	-0.03232172241210937	3.5858154296875	-4.421234130859375	-2.101898193359375	
207	0.8280000000000001	0.0	0.0	0.0	0.0	0.006	0.003	0.003	0.003	10.059836825561522	0.2537853759765625	-0.27293898925781246	2.3651123046875	-3.387451171875	-1.018524169921875	9.903615167236328	0.23403321228027343	-0.0143652099609375	0.57220458984375	-5.100250244140625	-2.67791748046875	10.134655627441406	-0.14963760375976562	-0.14425065002441406	3.7384033203125	-4.75311279296875	-2.1820068359375	
208	0.8320000000000001	0.0	0.0	0.0	0.0	0.003	0.006	0.006	0.006	9.854534033203125	0.6596025573730468	0.04189852905273437	5.908966064453125	-5.603790283203125	-0.79345703125	9.436745843505859	0.7110778930664062	0.35673604736328124	1.140594482421875	-3.91387939453125	-3.23486328125	9.554061724853515	0.2328361114501953	0.047884033203124995	3.559112548828125	-4.2724609375	-1.9989013671875	
209	0.836	0.0	0.0	0.0	0.0	0.003	0.003	0.003	0.0	9.84555577697754	0.1388636962890625	0.17357962036132812	6.66046142578125	-6.561279296875	-0.675201416015625	9.808445651245117	0.2136824981689453	0.0939724151611328	0.476837158203125	-5.107879638671875	-2.429962158203125	9.923965881347655	-0.08259995727539061	0.04548983154296875	3.5400390625	-4.802703857421875	-1.758575439453125	
210	0.84	0.0	0.0	0.0	0.0	0.0	0.003	0.006	0.006	10.104129556274414	0.1292868896484375	-0.16998831787109375	5.97381591796875	-6.06536865234375	-0.911712646484375	10.013748443603514	0.3872621185302734	-0.03591302490234375	1.25885009765625	-5.023956298828125	-3.0059814453125	10.073603485107421	-0.05805939025878906	-0.19333178405761717	3.772735595703125	-4.3792724609375	-2.227783203125	
211	0.844	0.0	0.0	0.0	0.0	0.006	0.003	0.006	0.003	9.945513696289062	0.05327098693847656	-0.07781155395507812	5.397796630859375	-5.420684814453125	-1.056671142578125	9.59536170349121	0.4321533996582031	0.03411737365722656	0.949859619140625	-4.94384765625	-2.62451171875	9.789292037963866	0.052073886108398436	-0.10953472595214843	3.6773681640625	-4.589080810546875	-2.086639404296875	
212	0.848	0.0	0.0	0.0	0.0	0.006	0.003	0.003	0.006	9.898826763916015	0.3633201019287109	0.10354922180175781	7.01904296875	-6.70623779296875	-0.45013427734375	9.742605105590819	0.5823895538330078	0.07601590270996093	1.0223388671875	-5.031585693359375	-2.72369384765625	9.984419473266602	0.2166752502441406	-0.2059013427734375	3.772735595703125	-4.482269287109375	-1.865386962890625	
213	0.852	0.0	0.0	0.0	0.0	0.006	0.006	0.003	0.003	9.995791931152343	-0.2549824768066406	0.0053869537353515625	5.8746337890625	-5.86700439453125	-0.83160400390625	9.976638317871092	0.3495534423828125	0.2166752502441406	1.0986328125	-5.054473876953125	-2.758026123046875	10.166977349853514	-0.26695348510742184	-0.09995791931152344	3.612518310546875	-4.58526611328125	-2.231597900390625	
214	0.856	0.0	0.0	0.0	0.0	0.006	0.003	0.006	0.003	9.878476049804688	-0.24181436767578124	-0.0047884033203125	1.316070556640625	-2.72369384765625	-1.247406005859375	9.843760125732421	0.6218938812255859	-0.1131260284423828	1.331329345703125	-4.5928955078125	-3.16619873046875	10.286687432861328	0.06105214233398437	-0.5009866973876953	3.810882568359375	-4.329681396484375	-2.498626708984375	
215	0.86	0.0	0.0	0.0	0.0	0.003	0.003	0.003	0.003	9.753977563476562	-0.17118541870117188	0.23223756103515625	4.436492919921875	-5.153656005859375	-0.8697509765625	9.612719665527344	0.4950011932373047	0.4578910675048828	0.789642333984375	-4.924774169921875	-2.86865234375	9.874286196899414	0.1131260284423828	-0.13587094421386717	3.448486328125	-4.82940673828125	-1.682281494140625	
216	0.864	0.0	0.0	0.0	0.0	0.0	0.003	0.003	0.006	9.750386260986328	-0.4267664459228515	0.22565350646972654	-0.400543212890625	-1.94549560546875	-0.57220458984375	9.926360083007811	0.6362590911865234	0.07422025146484375	1.522064208984375	-4.9591064453125	-2.925872802734375	10.343549722290039	0.0143652099609375	-0.44113165588378905	3.696441650390625	-4.55474853515625	-2.124786376953125	
217	0.868	0.0	0.0	0.0	0.0	0.006	0.006	0.003	0.003	9.950900650024414	-0.40222587890625	0.11013327636718749	-0.865936279296875	-1.22833251953125	-1.056671142578125	9.957484704589843	0.421978042602539	0.24301146850585936	0.728607177734375	-4.840850830078125	-3.21197509765625	10.416572872924805	-0.1083376251220703	-0.4896142395019531	3.353118896484375	-4.43267822265625	-1.922607421875	
218	0.872	0.0	0.0	0.0	0.0	0.003	0.003	0.006	0.003	9.665392102050781	0.03411737365722656	0.3274070770263672	-0.095367431640625	-1.70135498046875	-1.117706298828125	9.735422500610351	0.7338228088378905	0.18315642700195311	1.5106201171875	-4.8828125	-2.95257568359375	9.948506448364258	0.1005564697265625	-0.4578910675048828	3.5858154296875	-4.550933837890625	-2.23541259765625	
219	0.876	0.0	0.0	0.0	0.0	0.003	0.003	0.003	0.003	9.564237081909178	0.25797522888183594	0.5129577056884765	-1.16729736328125	-1.35040283203125	-1.0528564453125	9.655815295410155	0.5626373901367188	0.30346506042480464	0.4425048828125	-5.229949951171875	-2.54058837890625	10.114304913330077	0.11133037719726561	-0.28371289672851563	3.543853759765625	-4.611968994140625	-1.758575439453125	
220	0.88	0.0	0.0	0.0	0.0	0.003	0.003	0.003	0.003	9.890447058105469	-0.20829554443359374	0.0526724365234375	-0.614166259765625	-1.483917236328125	-1.056671142578125	10.123283169555663	0.4997895965576172	-0.0017956512451171875	0.70953369140625	-4.6234130859375	-2.92205810546875	10.36150623474121	-0.12988544006347655	-0.6607996582031249	3.47900390625	-4.642486572265625	-2.140045166015625	
221	0.884	0.0	0.0	0.0	0.0	0.009000000000000001	0.003	0.003	0.006	9.737218151855469	0.3938461730957031	0.2346317626953125	0.60272216796875	-2.170562744140625	-0.797271728515625	9.667786303710937	0.4950011932373047	0.28790274963378903	0.102996826171875	-4.627227783203125	-2.86865234375	10.007762939453125	0.15322890625	-0.34117373657226563	3.406524658203125	-4.604339599609375	-1.979827880859375	
222	0.888	0.0	0.0	0.0	0.0	0.006	0.003	0.003	0.003	9.847351428222655	0.5524620330810547	0.01975216369628906	2.17437744140625	-3.41033935546875	-0.720977783203125	9.628880526733397	0.7032967376708984	0.09696516723632811	0.980377197265625	-5.290985107421875	-2.918243408203125	9.916184725952148	0.1274912384033203	-0.4465186096191406	3.3721923828125	-4.55474853515625	-1.88446044921875	
223	0.892	0.0	0.0	0.0	0.0	0.003	0.003	0.003	0.006	9.826402163696288	0.24480711975097655	0.07601590270996093	2.605438232421875	-3.765106201171875	-1.1749267578125	9.83178911743164	0.3435679382324219	0.20171148986816406	0.415802001953125	-5.062103271484375	-2.475738525390625	10.175955606079102	0.0	-0.25318682556152344	3.27301025390625	-4.840850830078125	-1.6937255859375	
224	0.896	0.0	0.0	0.0	0.0	0.006	0.006	0.003	0.006	9.944915145874022	0.20051438903808594	-0.010773907470703125	2.590179443359375	-3.59344482421875	-0.934600830078125	9.910199221801758	0.5722141967773438	-0.15023615417480468	1.31988525390625	-5.05828857421875	-3.200531005859375	10.23401499633789	-0.12569558715820311	-0.6314706878662109	3.162384033203125	-4.367828369140625	-2.223968505859375	
225	0.9	0.0	0.0	0.0	0.0	0.003	0.006	0.006	0.006	9.645041387939452	0.3585316986083984	0.258573779296875	2.17437744140625	-3.27301025390625	-1.049041748046875	9.451111053466796	0.6153098266601562	0.4572925170898437	1.07574462890625	-5.1116943359375	-3.261566162109375	9.77432827758789	0.3022679595947265	-0.10953472595214843	3.475189208984375	-4.8675537109375	-2.025604248046875	
226	0.904	0.0	0.0	0.0	0.0	0.003	0.006	0.003	0.003	9.777919580078125	0.31663316955566406	0.24181436767578124	1.926422119140625	-3.77655029296875	-0.888824462890625	9.91558617553711	0.5213374114990235	-0.07062894897460938	1.07574462890625	-4.825592041015625	-3.01361083984375	9.91438907470703	-0.1370680450439453	-0.2567781280517578	3.814697265625	-4.89044189453125	-2.201080322265625	
227	0.908	0.0	0.0	0.0	0.0	0.009000000000000001	0.006	0.006	0.006	9.944316595458984	-0.08559270935058594	-0.08559270935058594	2.46429443359375	-3.528594970703125	-0.949859619140625	9.84435867614746	0.2962824554443359	0.10175357055664062	0.988006591796875	-4.840850830078125	-3.4027099609375	10.159794744873047	0.025139117431640625	-0.3076549133300781	3.582000732421875	-4.634857177734375	-2.140045166015625	
228	0.912	0.0	0.0	0.0	0.0	0.003	0.006	0.003	0.006	9.803058697509766	0.2741360900878906	0.17597382202148437	0.89263916015625	-2.70843505859375	-0.762939453125	9.752780462646484	0.6440402465820312	0.04668693237304687	0.782012939453125	-4.73785400390625	-2.994537353515625	9.82580361328125	-0.07003039855957031	-0.2711433380126953	3.45611572265625	-4.596710205078125	-2.25830078125	
229	0.916	0.0	0.0	0.0	0.0	0.006	0.003	0.003	0.006	9.758167416381836	0.2699462371826172	0.2316390106201172	2.8839111328125	-3.9520263671875	-0.408172607421875	9.595960253906249	0.45190556335449217	0.3130418670654297	0.732421875	-4.92095947265625	-3.047943115234375	9.65940659790039	0.1370680450439453	0.04608838195800781	3.814697265625	-4.634857177734375	-2.071380615234375	
230	0.92	0.0	0.0	0.0	0.0	0.003	0.003	0.006	0.003	10.01733974609375	0.24779987182617186	-0.11432312927246092	4.21905517578125	-4.974365234375	-0.766754150390625	9.906009368896484	0.28311434631347654	-0.0909796630859375	1.110076904296875	-5.260467529296875	-2.681732177734375	10.104728106689452	-0.23642741394042968	-0.30466216125488277	3.48663330078125	-4.741668701171875	-2.040863037109375	
231	0.924	0.0	0.0	0.0	0.0	0.003	0.006	0.003	0.003	9.813234054565429	0.1131260284423828	0.15442600708007811	4.360198974609375	-4.5623779296875	-0.827789306640625	9.641450085449218	0.36272155151367186	0.2747346405029297	0.728607177734375	-4.741668701171875	-3.307342529296875	9.907206469726562	-0.061650692749023434	-0.13407529296874998	3.726959228515625	-4.428863525390625	-2.597808837890625	
232	0.928	0.0	0.0	0.0	0.0	0.003	0.006	0.003	0.003	9.888052856445311	0.23523031311035156	-0.05805939025878906	3.505706787109375	-4.627227783203125	-0.6103515625	9.623493572998047	0.5303156677246094	0.0430956298828125	1.27410888671875	-5.153656005859375	-2.735137939453125	9.731232647705077	0.18435352783203124	0.14245499877929688	3.5247802734375	-4.69207763671875	-1.85394287109375	
233	0.932	0.0	0.0	0.0	0.0	0.0	0.003	0.003	0.006	9.83238766784668	0.181959326171875	0.12689268798828124	4.772186279296875	-4.985809326171875	-0.60272216796875	9.829394915771484	0.3082534637451172	0.1484405029296875	1.224517822265625	-4.787445068359375	-2.910614013671875	9.913790524291992	-0.10295067138671875	-0.00718260498046875	3.86810302734375	-4.550933837890625	-2.490997314453125	
234	0.936	0.0	0.0	0.0	0.0	0.006	4.572	4.59	4.527	10.094552749633788	0.09457096557617187	-0.28909985046386716	4.795074462890625	-5.084991455078125	-1.071929931640625	9.855132583618163	0.24959552307128904	-0.059256491088867186	1.224517822265625	-5.161285400390625	-3.08990478515625	10.131064324951172	-0.009576806640625	-0.07242460021972656	3.520965576171875	-4.657745361328125	-1.7852783203125	
235	0.9400000000000001	0.0	0.0	0.0	0.0	4.5360000000000005	4.593	4.596	4.533	9.885658654785155	0.003591302490234375	-0.06404489440917968	4.57000732421875	-4.749298095703125	-0.980377197265625	9.570821136474608	0.5315127685546874	0.3010708587646484	1.277923583984375	-4.894256591796875	-3.170013427734375	9.611522564697266	0.016160861206054686	0.034715924072265626	4.7149658203125	-4.486083984375	-2.567291259765625	
236	0.9440000000000001	0.0	0.0	0.0	0.0	4.524	4.59	4.593	4.542	10.01075569152832	0.11671733093261719	-0.0796072052001953	3.936767578125	-5.06591796875	-0.705718994140625	9.810241302490233	0.3716998077392578	0.2663549346923828	0.6866455078125	-5.01251220703125	-2.44903564453125	9.909600671386718	0.16220716247558592	0.062249243164062495	3.44085693359375	-4.75311279296875	-1.605987548828125	
237	0.9480000000000001	0.0	0.0	0.0	0.0	4.542	4.596	4.596	4.518	10.044873065185547	0.020949264526367185	-0.1771709228515625	5.786895751953125	-5.4168701171875	-0.957489013671875	9.873687646484374	0.3651157531738281	0.11791443176269531	1.041412353515625	-4.608154296875	-3.200531005859375	10.462661254882812	-0.4734533782958984	-0.5722141967773438	3.566741943359375	-4.245758056640625	-2.193450927734375	
238	0.9520000000000001	0.0	0.0	0.0	0.0	4.542	4.596	4.596	4.503	9.994594830322265	0.3363853332519531	-0.09935936889648436	4.8370361328125	-5.039215087890625	-0.96893310546875	9.789292037963866	0.37828386230468747	0.2316390106201172	0.87738037109375	-5.069732666015625	-2.498626708984375	9.85632968444824	0.20290859069824219	0.08200140686035155	3.345489501953125	-4.375457763671875	-1.811981201171875	
239	0.9560000000000001	0.0	0.0	0.0	0.0	4.545	4.593	4.596	4.506	9.859322436523437	0.201112939453125	0.06703764648437499	5.359649658203125	-5.37109375	-0.629425048828125	9.82460651245117	0.5799953521728515	0.023942016601562498	1.54876708984375	-4.96673583984375	-2.948760986328125	10.053851321411132	-0.2615665313720703	-0.34237083740234375	3.826141357421875	-4.38690185546875	-1.789093017578125	
240	0.96	0.0	0.0	0.0	0.0	4.542	4.587	4.596	4.527	9.747393508911133	0.028131869506835935	0.30885201416015623	4.062652587890625	-4.787445068359375	-0.820159912109375	10.000580334472655	0.2292448089599609	0.10414777221679687	0.640869140625	-5.0048828125	-2.3651123046875	10.268730920410155	0.12629413757324218	-0.4387374542236328	3.383636474609375	-4.84466552734375	-1.9989013671875	
241	0.964	0.0	0.0	0.0	0.0	4.5360000000000005	4.593	4.599	4.533	9.974842666625976	0.13287819213867186	-0.07242460021972656	5.092620849609375	-5.268096923828125	-0.91552734375	10.012551342773437	0.4626794708251953	-0.15263035583496093	1.28173828125	-4.55474853515625	-3.139495849609375	10.345345373535155	-0.37229835815429685	-0.6332663391113281	3.44085693359375	-4.444122314453125	-2.06756591796875	
242	0.968	0.0	0.0	0.0	0.0	4.533	4.596	4.596	4.539	9.618705169677733	0.258573779296875	0.4261678955078125	3.77655029296875	-4.299163818359375	-0.888824462890625	9.539696514892578	0.6889315277099609	0.27892449340820313	0.9002685546875	-5.2032470703125	-2.67791748046875	9.993996279907225	0.3327940307617187	-0.41419688720703124	3.41033935546875	-4.779815673828125	-1.9073486328125	
243	0.972	0.0	0.0	0.0	0.0	4.524	0.003	0.003	0.006	9.964667309570311	0.055066638183593745	-0.1322796417236328	-0.797271728515625	-1.628875732421875	-0.743865966796875	10.012551342773437	0.48542438659667964	-0.13766659545898435	1.461029052734375	-5.2032470703125	-2.63214111328125	10.187328063964843	-0.09157821350097656	-0.49380409240722656	3.22723388671875	-5.05828857421875	-1.560211181640625	
244	0.976	0.0	0.0	0.0	0.0	0.006	0.006	0.003	0.006	9.709086282348633	0.020350714111328123	0.32501287536621093	3.582000732421875	-4.425048828125	-0.614166259765625	9.78629928588867	0.4734533782958984	0.07302315063476562	1.04522705078125	-4.940032958984375	-2.941131591796875	10.270526571655273	0.028730419921875	-0.42317514343261714	3.475189208984375	-4.57763671875	-2.246856689453125	
245	0.98	0.0	0.0	0.0	0.0	0.006	0.006	0.003	0.003	9.765350021362304	-0.05626373901367187	0.14604630126953125	-1.277923583984375	-1.30462646484375	-1.033782958984375	9.810241302490233	0.5638344909667968	-0.0909796630859375	1.1749267578125	-5.062103271484375	-3.47900390625	10.124480270385742	0.0	-0.5853823059082031	3.322601318359375	-4.638671875	-1.60980224609375	
246	0.984	0.0	0.0	0.0	0.0	0.006	0.003	0.006	0.006	9.62169792175293	0.07302315063476562	0.4537012145996093	3.055572509765625	-4.1656494140625	-0.69427490234375	9.649231240844726	0.6691793640136718	0.2759317413330078	0.782012939453125	-5.222320556640625	-2.84576416015625	10.102333905029296	0.11851298217773437	-0.3699041564941406	3.322601318359375	-4.6539306640625	-1.88446044921875	
247	0.988	0.0	0.0	0.0	0.0	0.006	0.003	0.003	0.006	9.847949978637695	-0.07841010437011718	0.13108254089355467	-1.216888427734375	-1.40380859375	-0.885009765625	10.038289010620117	0.32920272827148434	-0.09696516723632811	1.056671142578125	-4.909515380859375	-3.162384033203125	10.43153663330078	-0.12090718383789062	-0.7511807708740234	3.48663330078125	-4.940032958984375	-1.895904541015625	
248	0.992	0.0	0.0	0.0	0.0	0.003	0.006	0.006	0.006	9.865307940673828	-0.022146365356445312	0.025737667846679687	-0.67901611328125	-1.5411376953125	-1.010894775390625	9.637858782958984	0.7643488800048828	0.20769699401855468	1.071929931640625	-5.06591796875	-3.41796875	9.936535440063476	-0.10594342346191406	-0.21068974609375	3.398895263671875	-4.688262939453125	-2.38037109375	
249	0.996	0.0	0.0	0.0	0.0	0.003	0.006	0.006	0.006	9.664195001220703	0.08259995727539061	0.28790274963378903	-1.8463134765625	-0.865936279296875	-1.117706298828125	9.76894132385254	0.45070846252441404	0.08499415893554688	1.117706298828125	-5.214691162109375	-3.18145751953125	10.065223779296874	0.11731588134765625	-0.5470750793457031	3.429412841796875	-4.69970703125	-1.689910888671875	
250	1.0	0.0	0.0	0.0	0.0	0.006	0.003	0.006	0.006	9.905410818481444	-0.05327098693847656	0.06464344482421874	-0.797271728515625	-1.52587890625	-0.77056884765625	9.797671743774414	0.5398924743652344	0.11432312927246092	0.858306884765625	-5.062103271484375	-3.082275390625	10.032902056884765	-0.17657237243652343	-0.20649989318847656	3.582000732421875	-4.81414794921875	-1.926422119140625	
251	1.004	0.0	0.0	0.0	0.0	0.003	0.003	0.003	0.006	9.80665	0.054468087768554684	0.1580173095703125	-1.361846923828125	-1.07574462890625	-1.129150390625	9.894038360595703	0.39923312683105466	0.10414777221679687	0.835418701171875	-4.82940673828125	-3.559112548828125	10.007762939453125	0.014963760375976562	-0.3327940307617187	3.589630126953125	-4.730224609375	-2.3651123046875	
252	1.008	0.0	0.0	0.0	0.0	0.003	0.003	0.003	0.009000000000000001	9.83897172241211	0.31004911499023435	0.10414777221679687	0.286102294921875	-2.00653076171875	-0.896453857421875	9.62109937133789	0.6434416961669921	0.3327940307617187	0.75531005859375	-4.791259765625	-3.017425537109375	9.701903677368163	0.06823474731445311	0.05566518859863281	3.612518310546875	-4.711151123046875	-2.040863037109375	
253	1.012	0.0	0.0	0.0	0.0	0.009000000000000001	0.003	0.003	0.003	9.968258612060547	0.5201403106689453	-0.22266075439453123	4.791259765625	-5.382537841796875	-0.736236572265625	9.706093530273437	0.35673604736328124	0.16160861206054686	0.423431396484375	-4.825592041015625	-2.574920654296875	9.841365924072266	0.07481880187988281	-0.2041056915283203	3.7078857421875	-4.741668701171875	-2.22015380859375	
254	1.016	0.0	0.0	0.0	0.0	0.003	0.003	0.006	0.0	10.004770187377929	0.2771288421630859	-0.09157821350097656	1.2359619140625	-2.64739990234375	-1.117706298828125	9.868899243164062	0.4656722229003906	0.181959326171875	1.03759765625	-4.8828125	-3.276824951171875	9.983820922851562	-0.06105214233398437	-0.08379705810546874	3.627777099609375	-4.4097900390625	-2.071380615234375	
255	1.02	0.0	0.0	0.0	0.0	0.003	0.006	0.003	0.006	9.996989031982421	0.6009446166992187	-0.24779987182617186	6.137847900390625	-5.95855712890625	-0.74005126953125	9.634267480468749	0.42018239135742186	0.19572598571777342	0.362396240234375	-4.863739013671875	-2.86865234375	9.764152920532226	0.0652419952392578	-0.2136824981689453	3.65447998046875	-4.703521728515625	-2.2430419921875	
256	1.024	0.0	0.0	0.0	0.0	0.009000000000000001	0.006	0.006	0.003	9.979631069946288	0.36152445068359373	-0.07062894897460938	7.57598876953125	-6.87408447265625	-0.576019287109375	9.637260232543944	0.5608417388916015	0.09935936889648436	0.5340576171875	-4.81414794921875	-2.5634765625	9.746794958496093	0.19572598571777342	-0.009576806640625	3.765106201171875	-4.566192626953125	-1.926422119140625	
257	1.028	0.0	0.0	0.0	0.0	0.003	0.006	0.006	0.003	10.052055670166014	0.5446808776855468	-0.24660277099609373	7.50732421875	-6.893157958984375	-0.55694580078125	9.821015209960937	0.32142157287597656	0.05327098693847656	0.4425048828125	-5.008697509765625	-2.498626708984375	9.988609326171874	-0.12449848632812499	-0.29388825378417965	3.414154052734375	-4.642486572265625	-1.956939697265625	
258	1.032	0.0	0.0	0.0	0.0	0.003	0.003	0.003	0.006	10.025120901489258	0.17357962036132812	-0.15023615417480468	7.190704345703125	-6.81304931640625	-1.110076904296875	9.6917283203125	0.507570751953125	0.001197100830078125	1.2664794921875	-5.138397216796875	-2.86102294921875	9.841964474487304	0.1867477294921875	0.002992752075195312	3.589630126953125	-4.108428955078125	-2.178192138671875	
259	1.036	0.0	0.0	0.0	0.0	0.003	0.003	0.006	0.003	9.931148486328125	0.5141548065185546	-0.17657237243652343	7.65228271484375	-6.81304931640625	-0.78582763671875	9.637858782958984	0.48662148742675776	0.21009119567871093	0.888824462890625	-5.1116943359375	-3.0364990234375	9.832986218261718	-0.058657940673828124	0.11252747802734374	3.41033935546875	-4.38690185546875	-1.964569091796875	
260	1.04	0.0	0.0	0.0	0.0	0.006	0.003	0.003	0.003	9.941323843383788	-0.05327098693847656	0.023942016601562498	6.41632080078125	-6.107330322265625	-0.812530517578125	9.69771382446289	0.45010991210937495	0.22086510314941404	1.3427734375	-5.3863525390625	-2.925872802734375	9.854534033203125	0.20649989318847656	0.10414777221679687	3.66973876953125	-4.34112548828125	-1.9989013671875	
261	1.044	0.0	0.0	0.0	0.0	0.006	0.006	0.003	0.006	9.819219558715819	-0.26815058593749996	0.3956418243408203	2.7008056640625	-3.59344482421875	-0.881195068359375	9.79946739501953	0.3603273498535156	0.23403321228027343	1.125335693359375	-5.0811767578125	-3.51715087890625	10.094552749633788	-0.23702596435546874	0.02454056701660156	3.551483154296875	-4.451751708984375	-2.01416015625	
262	1.048	0.0	0.0	0.0	0.0	0.006	0.006	0.006	0.003	9.849745629882811	0.09038111267089843	0.20231004028320312	5.24139404296875	-5.069732666015625	-0.904083251953125	9.79946739501953	0.70868369140625	0.14963760375976562	1.15966796875	-4.932403564453125	-3.047943115234375	10.144232434082031	0.10953472595214843	-0.36810850524902344	3.45611572265625	-4.08935546875	-2.349853515625	
263	1.052	0.0	0.0	0.0	0.0	0.003	0.003	0.006	0.009000000000000001	9.743802206420899	-0.03651157531738281	0.47165772705078124	2.32696533203125	-3.4942626953125	-0.80108642578125	9.746196408081055	0.5015852478027344	0.3142389678955078	0.98419189453125	-5.123138427734375	-2.99835205078125	9.94671079711914	-0.16041151123046873	0.12988544006347655	3.3111572265625	-4.6234130859375	-1.7547607421875	
264	1.056	0.0	0.0	0.0	0.0	0.003	0.003	0.006	0.003	9.942520944213866	-0.001197100830078125	0.11192892761230468	4.108428955078125	-4.2572021484375	-0.9613037109375	9.994594830322265	0.4267664459228515	0.06943184814453125	1.232147216796875	-4.87518310546875	-2.78472900390625	10.328585961914062	-0.07541735229492187	-0.3812766143798828	3.662109375	-4.367828369140625	-2.28118896484375	
265	1.06	0.0	0.0	0.0	0.0	0.003	0.006	0.003	0.003	9.832986218261718	-0.010773907470703125	0.3076549133300781	2.529144287109375	-3.360748291015625	-0.77056884765625	9.647435589599608	0.5213374114990235	0.46028526916503903	0.461578369140625	-5.069732666015625	-2.98309326171875	10.064026678466796	0.10654197387695312	-0.2519897247314453	3.498077392578125	-4.291534423828125	-1.89208984375	
266	1.064	0.0	0.0	0.0	0.0	0.003	0.003	0.003	0.006	9.835380419921874	0.020949264526367185	-0.04967968444824218	0.0457763671875	-2.124786376953125	-0.91552734375	9.817423907470703	0.49739539489746093	0.143652099609375	1.1444091796875	-4.98199462890625	-2.6702880859375	10.06881508178711	0.016160861206054686	-0.2346317626953125	3.6773681640625	-4.390716552734375	-2.346038818359375	
267	1.068	0.0	0.0	0.0	0.0	0.006	0.003	0.003	0.0	9.866505041503906	-0.03411737365722656	0.3298012786865234	3.925323486328125	-4.78363037109375	-0.690460205078125	9.756970315551758	0.47584757995605464	0.4052186309814453	0.720977783203125	-4.970550537109375	-2.73895263671875	10.190919366455077	0.08379705810546874	-0.2555810272216797	3.551483154296875	-4.634857177734375	-1.79290771484375	
268	1.072	0.0	0.0	0.0	0.0	0.003	0.003	0.003	0.006	9.848548529052733	-0.03651157531738281	0.06284779357910156	0.52642822265625	-2.38037109375	-1.312255859375	9.905410818481444	0.4961982940673828	0.09636661682128905	1.201629638671875	-4.64630126953125	-3.082275390625	10.194510668945313	-0.12150573425292968	-0.30526071166992186	3.30352783203125	-4.482269287109375	-2.033233642578125	
269	1.076	0.0	0.0	0.0	0.0	0.006	0.006	0.003	0.006	9.690531219482422	0.24600422058105467	0.4830301849365234	0.484466552734375	-4.02069091796875	-0.579833984375	9.603741409301758	0.5321113189697265	0.5021837982177734	0.614166259765625	-5.168914794921875	-2.655029296875	10.012551342773437	0.2519897247314453	-0.2472013214111328	3.376007080078125	-4.611968994140625	-1.739501953125	
270	1.08	0.0	0.0	0.0	0.0	0.006	0.003	0.003	0.003	9.809642752075195	0.023942016601562498	0.25737667846679685	0.274658203125	-2.05230712890625	-1.01470947265625	10.006565838623047	0.5225345123291015	-0.07721300354003906	1.285552978515625	-4.985809326171875	-2.98309326171875	10.133458526611328	-0.1879448303222656	-0.3752911102294922	3.47900390625	-4.8675537109375	-1.873016357421875	
271	1.084	0.0	0.0	0.0	0.0	0.003	0.003	0.006	0.006	9.833584768676758	0.01915361328125	0.0652419952392578	0.019073486328125	-1.827239990234375	-1.30462646484375	9.804255798339844	0.4375403533935547	0.30885201416015623	0.518798828125	-5.321502685546875	-2.838134765625	10.275913525390624	0.12988544006347655	-0.47584757995605464	3.467559814453125	-4.8980712890625	-2.05230712890625	
272	1.088	0.0	0.0	0.0	0.0	0.003	0.003	0.003	4.509	9.771934075927733	0.03950432739257812	0.19812018737792966	-0.759124755859375	-1.51824951171875	-1.018524169921875	9.885060104370117	0.5961562133789062	-0.07721300354003906	1.071929931640625	-4.6539306640625	-3.108978271484375	10.111910711669921	-0.14125789794921875	-0.4339490509033203	3.414154052734375	-4.8828125	-1.819610595703125	
273	1.092	0.0	0.0	0.0	0.0	4.533	4.593	4.596	4.527	9.803058697509766	-0.010773907470703125	0.16460136413574217	-0.492095947265625	-1.93023681640625	-0.843048095703125	9.64025298461914	0.5117606048583984	0.3633201019287109	0.52642822265625	-5.115509033203125	-3.0975341796875	9.744999307250977	0.08978256225585937	0.012569558715820313	3.6163330078125	-4.901885986328125	-2.262115478515625	
274	1.096	0.0	0.0	0.0	0.0	4.5360000000000005	4.593	4.596	4.53	9.93414123840332	0.18076222534179687	0.005985504150390624	1.026153564453125	-2.777099609375	-0.843048095703125	10.01733974609375	0.44891281127929683	-0.08020575561523437	1.323699951171875	-5.008697509765625	-3.292083740234375	10.231022244262695	-0.3022679595947265	-0.3447650390625	3.36456298828125	-4.852294921875	-1.739501953125	
275	1.1	0.0	0.0	0.0	0.0	4.527	4.593	4.596	4.542	9.843760125732421	-0.05027823486328125	0.05686228942871093	-0.194549560546875	-1.678466796875	-1.087188720703125	9.692326870727538	0.4782417816162109	0.26815058593749996	0.713348388671875	-4.8828125	-2.933502197265625	9.828796365356444	0.029927520751953124	-0.017357962036132813	3.5552978515625	-4.611968994140625	-2.471923828125	
276	1.104	0.0	0.0	0.0	0.0	4.542	4.596	4.596	4.524	9.840168823242188	0.29269115295410153	0.03232172241210937	1.247406005859375	-2.86865234375	-0.797271728515625	9.707889181518555	0.42437224426269526	0.1867477294921875	1.04522705078125	-5.084991455078125	-2.964019775390625	9.701305126953125	0.16819266662597654	-0.013168109130859374	3.749847412109375	-4.520416259765625	-1.922607421875	
277	1.108	0.0	0.0	0.0	0.0	4.539	4.596	4.596	4.503	9.89523546142578	-0.19033903198242186	0.02154781494140625	-0.110626220703125	-2.02178955078125	-1.064300537109375	9.745597857666015	0.4321533996582031	0.2819172454833984	0.637054443359375	-4.7607421875	-3.12042236328125	9.925162982177733	-0.062249243164062495	-0.06823474731445311	3.662109375	-4.8828125	-2.094268798828125	
278	1.112	0.0	0.0	0.0	0.0	4.545	4.593	4.596	4.5	9.90840357055664	0.18734627990722655	0.0	1.682281494140625	-2.838134765625	-0.762939453125	9.842563024902343	0.3585316986083984	0.05746083984375	0.904083251953125	-5.039215087890625	-3.009796142578125	10.00417163696289	0.022146365356445312	-0.2346317626953125	3.5552978515625	-4.69207763671875	-2.033233642578125	
279	1.116	0.0	0.0	0.0	0.0	4.539	4.59	4.599	4.524	9.828197814941406	0.3441664886474609	0.11432312927246092	4.093170166015625	-4.604339599609375	-1.041412353515625	9.526528405761718	0.5063736511230469	0.39324762268066404	0.865936279296875	-4.680633544921875	-3.509521484375	9.773131176757811	0.00239420166015625	-0.06584054565429687	3.696441650390625	-4.0130615234375	-2.46429443359375	
280	1.12	0.0	0.0	0.0	0.0	4.5360000000000005	4.596	4.596	0.003	9.884461553955077	0.21487959899902342	0.003591302490234375	1.415252685546875	-2.93731689453125	-0.89263916015625	9.7683427734375	0.27952304382324217	0.11013327636718749	1.40380859375	-5.08880615234375	-3.0517578125	9.860519537353515	0.1610100616455078	-0.11013327636718749	4.062652587890625	-4.947662353515625	-2.178192138671875	
281	1.124	0.0	0.0	0.0	0.0	0.006	0.006	0.003	0.003	9.87608184814453	0.14724340209960937	0.10893617553710937	3.92913818359375	-4.146575927734375	-0.72479248046875	9.718064538574218	0.4896142395019531	0.2705447875976562	1.102447509765625	-5.02777099609375	-3.406524658203125	9.966462960815429	-0.24779987182617186	-0.08918401184082031	3.88336181640625	-4.428863525390625	-2.3345947265625	
282	1.1280000000000001	0.0	0.0	0.0	0.0	0.003	0.003	0.003	0.006	9.878476049804688	0.2741360900878906	0.05985504150390625	4.360198974609375	-2.674102783203125	-0.980377197265625	9.767145672607422	0.2950853546142578	0.14963760375976562	0.51116943359375	-4.913330078125	-2.559661865234375	9.809044201660155	0.1640028137207031	-0.11911153259277343	3.5400390625	-4.8828125	-2.01416015625	
283	1.1320000000000001	0.0	0.0	0.0	0.0	0.006	0.006	0.006	0.006	9.85632968444824	0.3298012786865234	0.08798691101074219	3.96728515625	-4.31060791015625	-0.7171630859375	9.606734161376952	0.5243301635742187	0.23822306518554687	0.782012939453125	-4.734039306640625	-3.223419189453125	9.747393508911133	-0.086191259765625	0.0430956298828125	3.787994384765625	-4.390716552734375	-2.201080322265625	
284	1.1360000000000001	0.0	0.0	0.0	0.0	0.003	0.003	0.003	0.006	10.038289010620117	0.18914193115234373	-0.1592144104003906	5.603790283203125	-5.82122802734375	-0.9002685546875	9.835380419921874	0.3315969299316406	0.059256491088867186	0.522613525390625	-5.046844482421875	-2.66265869140625	10.029310754394531	-0.008978256225585938	-0.010773907470703125	3.387451171875	-4.581451416015625	-1.983642578125	
285	1.1400000000000001	0.0	0.0	0.0	0.0	0.003	0.006	0.003	0.003	9.910797772216796	0.4159925384521484	0.09038111267089843	5.3863525390625	-5.382537841796875	-0.789642333984375	9.890447058105469	0.4375403533935547	-0.015562310791015624	1.15203857421875	-4.955291748046875	-2.7923583984375	9.847351428222655	-0.13467384338378904	-0.054468087768554684	3.787994384765625	-4.192352294921875	-2.5482177734375	
286	1.1440000000000001	0.0	0.0	0.0	0.0	0.006	0.003	0.006	0.006	9.988609326171874	0.04908113403320312	-0.12629413757324218	5.458831787109375	-5.649566650390625	-0.8544921875	9.7162688873291	0.4423287567138672	0.013766659545898436	0.6866455078125	-5.107879638671875	-2.716064453125	9.840168823242188	0.09696516723632811	-0.03172317199707031	3.917694091796875	-4.69970703125	-2.09808349609375	
287	1.1480000000000001	0.0	0.0	0.0	0.0	0.006	0.003	0.003	0.006	9.88266590270996	0.001197100830078125	-0.028730419921875	4.360198974609375	-4.90570068359375	-0.827789306640625	9.87608184814453	0.40761283264160153	-0.12868833923339842	1.361846923828125	-5.1727294921875	-2.69317626953125	10.324396109008788	-0.03950432739257812	-0.6314706878662109	3.62396240234375	-4.726409912109375	-1.71661376953125	
288	1.1520000000000001	0.0	0.0	0.0	0.0	0.003	0.003	0.003	0.003	9.995193380737303	0.04189852905273437	-0.10594342346191406	6.4239501953125	-6.458282470703125	-0.782012939453125	9.815628256225585	0.3190273712158203	-0.08978256225585937	1.0986328125	-4.7760009765625	-3.0059814453125	10.072406384277343	-0.14425065002441406	-0.17298106994628906	3.490447998046875	-4.627227783203125	-2.37274169921875	
289	1.156	0.0	0.0	0.0	0.0	0.003	0.003	0.006	0.006	9.882067352294921	-0.2442085693359375	-0.12988544006347655	2.941131591796875	-4.032135009765625	-0.934600830078125	9.865307940673828	0.48722003784179685	-0.047884033203124995	1.2969970703125	-4.93621826171875	-2.7618408203125	10.207080227661132	0.07721300354003906	-0.5572504364013672	3.7689208984375	-4.5623779296875	-2.0751953125	
290	1.16	0.0	0.0	0.0	0.0	0.003	0.003	0.006	0.003	9.962273107910155	-0.04548983154296875	-0.12449848632812499	7.045745849609375	-6.8511962890625	-0.789642333984375	9.735422500610351	0.5578489868164063	0.24480711975097655	0.690460205078125	-5.27191162109375	-2.777099609375	9.937133990478515	-0.0987608184814453	-0.07781155395507812	3.246307373046875	-4.985809326171875	-1.827239990234375	
291	1.164	0.0	0.0	0.0	0.0	0.006	0.003	0.003	0.003	9.794678991699218	-0.24899697265624998	0.023942016601562498	2.918243408203125	-3.96728515625	-0.888824462890625	9.900622415161132	0.4644751220703125	-0.07302315063476562	1.41143798828125	-5.039215087890625	-2.8228759765625	10.328585961914062	-0.007781155395507812	-0.5027823486328125	3.582000732421875	-4.49371337890625	-2.132415771484375	
292	1.168	0.0	0.0	0.0	0.0	0.003	0.006	0.006	0.003	9.585186346435547	-0.1753752716064453	0.44412440795898434	-1.36566162109375	-1.0528564453125	-1.13677978515625	9.828197814941406	0.508169302368164	0.17417817077636719	1.163482666015625	-5.077362060546875	-3.10516357421875	10.178948358154296	-0.076614453125	-0.31483751831054685	3.54766845703125	-4.543304443359375	-1.888275146484375	
293	1.172	0.0	0.0	0.0	0.0	0.006	0.003	0.003	0.003	9.731232647705077	-0.2902969512939453	0.15023615417480468	1.28173828125	-2.96783447265625	-0.9918212890625	9.836577520751952	0.6344634399414062	0.1083376251220703	1.186370849609375	-5.1727294921875	-3.25775146484375	10.18373676147461	0.22385785522460935	-0.40282442932128903	3.73077392578125	-4.67681884765625	-2.12860107421875	
294	1.176	0.0	0.0	0.0	0.0	0.003	0.003	0.003	0.0	9.541492166137695	-0.05087678527832031	0.5207388610839844	-1.77764892578125	-0.736236572265625	-1.18255615234375	9.887454306030273	0.3315969299316406	0.3950432739257812	0.8544921875	-4.90570068359375	-2.849578857421875	10.24718310546875	-0.16879121704101563	-0.3112462158203125	3.31878662109375	-4.81414794921875	-1.918792724609375	
295	1.18	0.0	0.0	0.0	0.0	0.006	0.006	0.006	0.006	9.770736975097655	-0.19991583862304688	0.2615665313720703	-2.46429443359375	-2.193450927734375	-0.9307861328125	9.950302099609374	0.6542156036376953	0.0796072052001953	0.972747802734375	-4.9896240234375	-3.11279296875	10.171765753173828	0.0430956298828125	-0.5847837554931641	3.437042236328125	-4.7149658203125	-2.010345458984375	
296	1.184	0.0	0.0	0.0	0.0	0.006	0.006	0.003	0.006	9.578003741455078	0.19632453613281248	0.5153519073486328	-1.361846923828125	-1.125335693359375	-0.995635986328125	9.74859060974121	0.4369418029785156	0.2346317626953125	-0.133514404296875	-4.962921142578125	-2.918243408203125	10.081983190917969	-0.03411737365722656	-0.26755203552246093	3.70025634765625	-4.57763671875	-1.8157958984375	
297	1.188	0.0	0.0	0.0	0.0	0.006	0.003	0.003	0.006	9.92755718383789	0.2555810272216797	-0.15023615417480468	-0.659942626953125	-1.750946044921875	-0.957489013671875	9.957484704589843	0.6111199737548828	0.06943184814453125	0.705718994140625	-4.84466552734375	-2.7008056640625	10.029310754394531	0.062249243164062495	-0.46028526916503903	3.337860107421875	-4.512786865234375	-2.044677734375	
298	1.192	0.0	0.0	0.0	0.0	0.006	0.003	0.003	0.003	9.780912332153319	0.14903905334472656	0.2232593048095703	-0.225067138671875	-1.552581787109375	-0.90789794921875	9.85692823486328	0.3591302490234375	0.14963760375976562	-0.011444091796875	-4.5928955078125	-2.796173095703125	10.001178884887695	0.025737667846679687	-0.19572598571777342	3.570556640625	-5.07354736328125	-1.873016357421875	
299	1.196	0.0	0.0	0.0	0.0	0.003	0.006	0.006	0.006	9.89523546142578	0.46507367248535153	-0.029328970336914062	1.750946044921875	-3.391265869140625	-0.827789306640625	9.72285294189453	0.6087257720947266	-0.040701428222656245	0.98419189453125	-4.94384765625	-2.918243408203125	10.083180291748047	-0.05566518859863281	-0.4896142395019531	3.1585693359375	-4.6234130859375	-1.949310302734375	
300	1.2	0.0	0.0	0.0	0.0	0.003	0.003	0.003	0.003	9.739612353515625	0.09935936889648436	-0.022744915771484374	3.692626953125	-4.322052001953125	-1.102447509765625	9.654618194580078	0.4908113403320312	0.33399113159179683	0.35858154296875	-4.756927490234375	-2.735137939453125	9.788094937133788	0.25139117431640623	-0.05386953735351562	3.513336181640625	-4.5623779296875	-1.94549560546875	
301	1.204	0.0	0.0	0.0	0.0	0.006	0.003	0.003	0.006	9.874884747314452	0.2807201446533203	0.13467384338378904	2.170562744140625	-3.337860107421875	-0.980377197265625	9.83777462158203	0.5398924743652344	0.006584054565429687	1.194000244140625	-5.344390869140625	-3.15093994140625	10.128670123291014	-0.21308394775390624	-0.15382745666503905	3.734588623046875	-4.894256591796875	-2.1209716796875	
302	1.208	0.0	0.0	0.0	0.0	0.006	0.006	0.003	0.003	9.84435867614746	0.1927332336425781	0.09457096557617187	3.269195556640625	-3.955841064453125	-1.262664794921875	9.669581954956055	0.4177881896972656	0.2711433380126953	0.728607177734375	-4.795074462890625	-3.177642822265625	9.899425314331054	0.1693897674560547	-0.017357962036132813	3.45611572265625	-4.2877197265625	-1.94549560546875	
303	1.212	0.0	0.0	0.0	0.0	0.003	0.003	0.003	0.003	9.772532626342773	0.354940396118164	0.3393780853271484	0.881195068359375	-2.536773681640625	-0.865936279296875	9.75517466430664	0.5811924530029297	0.18315642700195311	1.13677978515625	-4.978179931640625	-3.37982177734375	9.83777462158203	-0.08559270935058594	-0.08140285644531249	3.749847412109375	-4.64630126953125	-2.1514892578125	
304	1.216	0.0	0.0	0.0	0.0	0.003	0.003	0.006	0.003	9.82580361328125	0.3130418670654297	0.17597382202148437	2.532958984375	-3.818511962890625	-0.9918212890625	9.654019644165038	0.40880993347167965	0.3447650390625	0.7171630859375	-4.81414794921875	-3.13568115234375	9.897629663085937	0.14604630126953125	-0.020949264526367185	3.57818603515625	-4.787445068359375	-2.323150634765625	
305	1.22	0.0	0.0	0.0	0.0	0.009000000000000001	0.003	0.006	0.003	10.077194787597655	0.13826514587402344	-0.2316390106201172	4.02069091796875	-4.84466552734375	-0.823974609375	9.835380419921874	0.31543606872558594	0.13946224670410157	1.049041748046875	-5.039215087890625	-2.780914306640625	9.916783276367187	-0.14903905334472656	-0.03651157531738281	3.6468505859375	-4.909515380859375	-2.452850341796875	
306	1.224	0.0	0.0	0.0	0.0	0.003	0.006	0.003	0.006	9.848548529052733	0.18076222534179687	0.14903905334472656	2.3651123046875	-3.65447998046875	-0.858306884765625	9.579200842285156	0.469263525390625	0.40880993347167965	0.667572021484375	-4.75311279296875	-3.170013427734375	9.821613760375977	0.025737667846679687	0.086191259765625	3.810882568359375	-4.405975341796875	-2.31170654296875	
307	1.228	0.0	0.0	0.0	0.0	0.006	0.006	4.578	4.53	10.013748443603514	0.2645592834472656	-0.06464344482421874	5.08880615234375	-5.420684814453125	-0.522613525390625	9.779116680908203	0.3896563201904297	0.13168109130859373	0.60272216796875	-5.199432373046875	-2.620697021484375	9.819818109130859	-0.010773907470703125	0.07422025146484375	3.56292724609375	-4.9285888671875	-2.063751220703125	
