	time	dac1	dac2	dac3	dac4	adc1.3	adc2.3	adc3.3	adc4.3	imu1accx	imu1accy	imu1accz	imu1gyrox	imu1gyroy	imu1gyroz	imu2accx	imu2accy	imu2accz	imu2gyrox	imu2gyroy	imu2gyroz	imu3accx	imu3accy	imu3accz	imu3gyrox	imu3gyroy	imu3gyroz	log
0	0.0	0.0	0.0	0.0	0.0	0.003	0.003	0.003	0.006	9.859322436523437	0.054468087768554684	0.15741875915527342	2.6397705078125	-3.604888916015625	-0.69427490234375	9.77492682800293	0.39983167724609375	0.24779987182617186	0.885009765625	-4.802703857421875	-2.956390380859375	10.020332498168944	-0.07362170104980469	-0.15203180541992187	3.734588623046875	-4.4708251953125	-2.13623046875	Estabilizou em 4s, 565 rpm
1	0.004	0.0	0.0	0.0	0.0	0.003	0.003	0.003	0.003	9.854534033203125	0.047884033203124995	0.14963760375976562	2.62451171875	-3.650665283203125	-0.91552734375	9.783905084228515	0.38367081604003905	0.21727380065917967	1.125335693359375	-4.84466552734375	-2.918243408203125	10.018536846923828	-0.08259995727539061	-0.15562310791015624	3.566741943359375	-4.638671875	-1.934051513671875	Started
2	0.008	0.0	0.0	0.0	0.0	0.006	0.006	0.003	0.006	9.853935482788085	0.04908113403320312	0.13766659545898435	2.521514892578125	-3.66973876953125	-0.782012939453125	9.78031378173828	0.37888241271972656	0.2154781494140625	0.9613037109375	-4.79888916015625	-3.0059814453125	10.019733947753906	-0.07541735229492187	-0.1801636749267578	3.79180908203125	-4.589080810546875	-2.262115478515625	IMU1|LSM6DS3|0x6A|I2C-1|±2g (±19,6m/s²)|±125º/s|400Hz
3	0.012	0.0	0.0	0.0	0.0	0.003	0.003	0.006	0.006	9.854534033203125	0.044292730712890624	0.12868833923339842	2.70843505859375	-3.89862060546875	-0.881195068359375	9.773131176757811	0.3812766143798828	0.19692308654785154	1.277923583984375	-4.974365234375	-2.925872802734375	10.015544094848632	-0.07481880187988281	-0.19333178405761717	3.8909912109375	-4.608154296875	-2.3040771484375	IMU2|LSM6DS3|0x6B|I2C-1|±2g (±19,6m/s²)|±125º/s|400Hz
4	0.016	0.0	0.0	0.0	0.0	0.003	0.003	0.006	0.006	9.847351428222655	0.04369418029785156	0.11731588134765625	2.86102294921875	-3.6163330078125	-0.858306884765625	9.77432827758789	0.38247371520996093	0.18854338073730467	0.84686279296875	-5.207061767578125	-3.070831298828125	10.01733974609375	-0.08559270935058594	-0.21607669982910155	3.482818603515625	-4.581451416015625	-2.101898193359375	IMU3|LSM6DS3|0x6B|I2C-2|±2g (±19,6m/s²)|±125º/s|400Hz
5	0.02	0.0	0.0	0.0	0.0	0.006	0.006	0.003	0.006	9.859322436523437	0.05027823486328125	0.10714052429199218	2.490997314453125	-3.688812255859375	-1.0223388671875	9.776123928833007	0.3968389251708984	0.17657237243652343	0.858306884765625	-5.07354736328125	-2.994537353515625	10.014945544433592	-0.08200140686035155	-0.2346317626953125	3.662109375	-4.730224609375	-2.307891845703125	ADC|ADS1015|0|0|1|0|±6,144 V|2400 SPS
6	0.024	0.0	0.0	0.0	0.0	0.006	0.006	0.003	0.003	9.855731134033203	0.055066638183593745	0.09816226806640624	2.685546875	-3.84521484375	-0.812530517578125	9.783905084228515	0.4010287780761719	0.16460136413574217	0.9765625	-5.02777099609375	-2.7923583984375	10.032902056884765	-0.07900865478515624	-0.2442085693359375	3.570556640625	-4.57763671875	-1.949310302734375	Gen1|Disabled
7	0.028	0.0	0.0	0.0	0.0	0.006	0.006	0.006	0.003	9.859322436523437	0.047884033203124995	0.07900865478515624	2.44140625	-3.662109375	-0.83160400390625	9.782707983398437	0.4100070343017578	0.14784195251464843	1.087188720703125	-5.02777099609375	-2.758026123046875	10.02332525024414	-0.07900865478515624	-0.26216508178710934	3.51715087890625	-4.558563232421875	-2.262115478515625	Gen2|Enabled|Noise|0.0|10.0|1668
8	0.032	0.0	0.0	0.0	0.0	0.0	0.003	0.003	0.003	9.858125335693359	0.06404489440917968	0.062249243164062495	2.460479736328125	-3.66973876953125	-0.995635986328125	9.783905084228515	0.412401235961914	0.1514332550048828	0.92315673828125	-5.096435546875	-2.9296875	10.022128149414062	-0.0652419952392578	-0.2705447875976562	3.597259521484375	-4.680633544921875	-2.227783203125	Gen3|Enabled|Noise|0.0|10.0|128
9	0.036000000000000004	0.0	0.0	0.0	0.0	0.006	0.003	0.006	0.006	9.866505041503906	0.06045359191894531	0.05386953735351562	2.422332763671875	-3.71551513671875	-0.827789306640625	9.785102185058593	0.4129997863769531	0.13587094421386717	0.701904296875	-5.123138427734375	-2.704620361328125	10.01733974609375	-0.061650692749023434	-0.26874913635253905	3.59344482421875	-4.8065185546875	-2.37274169921875	Gen4|Enabled|Noise|0.0|10.0|128
10	0.04	0.0	0.0	0.0	0.0	0.006	0.006	0.006	0.003	9.864709390258788	0.06464344482421874	0.04189852905273437	2.735137939453125	-3.70025634765625	-1.049041748046875	9.785102185058593	0.41958384094238277	0.12509703674316405	0.736236572265625	-5.08880615234375	-2.948760986328125	10.011952792358398	-0.062249243164062495	-0.2753331909179687	3.448486328125	-4.810333251953125	-2.09808349609375	Ctrl|Disabled
11	0.044	0.0	0.0	0.0	0.0	0.003	0.003	0.003	0.003	9.854534033203125	0.08140285644531249	0.030526071166992186	2.445220947265625	-3.505706787109375	-0.560760498046875	9.788094937133788	0.42975919799804685	0.11731588134765625	0.9613037109375	-5.01251220703125	-2.925872802734375	10.007164389038085	-0.05087678527832031	-0.2723404388427734	3.757476806640625	-4.741668701171875	-2.2125244140625	
12	0.048	0.0	0.0	0.0	0.0	0.006	0.003	0.003	0.003	9.861716638183593	0.09157821350097656	0.023942016601562498	2.5787353515625	-3.91387939453125	-0.965118408203125	9.784503634643555	0.43933600463867184	0.12150573425292968	0.8544921875	-4.825592041015625	-2.735137939453125	10.016142645263672	-0.03890577697753906	-0.26815058593749996	3.265380859375	-4.680633544921875	-2.384185791015625	
13	0.052000000000000005	0.0	0.0	0.0	0.0	0.003	0.003	0.003	0.006	9.853935482788085	0.10474632263183593	0.013766659545898436	2.67791748046875	-3.658294677734375	-0.858306884765625	9.783905084228515	0.4542997650146484	0.1149216796875	0.8544921875	-4.833221435546875	-2.834320068359375	10.026916552734374	-0.03172317199707031	-0.28311434631347654	3.696441650390625	-4.75311279296875	-2.132415771484375	
14	0.056	0.0	0.0	0.0	0.0	0.006	0.006	0.003	0.003	9.859920986938477	0.11791443176269531	-0.001197100830078125	2.40325927734375	-3.83758544921875	-0.835418701171875	9.787496386718749	0.45968671875	0.1197100830078125	0.896453857421875	-5.313873291015625	-2.750396728515625	10.026916552734374	-0.01915361328125	-0.28490999755859375	3.48663330078125	-4.547119140625	-2.18963623046875	
15	0.06	0.0	0.0	0.0	0.0	-0.003	0.006	0.006	0.003	9.85632968444824	0.11851298217773437	-0.00718260498046875	2.72369384765625	-3.7994384765625	-0.95367431640625	9.782707983398437	0.4722562774658203	0.10594342346191406	0.90789794921875	-5.01251220703125	-2.93731689453125	10.029310754394531	-0.004189852905273437	-0.2855085479736328	3.79180908203125	-4.69207763671875	-2.185821533203125	
16	0.064	0.0	0.0	0.0	0.0	0.003	0.006	0.003	0.006	9.861716638183593	0.13108254089355467	0.006584054565429687	2.773284912109375	-3.5858154296875	-0.81634521484375	9.785700735473633	0.49021278991699213	0.10474632263183593	0.728607177734375	-5.313873291015625	-2.8839111328125	10.026916552734374	0.0017956512451171875	-0.28909985046386716	3.66973876953125	-4.70733642578125	-2.239227294921875	
17	0.068	0.0	0.0	0.0	0.0	0.006	0.006	0.003	0.006	9.860519537353515	0.14245499877929688	0.008379705810546874	2.658843994140625	-3.704071044921875	-0.823974609375	9.77492682800293	0.4991910461425781	0.12210428466796874	0.9765625	-4.70733642578125	-2.9144287109375	10.02332525024414	0.01915361328125	-0.2825157958984375	3.6468505859375	-4.5013427734375	-1.983642578125	
18	0.07200000000000001	0.0	0.0	0.0	0.0	0.006	0.003	0.003	0.006	9.865307940673828	0.15023615417480468	0.011971008300781249	2.471923828125	-3.692626953125	-0.9307861328125	9.776123928833007	0.5141548065185546	0.1083376251220703	0.766754150390625	-4.9285888671875	-3.02886962890625	10.025120901489258	0.0383072265625	-0.29089550170898437	3.612518310546875	-4.711151123046875	-2.178192138671875	
19	0.076	0.0	0.0	0.0	0.0	0.003	0.003	0.003	0.006	9.85752678527832	0.17776947326660156	0.01975216369628906	2.7923583984375	-3.566741943359375	-1.01470947265625	9.785102185058593	0.5297171173095703	0.09696516723632811	1.201629638671875	-5.0201416015625	-2.79998779296875	10.027515103149414	0.04608838195800781	-0.28012159423828126	3.68499755859375	-4.5623779296875	-2.178192138671875	
20	0.08	0.0	0.0	0.0	0.0	0.006	0.006	0.003	0.006	9.859322436523437	0.18614917907714842	0.03531447448730469	2.5482177734375	-3.74603271484375	-0.713348388671875	9.777321029663085	0.5440823272705078	0.09935936889648436	1.049041748046875	-5.062103271484375	-2.887725830078125	10.025719451904296	0.05327098693847656	-0.28431144714355466	3.4942626953125	-4.425048828125	-2.1209716796875	
21	0.084	0.0	0.0	0.0	0.0	0.006	0.003	0.003	0.009000000000000001	9.852139831542969	0.21308394775390624	0.044292730712890624	2.9449462890625	-3.91387939453125	-0.946044921875	9.77432827758789	0.5404910247802734	0.10594342346191406	0.9307861328125	-4.894256591796875	-3.025054931640625	10.035296258544921	0.031124621582031248	-0.30406361083984373	3.604888916015625	-4.89044189453125	-2.22015380859375	
22	0.088	0.0	0.0	0.0	0.0	0.003	0.006	0.006	0.003	9.842563024902343	0.25139117431640623	0.05327098693847656	2.70843505859375	-3.772735595703125	-0.79345703125	9.752780462646484	0.6296750366210937	0.13407529296874998	0.9002685546875	-4.848480224609375	-2.918243408203125	9.9981861328125	0.16639701538085935	-0.2699462371826172	3.711700439453125	-4.75311279296875	-2.197265625	
23	0.092	0.0	0.0	0.0	0.0	0.009000000000000001	0.006	0.003	0.003	9.859920986938477	0.14604630126953125	0.013168109130859374	2.79998779296875	-3.753662109375	-0.9918212890625	9.770138424682617	0.4638765716552734	0.11192892761230468	0.81634521484375	-4.9285888671875	-2.70843505859375	9.986215124511718	0.010773907470703125	-0.23523031311035156	3.643035888671875	-4.6234130859375	-2.079010009765625	
24	0.096	0.0	0.0	0.0	0.0	0.003	0.006	0.003	0.003	9.843760125732421	0.2262520568847656	0.086191259765625	2.864837646484375	-3.8604736328125	-1.01470947265625	9.767145672607422	0.5668272430419922	0.18375497741699218	1.03759765625	-4.9896240234375	-3.11279296875	10.001777435302733	0.11611878051757812	-0.2280477081298828	3.597259521484375	-4.44793701171875	-2.3651123046875	
25	0.1	0.0	0.0	0.0	0.0	0.003	0.003	0.003	0.003	9.873687646484374	0.18136077575683593	0.007781155395507812	2.414703369140625	-3.8299560546875	-0.6561279296875	9.752780462646484	0.5662286926269531	0.1657984649658203	1.07574462890625	-4.99725341796875	-2.933502197265625	9.968857162475585	0.1227028350830078	-0.17597382202148437	3.71551513671875	-4.64630126953125	-2.025604248046875	
26	0.10400000000000001	0.0	0.0	0.0	0.0	0.009000000000000001	0.006	0.003	0.006	9.830592016601562	0.19033903198242186	0.12150573425292968	2.956390380859375	-3.879547119140625	-0.926971435546875	9.752780462646484	0.5117606048583984	0.20829554443359374	0.904083251953125	-4.863739013671875	-2.902984619140625	9.987412225341796	0.04668693237304687	-0.1975216369628906	3.72314453125	-4.711151123046875	-2.315521240234375	
27	0.108	0.0	0.0	0.0	0.0	0.006	0.006	0.003	0.003	9.87608184814453	0.1197100830078125	0.023343466186523436	2.47955322265625	-3.406524658203125	-0.8392333984375	9.765948571777344	0.48722003784179685	0.19153613281249998	1.0223388671875	-4.863739013671875	-2.86102294921875	9.961674557495117	0.011971008300781249	-0.11372457885742186	3.59344482421875	-4.505157470703125	-2.0751953125	
28	0.112	0.0	0.0	0.0	0.0	0.009000000000000001	0.006	0.003	0.006	9.859920986938477	0.18435352783203124	0.11552023010253906	3.0670166015625	-4.03594970703125	-0.79345703125	9.756371765136718	0.594959112548828	0.2507926239013672	1.190185546875	-4.8370361328125	-2.9296875	10.034099157714843	0.05985504150390625	-0.19931728820800781	3.77655029296875	-4.749298095703125	-2.376556396484375	
29	0.116	0.0	0.0	0.0	0.0	0.006	0.003	0.006	0.006	9.87009634399414	0.08978256225585937	0.013766659545898436	2.475738525390625	-3.66973876953125	-0.827789306640625	9.764751470947266	0.4704606262207031	0.2088940948486328	1.056671142578125	-4.92095947265625	-2.590179443359375	9.91558617553711	-0.018555062866210937	-0.08918401184082031	3.47900390625	-4.253387451171875	-1.873016357421875	
30	0.12	0.0	0.0	0.0	0.0	0.006	0.003	0.006	0.003	9.853336932373047	0.09337386474609374	0.12090718383789062	3.040313720703125	-3.92913818359375	-1.094818115234375	9.765948571777344	0.5189432098388671	0.27293898925781246	0.89263916015625	-4.8980712890625	-2.96783447265625	10.022128149414062	-0.04548983154296875	-0.14963760375976562	3.509521484375	-4.3792724609375	-2.368927001953125	
31	0.124	0.0	0.0	0.0	0.0	0.003	0.003	0.003	0.003	9.805452899169921	0.19093758239746092	0.2741360900878906	2.7313232421875	-4.009246826171875	-0.79345703125	9.78629928588867	0.5249287139892578	0.20290859069824219	0.7781982421875	-4.695892333984375	-2.620697021484375	10.065822329711914	0.11791443176269531	-0.17477672119140625	3.73077392578125	-4.547119140625	-2.044677734375	
32	0.128	0.0	0.0	0.0	0.0	0.003	0.003	0.006	0.003	9.86411083984375	0.07003039855957031	0.1274912384033203	2.796173095703125	-4.085540771484375	-0.72479248046875	9.809642752075195	0.37409400939941406	0.18136077575683593	0.823974609375	-4.913330078125	-3.032684326171875	10.003573086547851	-0.07062894897460938	-0.1562216583251953	3.72314453125	-4.69970703125	-2.376556396484375	
33	0.132	0.0	0.0	0.0	0.0	0.003	0.003	0.003	0.003	9.792284790039062	0.17357962036132812	0.31543606872558594	2.55584716796875	-3.7689208984375	-0.576019287109375	9.77432827758789	0.4608838195800781	0.21428104858398436	0.926971435546875	-5.0048828125	-2.674102783203125	10.049661468505859	0.058657940673828124	-0.16699556579589842	3.635406494140625	-4.650115966796875	-2.0751953125	
34	0.136	0.0	0.0	0.0	0.0	0.006	0.003	0.003	0.003	9.872490545654296	0.03531447448730469	0.10115502014160156	3.124237060546875	-4.26483154296875	-0.980377197265625	9.835380419921874	0.3956418243408203	0.1657984649658203	1.28173828125	-5.100250244140625	-2.986907958984375	10.10712230834961	-0.16819266662597654	-0.27174188842773433	3.631591796875	-4.53948974609375	-2.3956298828125	
35	0.14	0.0	0.0	0.0	0.0	0.006	0.003	0.006	0.006	9.792284790039062	0.1879448303222656	0.31064766540527344	2.971649169921875	-3.551483154296875	-0.75531005859375	9.68454571533203	0.5787982513427734	0.33698388366699217	0.77056884765625	-4.947662353515625	-2.7008056640625	10.02392380065918	0.06823474731445311	-0.18734627990722655	3.543853759765625	-4.482269287109375	-2.056121826171875	
36	0.14400000000000002	0.0	0.0	0.0	0.0	0.003	0.003	0.003	0.003	9.862315188598632	-0.11911153259277343	0.076614453125	1.556396484375	-2.67791748046875	-1.003265380859375	9.833584768676758	0.3321954803466797	0.16160861206054686	0.93841552734375	-5.123138427734375	-3.05938720703125	10.087968695068358	-0.2346317626953125	-0.3094505645751953	3.589630126953125	-4.589080810546875	-2.246856689453125	
37	0.148	0.0	0.0	0.0	0.0	0.006	0.006	0.006	0.006	9.776722479248047	0.17118541870117188	0.32082302246093747	2.803802490234375	-3.68499755859375	-0.518798828125	9.730035546875	0.5668272430419922	0.34057518615722654	0.70953369140625	-4.878997802734375	-2.758026123046875	10.070610733032225	0.0652419952392578	-0.21308394775390624	3.4637451171875	-4.69207763671875	-2.040863037109375	
38	0.152	0.0	0.0	0.0	0.0	0.006	0.003	0.003	0.003	9.882067352294921	-0.12868833923339842	0.0652419952392578	1.216888427734375	-2.735137939453125	-0.701904296875	9.860519537353515	0.21248539733886718	0.105344873046875	0.77056884765625	-4.749298095703125	-2.948760986328125	10.096946951293944	-0.24121581726074218	-0.3429693878173828	3.612518310546875	-4.31060791015625	-2.285003662109375	
39	0.156	0.0	0.0	0.0	0.0	0.006	0.003	0.003	0.003	9.759963067626952	0.17776947326660156	0.3447650390625	2.231597900390625	-3.566741943359375	-1.110076904296875	9.696516723632811	0.5776011505126952	0.35134909362792965	0.972747802734375	-5.13458251953125	-2.475738525390625	9.996390481567381	0.15861585998535155	-0.13646949462890623	3.574371337890625	-4.390716552734375	-2.056121826171875	
40	0.16	0.0	0.0	0.0	0.0	0.006	0.003	0.006	0.006	9.87727894897461	-0.18255787658691405	0.08978256225585937	0.96893310546875	-2.498626708984375	-0.89263916015625	9.87069489440918	0.16998831787109375	0.09217676391601562	1.087188720703125	-5.046844482421875	-2.8533935546875	10.141838232421874	-0.3064578125	-0.36930560607910157	3.787994384765625	-4.787445068359375	-2.269744873046875	
41	0.164	0.0	0.0	0.0	0.0	0.009000000000000001	0.006	0.003	0.003	9.928754284667969	0.1753752716064453	-0.023942016601562498	2.4566650390625	-3.459930419921875	-1.049041748046875	9.762955819702148	0.5895721588134766	0.19093758239746092	0.942230224609375	-5.05828857421875	-2.8533935546875	10.037690460205077	0.15861585998535155	-0.15741875915527342	3.509521484375	-4.8065185546875	-1.953125	
42	0.168	0.0	0.0	0.0	0.0	0.003	0.006	0.006	0.006	9.850344180297851	-0.1610100616455078	0.086191259765625	0.476837158203125	-2.162933349609375	-0.850677490234375	9.86411083984375	0.18734627990722655	0.059256491088867186	0.911712646484375	-5.084991455078125	-2.948760986328125	10.052654220581054	-0.23582886352539062	-0.34117373657226563	3.45611572265625	-4.69207763671875	-1.804351806640625	
43	0.17200000000000001	0.0	0.0	0.0	0.0	0.003	0.003	0.003	0.006	9.904213717651366	0.17298106994628906	-0.03890577697753906	2.124786376953125	-3.30352783203125	-0.782012939453125	9.746794958496093	0.613514175415039	0.2059013427734375	0.881195068359375	-5.138397216796875	-2.895355224609375	10.02990930480957	0.1753752716064453	-0.1484405029296875	3.337860107421875	-4.791259765625	-2.033233642578125	
44	0.176	0.0	0.0	0.0	0.0	0.003	0.003	0.003	0.006	9.83777462158203	0.2346317626953125	0.08798691101074219	3.448486328125	-4.2266845703125	-0.858306884765625	9.798868844604492	0.24660277099609373	0.1149216796875	0.7781982421875	-5.046844482421875	-2.658843994140625	10.078391888427733	-0.3082534637451172	-0.3585316986083984	3.337860107421875	-4.810333251953125	-1.911163330078125	
45	0.18	0.0	0.0	0.0	0.0	0.006	0.003	0.003	0.0	9.926360083007811	0.19512743530273435	-0.076614453125	2.193450927734375	-3.200531005859375	-0.98419189453125	9.731232647705077	0.6721721160888672	0.19692308654785154	0.980377197265625	-4.8980712890625	-2.956390380859375	9.958681805419921	0.07003039855957031	-0.2454056701660156	3.76129150390625	-4.47845458984375	-2.57110595703125	
46	0.184	0.0	0.0	0.0	0.0	0.003	0.003	0.006	0.003	9.83777462158203	0.2861070983886719	0.08499415893554688	3.36456298828125	-4.1656494140625	-0.637054443359375	9.780912332153319	0.26755203552246093	0.11552023010253906	0.4425048828125	-5.07354736328125	-2.5634765625	10.052055670166014	-0.28490999755859375	-0.34237083740234375	3.505706787109375	-4.84466552734375	-1.857757568359375	
47	0.188	0.0	0.0	0.0	0.0	0.0	0.003	0.003	0.003	9.956287603759765	0.2316390106201172	-0.11611878051757812	2.51007080078125	-3.753662109375	-1.06048583984375	9.719860189819336	0.49859249572753905	0.17657237243652343	1.068115234375	-4.8675537109375	-3.253936767578125	9.97184991455078	0.05746083984375	-0.23523031311035156	3.95965576171875	-4.665374755859375	-2.51007080078125	
48	0.192	0.0	0.0	0.0	0.0	0.009000000000000001	0.003	0.003	0.003	9.849745629882811	0.3573345977783203	0.02154781494140625	3.68499755859375	-4.444122314453125	-0.728607177734375	9.794678991699218	0.2501940734863281	0.08379705810546874	0.629425048828125	-4.95147705078125	-2.67791748046875	10.036493359375	-0.17298106994628906	-0.181959326171875	3.65447998046875	-4.413604736328125	-1.743316650390625	
49	0.196	0.0	0.0	0.0	0.0	0.003	0.003	0.003	0.003	9.847949978637695	0.2316390106201172	0.08678981018066406	4.955291748046875	-5.401611328125	-0.980377197265625	9.665392102050781	0.5488707305908203	0.18555062866210936	1.377105712890625	-4.650115966796875	-3.3416748046875	9.91558617553711	0.09157821350097656	-0.1945288848876953	3.5858154296875	-4.5013427734375	-2.62451171875	
50	0.2	0.0	0.0	0.0	0.0	0.003	0.003	0.006	0.003	9.853336932373047	0.45190556335449217	0.009576806640625	4.31060791015625	-4.638671875	-0.568389892578125	9.78031378173828	0.2507926239013672	0.06643909606933593	0.9918212890625	-5.10406494140625	-2.593994140625	9.853336932373047	0.015562310791015624	-0.13108254089355467	3.604888916015625	-4.58526611328125	-1.8463134765625	
51	0.20400000000000001	0.0	0.0	0.0	0.0	0.003	0.003	0.003	0.006	9.847351428222655	0.32142157287597656	0.10474632263183593	5.2642822265625	-5.275726318359375	-1.087188720703125	9.685742816162108	0.5889736083984375	0.16340426330566404	1.346588134765625	-4.970550537109375	-3.3416748046875	9.928754284667969	0.14604630126953125	-0.2316390106201172	3.940582275390625	-4.55474853515625	-2.57110595703125	
52	0.20800000000000002	0.0	0.0	0.0	0.0	0.006	0.006	0.003	0.006	9.851541281127929	0.4626794708251953	0.002992752075195312	2.61688232421875	-4.08172607421875	-0.6103515625	9.724050042724608	0.48123453369140623	0.08798691101074219	1.094818115234375	-5.214691162109375	-2.5634765625	9.839570272827148	0.004189852905273437	-0.13108254089355467	3.73077392578125	-4.67681884765625	-1.979827880859375	
53	0.212	0.0	0.0	0.0	0.0	-0.003	0.006	0.003	0.006	9.823409411621093	0.3315969299316406	0.17357962036132812	5.229949951171875	-5.435943603515625	-1.16729736328125	9.692925421142577	0.6440402465820312	0.16460136413574217	1.163482666015625	-4.913330078125	-3.509521484375	10.005967288208007	-0.16340426330566404	-0.2501940734863281	3.875732421875	-4.49371337890625	-2.719879150390625	
54	0.216	0.0	0.0	0.0	0.0	0.003	0.003	0.003	0.006	9.931148486328125	-0.04668693237304687	-0.08918401184082031	2.307891845703125	-3.9215087890625	-0.789642333984375	9.73602105102539	0.5446808776855468	0.058657940673828124	0.789642333984375	-5.130767822265625	-2.330780029296875	9.858723886108399	0.06045359191894531	-0.12150573425292968	3.284454345703125	-4.413604736328125	-1.667022705078125	
55	0.22	0.0	0.0	0.0	0.0	0.006	0.003	0.006	0.003	9.816825357055663	0.32920272827148434	0.17836802368164062	5.30242919921875	-5.535125732421875	-0.9918212890625	9.830592016601562	0.43993455505371093	0.11851298217773437	1.21307373046875	-4.82177734375	-3.307342529296875	10.019733947753906	-0.16639701538085935	-0.2501940734863281	3.79180908203125	-4.3487548828125	-2.532958984375	
56	0.224	0.0	0.0	0.0	0.0	0.003	0.006	0.006	0.006	9.905410818481444	-0.029328970336914062	-0.028131869506835935	2.223968505859375	-3.543853759765625	-0.995635986328125	9.726444244384766	0.5321113189697265	0.07122749938964844	0.698089599609375	-4.779815673828125	-2.101898193359375	10.060435375976562	0.22266075439453123	-0.17896657409667968	3.45611572265625	-4.57763671875	-1.82342529296875	
57	0.228	0.0	0.0	0.0	0.0	0.006	0.003	0.003	0.006	9.893439810180663	-0.34057518615722654	-0.11552023010253906	1.922607421875	-3.330230712890625	-0.896453857421875	9.834183319091796	0.46806642456054687	0.1274912384033203	1.316070556640625	-4.901885986328125	-3.574371337890625	10.034697708129881	-0.17956512451171874	-0.2262520568847656	3.4942626953125	-4.5166015625	-2.689361572265625	
58	0.232	0.0	0.0	0.0	0.0	0.006	0.003	0.003	0.003	9.911994873046874	-0.009576806640625	0.008978256225585938	2.410888671875	-3.818511962890625	-0.873565673828125	9.781510882568359	0.7781155395507812	0.3076549133300781	0.5645751953125	-4.871368408203125	-2.41851806640625	10.062829577636718	0.2519897247314453	-0.1580173095703125	3.47900390625	-4.61578369140625	-1.6632080078125	
59	0.23600000000000002	0.0	0.0	0.0	0.0	0.006	0.003	0.006	0.006	9.877877499389648	-0.38247371520996093	-0.09816226806640624	1.01470947265625	-2.437591552734375	-0.896453857421875	9.810241302490233	0.49799394531249996	0.17597382202148437	1.48773193359375	-4.69970703125	-3.48663330078125	10.152013589477539	-0.36691140441894526	-0.3890577697753906	3.658294677734375	-4.627227783203125	-2.25830078125	
60	0.24	0.0	0.0	0.0	0.0	0.009000000000000001	0.003	0.006	0.006	9.897629663085937	-0.05327098693847656	0.07900865478515624	2.227783203125	-3.71551513671875	-0.789642333984375	9.794678991699218	0.7583633758544921	0.3321954803466797	0.621795654296875	-5.168914794921875	-2.61688232421875	10.06881508178711	0.22864625854492185	-0.13587094421386717	3.452301025390625	-4.497528076171875	-1.789093017578125	
61	0.244	0.0	0.0	0.0	0.0	0.006	0.006	0.006	0.006	9.87608184814453	-0.4147954376220703	-0.11791443176269531	0.72479248046875	-2.5787353515625	-1.178741455078125	9.973047015380859	0.10414777221679687	-0.028730419921875	0.804901123046875	-5.2337646484375	-2.90679931640625	10.165780249023436	-0.4129997863769531	-0.3651157531738281	3.383636474609375	-4.573822021484375	-2.349853515625	
62	0.248	0.0	0.0	0.0	0.0	0.006	0.003	0.003	0.003	9.672574707031249	0.37229835815429685	0.36631285400390623	1.77764892578125	-3.093719482421875	-0.6561279296875	9.781510882568359	0.8152256652832031	0.35134909362792965	0.705718994140625	-5.115509033203125	-2.54058837890625	10.065223779296874	0.27832594299316404	-0.09516951599121093	3.559112548828125	-4.650115966796875	-1.80816650390625	
63	0.252	0.0	0.0	0.0	0.0	0.006	0.006	0.006	0.003	9.87608184814453	-0.46028526916503903	-0.10354922180175781	0.682830810546875	-2.51007080078125	-1.132965087890625	9.970652813720703	0.11192892761230468	-0.012569558715820313	1.0528564453125	-4.98199462890625	-2.92205810546875	10.159196194458007	-0.42796354675292964	-0.34656069030761716	3.589630126953125	-4.283905029296875	-2.231597900390625	
64	0.256	0.0	0.0	0.0	0.0	0.003	0.006	0.003	0.006	9.688735568237304	0.28909985046386716	0.3489548919677734	1.712799072265625	-2.811431884765625	-0.6561279296875	9.68454571533203	0.8026561065673827	0.3687070556640625	0.6103515625	-4.947662353515625	-2.834320068359375	10.035894808959961	0.4016273284912109	-0.1227028350830078	3.36456298828125	-4.665374755859375	-2.1514892578125	
65	0.26	0.0	0.0	0.0	0.0	0.006	0.006	0.006	0.006	9.884461553955077	-0.48183308410644526	-0.08559270935058594	0.7171630859375	-2.521514892578125	-0.6103515625	9.96586441040039	0.12449848632812499	-0.02693476867675781	1.293182373046875	-4.924774169921875	-2.941131591796875	10.175955606079102	-0.43634325256347656	-0.3507505432128906	3.47900390625	-4.75311279296875	-2.178192138671875	
66	0.264	0.0	0.0	0.0	0.0	0.006	0.003	0.003	0.006	9.696516723632811	0.2472013214111328	0.31004911499023435	1.57928466796875	-2.75421142578125	-0.69427490234375	9.651026892089844	0.8158242156982422	0.3938461730957031	0.881195068359375	-4.9591064453125	-2.8076171875	10.005368737792969	0.42317514343261714	-0.12389993591308593	3.582000732421875	-4.67681884765625	-2.13623046875	
67	0.268	0.0	0.0	0.0	0.0	0.003	0.003	0.003	0.003	9.803058697509766	0.08798691101074219	0.3022679595947265	0.75531005859375	-2.651214599609375	-0.469207763671875	9.87608184814453	0.05805939025878906	0.06943184814453125	0.57220458984375	-5.138397216796875	-2.5482177734375	10.092158547973632	-0.2555810272216797	-0.4129997863769531	3.509521484375	-4.73785400390625	-1.712799072265625	
68	0.272	0.0	0.0	0.0	0.0	0.0	0.003	0.003	0.003	9.707889181518555	0.229843359375	0.2699462371826172	1.422882080078125	-2.490997314453125	-0.858306884765625	9.66000514831543	0.842758984375	0.40402153015136716	0.591278076171875	-4.76837158203125	-2.58636474609375	10.013149893188476	0.45968671875	-0.11611878051757812	3.34930419921875	-4.40216064453125	-1.979827880859375	
69	0.276	0.0	0.0	0.0	0.0	0.009000000000000001	0.006	0.006	0.003	9.81263550415039	0.12689268798828124	0.28431144714355466	1.068115234375	-2.483367919921875	-0.621795654296875	9.883264453125	0.029927520751953124	0.062249243164062495	0.48065185546875	-4.87518310546875	-2.60162353515625	10.06881508178711	-0.28790274963378903	-0.3860650177001953	3.276824951171875	-5.01251220703125	-1.67083740234375	
70	0.28	0.0	0.0	0.0	0.0	0.006	0.006	0.006	0.003	9.919776028442381	0.4746504791259765	-0.010773907470703125	3.963470458984375	-4.337310791015625	-1.018524169921875	9.64683703918457	0.843357534790039	0.3896563201904297	1.33514404296875	-4.85992431640625	-3.47900390625	9.87608184814453	0.24660277099609373	-0.17836802368164062	3.986358642578125	-4.46319580078125	-2.90679931640625	
71	0.28400000000000003	0.0	0.0	0.0	0.0	0.003	0.003	0.003	0.003	9.843760125732421	0.12330138549804687	0.23343466186523437	1.544952392578125	-2.658843994140625	-0.518798828125	9.90241806640625	0.014963760375976562	0.028730419921875	0.713348388671875	-4.962921142578125	-2.750396728515625	10.079588989257813	-0.2902969512939453	-0.39743747558593745	3.37982177734375	-4.604339599609375	-1.781463623046875	
72	0.28800000000000003	0.0	0.0	0.0	0.0	0.003	0.003	0.006	0.009000000000000001	9.871293444824218	0.4997895965576172	0.061650692749023434	4.131317138671875	-4.28009033203125	-1.216888427734375	9.696516723632811	0.6889315277099609	0.20231004028320312	1.47247314453125	-4.642486572265625	-3.337860107421875	9.859322436523437	0.26216508178710934	-0.17477672119140625	3.84521484375	-4.444122314453125	-2.727508544921875	
73	0.292	0.0	0.0	0.0	0.0	0.006	0.006	0.003	0.006	9.843161575317382	0.07302315063476562	0.20290859069824219	1.171112060546875	-2.76947021484375	-0.52642822265625	9.916783276367187	-0.06105214233398437	0.020949264526367185	0.965118408203125	-5.0506591796875	-2.61688232421875	10.078391888427733	-0.3298012786865234	-0.3794809631347656	3.635406494140625	-4.711151123046875	-1.010894775390625	
74	0.296	0.0	0.0	0.0	0.0	0.003	0.003	0.003	0.006	9.859322436523437	0.4908113403320312	0.07841010437011718	4.032135009765625	-4.665374755859375	-0.9613037109375	9.706093530273437	0.7158662963867187	0.21607669982910155	1.36566162109375	-4.974365234375	-3.2196044921875	9.886855755615233	0.2920926025390625	-0.17357962036132812	3.814697265625	-4.428863525390625	-2.716064453125	
75	0.3	0.0	0.0	0.0	0.0	0.009000000000000001	0.006	0.003	0.003	9.930549935913085	0.4638765716552734	-0.10953472595214843	4.337310791015625	-5.08880615234375	-0.591278076171875	9.700108026123047	0.30885201416015623	0.07900865478515624	0.81634521484375	-5.344390869140625	-2.063751220703125	9.842563024902343	-0.04848258361816406	-0.06943184814453125	3.589630126953125	-4.695892333984375	-2.025604248046875	
76	0.304	0.0	0.0	0.0	0.0	0.003	0.006	0.006	0.003	9.854534033203125	0.49859249572753905	0.05686228942871093	4.566192626953125	-4.9591064453125	-1.24359130859375	9.693523971557617	0.7015010864257812	0.22505495605468748	1.384735107421875	-5.001068115234375	-3.7078857421875	9.87727894897461	0.2771288421630859	-0.19033903198242186	3.76129150390625	-4.52423095703125	-2.956390380859375	
77	0.308	0.0	0.0	0.0	0.0	0.006	0.003	0.003	0.003	9.93354268798828	0.5051765502929687	-0.12449848632812499	4.390716552734375	-4.840850830078125	-0.7171630859375	9.710881933593749	0.37888241271972656	0.0796072052001953	0.797271728515625	-5.01251220703125	-1.85394287109375	9.834781869506836	0.0430956298828125	-0.08140285644531249	3.787994384765625	-4.6539306640625	-1.758575439453125	
78	0.312	0.0	0.0	0.0	0.0	0.003	0.003	0.003	0.009000000000000001	9.854534033203125	0.4537012145996093	0.05327098693847656	5.260467529296875	-5.527496337890625	-1.22833251953125	9.766547122192382	0.45669396667480466	0.17118541870117188	1.117706298828125	-4.734039306640625	-3.82232666015625	10.001777435302733	-0.25318682556152344	-0.16340426330566404	3.726959228515625	-4.180908203125	-2.597808837890625	
79	0.316	0.0	0.0	0.0	0.0	0.003	0.003	0.006	0.006	9.929951385498047	0.4291606475830078	-0.10773907470703124	4.283905029296875	-5.176544189453125	-0.667572021484375	9.707889181518555	0.30526071166992186	0.08140285644531249	0.93841552734375	-5.084991455078125	-2.140045166015625	9.843760125732421	-0.03411737365722656	-0.12868833923339842	3.719329833984375	-4.642486572265625	-1.873016357421875	
80	0.32	0.0	0.0	0.0	0.0	0.003	0.006	0.003	0.003	9.923965881347655	0.005985504150390624	0.007781155395507812	5.184173583984375	-5.176544189453125	-1.18255615234375	9.760561618041992	0.5422866760253906	0.16759411621093748	1.308441162109375	-4.96673583984375	-3.814697265625	10.036493359375	-0.2741360900878906	-0.2059013427734375	3.96728515625	-4.398345947265625	-2.773284912109375	
81	0.324	0.0	0.0	0.0	0.0	0.003	0.006	0.003	0.006	9.941323843383788	0.5374982727050781	-0.11671733093261719	4.5928955078125	-5.184173583984375	-0.67901611328125	9.721057290649414	0.8080430603027343	0.2346317626953125	0.52642822265625	-5.06591796875	-2.0751953125	10.031704956054687	0.14544775085449219	-0.04129997863769531	3.54766845703125	-4.69207763671875	-1.36566162109375	
82	0.328	0.0	0.0	0.0	0.0	0.0	0.003	0.006	0.006	9.924564431762695	-0.02454056701660156	-0.037708676147460936	5.584716796875	-5.641937255859375	-1.31988525390625	9.7545761138916	0.4339490509033203	0.16759411621093748	1.361846923828125	-4.7454833984375	-3.5858154296875	10.02990930480957	-0.4267664459228515	-0.2214636535644531	3.566741943359375	-4.291534423828125	-2.69317626953125	
83	0.332	0.0	0.0	0.0	0.0	0.006	0.003	0.003	0.003	9.7545761138916	0.07242460021972656	0.34715924072265625	2.834320068359375	-3.696441650390625	-0.75531005859375	9.738415252685547	0.7308300567626953	0.2059013427734375	0.54931640625	-4.974365234375	-2.2125244140625	10.069413632202147	0.05386953735351562	-0.05566518859863281	3.47137451171875	-4.497528076171875	-1.827239990234375	
84	0.336	0.0	0.0	0.0	0.0	0.006	0.006	0.006	0.003	9.918578927612304	0.11252747802734374	-0.0796072052001953	5.786895751953125	-5.596160888671875	-0.988006591796875	10.020931048583984	0.03651157531738281	-0.13407529296874998	1.117706298828125	-4.69207763671875	-3.223419189453125	10.018536846923828	-0.28371289672851563	-0.2597708801269531	3.658294677734375	-4.596710205078125	-2.262115478515625	
85	0.34	0.0	0.0	0.0	0.0	0.003	0.003	0.003	0.006	9.724648593139648	0.11372457885742186	0.3890577697753906	2.3193359375	-3.631591796875	-0.6103515625	9.73063409729004	0.650624301147461	0.1562216583251953	0.576019287109375	-5.2032470703125	-1.949310302734375	10.017938296508788	0.034715924072265626	-0.06344634399414062	3.505706787109375	-4.69207763671875	-1.445770263671875	
86	0.34400000000000003	0.0	0.0	0.0	0.0	0.003	0.003	0.006	0.003	9.931148486328125	0.06763619689941405	-0.09995791931152344	6.084442138671875	-5.79071044921875	-1.331329345703125	10.059836825561522	-0.11791443176269531	-0.15083470458984374	1.15203857421875	-4.978179931640625	-3.47900390625	10.275913525390624	-0.5895721588134766	-0.5710170959472656	3.635406494140625	-4.70733642578125	-2.246856689453125	
87	0.34800000000000003	0.0	0.0	0.0	0.0	0.003	0.003	0.003	0.003	9.71686743774414	0.28311434631347654	0.38666356811523434	2.582550048828125	-3.635406494140625	-0.713348388671875	9.548076220703125	0.9331400970458984	0.45190556335449217	0.99945068359375	-5.016326904296875	-2.666473388671875	10.013748443603514	0.17238251953125	-0.059256491088867186	3.44085693359375	-4.650115966796875	-1.361846923828125	
88	0.352	0.0	0.0	0.0	0.0	0.003	0.003	0.003	0.003	9.821015209960937	-0.5147533569335937	0.09277531433105468	-2.262115478515625	-0.75531005859375	-0.919342041015625	10.022128149414062	-0.17657237243652343	-0.14006079711914063	1.125335693359375	-4.894256591796875	-3.055572509765625	10.237007748413085	-0.59376201171875	-0.5883750579833984	3.627777099609375	-4.650115966796875	-2.071380615234375	
89	0.356	0.0	0.0	0.0	0.0	0.006	0.003	0.003	0.006	9.718663088989258	0.22864625854492185	0.36810850524902344	2.61688232421875	-3.475189208984375	-0.621795654296875	9.55705447692871	0.7996633544921875	0.45549686584472654	0.74005126953125	-5.04302978515625	-2.651214599609375	10.052055670166014	0.4584896179199218	-0.22385785522460935	3.34930419921875	-4.734039306640625	-2.017974853515625	
90	0.36	0.0	0.0	0.0	0.0	0.0	0.003	0.003	4.572	9.829394915771484	-0.4656722229003906	0.12150573425292968	-1.796722412109375	-0.659942626953125	-1.018524169921875	10.039486111450195	-0.05327098693847656	-0.14425065002441406	0.946044921875	-4.8065185546875	-2.849578857421875	10.272920773315429	-0.4800374328613281	-0.5793968017578125	3.688812255859375	-4.486083984375	-2.269744873046875	
91	0.364	0.0	0.0	0.0	0.0	4.563	4.626	4.623	4.587	9.69771382446289	0.29388825378417965	0.3842693664550781	-0.537872314453125	-1.4495849609375	-1.056671142578125	9.53790086364746	0.9115922821044922	0.4285620971679687	0.888824462890625	-4.871368408203125	-2.384185791015625	10.006565838623047	0.5895721588134766	-0.24181436767578124	3.185272216796875	-4.726409912109375	-1.7547607421875	
92	0.368	0.0	0.0	0.0	0.0	4.587	4.6290000000000004	4.6290000000000004	4.569	9.810241302490233	-0.6039373687744141	0.17178396911621094	-2.391815185546875	-0.77056884765625	-0.9765625	9.967660061645507	-0.21966800231933592	-0.05027823486328125	1.056671142578125	-5.184173583984375	-3.017425537109375	10.08078609008789	-0.4483142608642578	-0.3130418670654297	3.35693359375	-4.825592041015625	-1.804351806640625	
93	0.372	0.0	0.0	0.0	0.0	4.5840000000000005	4.632	4.632	4.554	9.872490545654296	0.14125789794921875	-0.0053869537353515625	-0.45013427734375	-1.62506103515625	-1.132965087890625	9.598354455566406	0.8792705596923828	0.41060558471679687	1.73187255859375	-5.0048828125	-2.956390380859375	10.075997686767577	0.5123591552734374	-0.21068974609375	3.51715087890625	-4.81414794921875	-2.101898193359375	
94	0.376	0.0	0.0	0.0	0.0	4.59	4.626	4.632	4.563	9.829993466186522	-0.4423287567138672	0.15203180541992187	-2.216339111328125	-0.560760498046875	-0.64849853515625	9.951499200439452	-0.06344634399414062	-0.05327098693847656	0.942230224609375	-4.772186279296875	-2.956390380859375	10.075997686767577	-0.3345896820068359	-0.3136404174804687	3.421783447265625	-4.688262939453125	-1.483917236328125	
95	0.38	0.0	0.0	0.0	0.0	4.593	4.62	4.632	4.578	9.868899243164062	0.354341845703125	-0.03411737365722656	-0.17547607421875	-1.895904541015625	-0.804901123046875	9.607332711791992	1.1156979736328125	0.36810850524902344	1.42669677734375	-4.673004150390625	-3.536224365234375	10.01733974609375	0.45549686584472654	-0.17657237243652343	3.932952880859375	-4.360198974609375	-2.872467041015625	
96	0.384	0.0	0.0	0.0	0.0	4.587	4.632	4.632	4.5840000000000005	9.910199221801758	0.12389993591308593	-0.010175357055664061	2.43377685546875	-3.574371337890625	-0.8697509765625	10.018536846923828	-0.1640028137207031	-0.08140285644531249	1.07574462890625	-5.130767822265625	-3.223419189453125	10.136451278686522	-0.2603694305419922	-0.3082534637451172	3.398895263671875	-4.825592041015625	-1.4190673828125	
97	0.388	0.0	0.0	0.0	0.0	4.5840000000000005	4.6290000000000004	4.6290000000000004	4.5840000000000005	9.903615167236328	0.11671733093261719	-0.015562310791015624	0.06103515625	-2.079010009765625	-0.946044921875	9.59536170349121	1.2922703460693359	0.3507505432128906	1.575469970703125	-4.7760009765625	-3.65447998046875	9.84435867614746	-0.002992752075195312	-0.11731588134765625	3.589630126953125	-4.489898681640625	-2.780914306640625	
98	0.392	0.0	0.0	0.0	0.0	4.575	4.632	4.626	4.587	9.86291373901367	0.41898529052734373	0.029927520751953124	2.559661865234375	-3.513336181640625	-0.865936279296875	9.726444244384766	0.5351040710449219	0.15741875915527342	0.02288818359375	-5.28717041015625	-2.40325927734375	10.036493359375	-0.12509703674316405	-0.24660277099609373	3.47900390625	-5.02777099609375	-1.491546630859375	
99	0.396	0.0	0.0	0.0	0.0	4.587	4.632	4.632	4.563	9.871293444824218	0.09636661682128905	0.07781155395507812	0.789642333984375	-2.376556396484375	-1.194000244140625	9.622296472167967	1.0199299072265624	0.4165910888671875	1.293182373046875	-4.974365234375	-3.35693359375	9.802460147094726	-0.059256491088867186	-0.037110125732421874	3.978729248046875	-4.53948974609375	-2.803802490234375	
100	0.4	0.0	0.0	0.0	0.0	4.593	4.6290000000000004	4.632	4.557	9.892841259765625	0.17298106994628906	0.017956512451171875	1.651763916015625	-3.040313720703125	-0.446319580078125	9.813832604980469	0.17896657409667968	0.16160861206054686	0.26702880859375	-4.8675537109375	-2.864837646484375	9.919776028442381	0.2759317413330078	-0.18914193115234373	3.757476806640625	-4.650115966796875	-2.002716064453125	
101	0.404	0.0	0.0	0.0	0.0	4.587	4.626	4.632	4.569	9.87069489440918	0.4632780212402344	0.06105214233398437	5.924224853515625	-5.794525146484375	-0.79345703125	9.630676177978515	0.9457096557617187	0.3286041778564453	1.140594482421875	-4.741668701171875	-3.879547119140625	9.778518130493163	-0.09756371765136718	-0.03411737365722656	4.009246826171875	-4.482269287109375	-2.956390380859375	
102	0.40800000000000003	0.0	0.0	0.0	0.0	4.59	4.632	4.632	4.578	9.858723886108399	0.5321113189697265	0.06284779357910156	2.72369384765625	-3.79180908203125	-0.762939453125	9.738415252685547	0.5189432098388671	0.21787235107421873	0.629425048828125	-4.8675537109375	-2.17437744140625	9.797073193359374	0.32620997619628905	-0.09516951599121093	3.757476806640625	-4.90570068359375	-1.97601318359375	
103	0.41200000000000003	0.0	0.0	0.0	0.0	4.59	4.632	4.632	4.5840000000000005	9.868899243164062	0.30705636291503907	0.09696516723632811	5.889892578125	-5.43212890625	-0.804901123046875	9.701305126953125	0.5231330627441406	0.26755203552246093	0.48065185546875	-4.45556640625	-3.62396240234375	10.02990930480957	-0.35613749694824215	-0.23882161560058593	3.543853759765625	-4.611968994140625	-2.300262451171875	
104	0.41600000000000004	0.0	0.0	0.0	0.0	4.5840000000000005	4.6290000000000004	4.6290000000000004	4.587	9.890447058105469	0.31543606872558594	0.05566518859863281	3.99017333984375	-4.7454833984375	-1.682281494140625	9.837176071166992	0.3752911102294922	0.08559270935058594	0.61798095703125	-4.9896240234375	-2.391815185546875	9.91558617553711	0.3094505645751953	-0.143652099609375	3.650665283203125	-4.5166015625	-1.9989013671875	
105	0.42	0.0	0.0	0.0	0.0	4.587	4.632	4.623	4.575	9.858723886108399	0.3130418670654297	0.1322796417236328	5.382537841796875	-5.367279052734375	-0.72479248046875	9.536703762817382	1.1617863555908203	0.373495458984375	0.84686279296875	-4.75311279296875	-3.31878662109375	9.963470208740233	-0.35314474487304687	-0.20350714111328125	3.803253173828125	-4.360198974609375	-2.254486083984375	
106	0.424	0.0	0.0	0.0	0.0	4.5840000000000005	4.632	4.632	4.563	9.936535440063476	0.21787235107421873	-0.013766659545898436	5.14984130859375	-5.542755126953125	-0.732421875	9.784503634643555	-0.015562310791015624	0.13108254089355467	0.408172607421875	-5.344390869140625	-1.956939697265625	9.828197814941406	0.38666356811523434	-0.09756371765136718	3.696441650390625	-4.73785400390625	-1.9683837890625	
107	0.428	0.0	0.0	0.0	0.0	4.593	4.626	4.6290000000000004	4.557	9.913191973876952	0.32441432495117184	0.10175357055664062	5.657196044921875	-5.367279052734375	-0.8697509765625	9.919776028442381	0.6554127044677734	-0.023343466186523436	1.689910888671875	-4.856109619140625	-3.18145751953125	10.056245523071288	-0.36750995483398435	-0.20829554443359374	3.803253173828125	-4.46319580078125	-2.155303955078125	
108	0.432	0.0	0.0	0.0	0.0	4.587	4.626	4.632	4.572	9.956287603759765	0.06763619689941405	-0.022146365356445312	4.7454833984375	-5.184173583984375	-0.6866455078125	9.811438403320311	0.013766659545898436	0.09457096557617187	0.293731689453125	-4.993438720703125	-2.346038818359375	10.071209283447265	0.14784195251464843	-0.10714052429199218	3.5552978515625	-4.5166015625	-2.262115478515625	
109	0.436	0.0	0.0	0.0	0.0	4.587	4.632	4.632	4.581	9.904213717651366	0.020350714111328123	-0.051475335693359374	3.91387939453125	-4.550933837890625	-0.896453857421875	9.80724855041504	0.814028564453125	0.051475335693359374	1.39617919921875	-4.9591064453125	-2.849578857421875	9.912593423461914	-0.2747346405029297	-0.17178396911621094	3.7384033203125	-4.3792724609375	-2.040863037109375	
110	0.44	0.0	0.0	0.0	0.0	4.587	4.632	4.6290000000000004	4.5840000000000005	9.961076007080077	0.051475335693359374	-0.01975216369628906	5.07354736328125	-5.649566650390625	-0.5645751953125	9.82580361328125	0.17178396911621094	0.015562310791015624	0.492095947265625	-5.05828857421875	-2.490997314453125	10.05564697265625	0.06464344482421874	-0.07601590270996093	3.719329833984375	-4.76837158203125	-2.300262451171875	
111	0.444	0.0	0.0	0.0	0.0	4.572	4.6290000000000004	4.626	4.59	9.94671079711914	-0.06823474731445311	-0.0939724151611328	4.558563232421875	-4.878997802734375	-0.965118408203125	9.924564431762695	0.5614402893066406	0.0005985504150390625	1.300811767578125	-4.73785400390625	-2.67791748046875	10.32978306274414	-0.15682020874023436	-0.5680243438720702	3.62396240234375	-4.6539306640625	-1.735687255859375	
112	0.448	0.0	0.0	0.0	0.0	4.59	4.6290000000000004	4.632	4.569	9.945513696289062	-0.023942016601562498	0.028131869506835935	5.39398193359375	-5.565643310546875	-0.774383544921875	9.749189160156249	0.3854664672851562	0.3321954803466797	0.644683837890625	-5.157470703125	-2.64739990234375	10.000580334472655	0.04189852905273437	-0.062249243164062495	3.5400390625	-4.566192626953125	-2.15911865234375	
113	0.452	0.0	0.0	0.0	0.0	4.587	4.632	4.632	4.5600000000000005	9.925162982177733	-0.04189852905273437	-0.1227028350830078	4.00543212890625	-4.627227783203125	-0.759124755859375	9.854534033203125	0.4261678955078125	0.05805939025878906	1.59454345703125	-5.02777099609375	-2.7923583984375	10.263942517089843	-0.05386953735351562	-0.5746083984375	3.582000732421875	-4.69207763671875	-1.834869384765625	
114	0.456	0.0	0.0	0.0	0.0	4.593	4.626	4.626	4.5600000000000005	9.616310968017578	-0.011971008300781249	0.40222587890625	2.307891845703125	-3.475189208984375	-0.80108642578125	9.785102185058593	0.4740519287109375	0.3172317199707031	0.514984130859375	-5.107879638671875	-2.773284912109375	10.081983190917969	-0.14305354919433594	-0.15682020874023436	3.631591796875	-4.764556884765625	-2.51007080078125	
115	0.46	0.0	0.0	0.0	0.0	4.593	4.623	4.632	4.575	9.90900212097168	0.0383072265625	-0.1304839904785156	3.95965576171875	-4.360198974609375	-0.80108642578125	9.964068759155273	0.41060558471679687	-0.11552023010253906	1.453399658203125	-4.8675537109375	-2.9449462890625	10.260949765014647	0.008978256225585938	-0.5434837768554687	3.662109375	-4.444122314453125	-2.1514892578125	
116	0.464	0.0	0.0	0.0	0.0	4.5840000000000005	4.632	4.635	4.5840000000000005	9.558251577758789	-0.03591302490234375	0.4207809417724609	2.117156982421875	-3.2958984375	-1.033782958984375	9.743203656005859	0.5470750793457031	0.28790274963378903	0.469207763671875	-5.0506591796875	-2.50244140625	10.001178884887695	-0.06344634399414062	-0.18076222534179687	3.53240966796875	-4.840850830078125	-2.2125244140625	
117	0.468	0.0	0.0	0.0	0.0	4.5840000000000005	4.632	4.6290000000000004	4.5840000000000005	9.924564431762695	-0.10594342346191406	-0.16998831787109375	-1.834869384765625	-0.84686279296875	-0.637054443359375	9.922768780517577	0.4112041351318359	-0.05805939025878906	1.77001953125	-5.229949951171875	-2.895355224609375	10.255562811279296	0.03651157531738281	-0.6021417175292968	3.307342529296875	-4.63104248046875	-1.583099365234375	
118	0.47200000000000003	0.0	0.0	0.0	0.0	4.578	4.6290000000000004	4.626	0.003	9.600748657226562	0.04249707946777344	0.40282442932128903	1.89208984375	-3.33404541015625	-0.911712646484375	9.708487731933593	0.6236895324707031	0.26695348510742184	0.98419189453125	-4.955291748046875	-3.0364990234375	10.077194787597655	-0.08978256225585937	-0.2232593048095703	3.559112548828125	-4.791259765625	-2.044677734375	
119	0.47600000000000003	0.0	0.0	0.0	0.0	0.003	0.003	0.003	0.003	9.791087689208984	-0.03890577697753906	0.20829554443359374	-1.903533935546875	-0.946044921875	-0.77056884765625	9.929951385498047	0.5297171173095703	-0.14305354919433594	1.76239013671875	-5.37109375	-3.10516357421875	10.141239682006836	0.09576806640624999	-0.45669396667480466	3.39508056640625	-4.852294921875	-1.865386962890625	
120	0.48	0.0	0.0	0.0	0.0	0.009000000000000001	0.003	0.003	0.006	9.557653027343749	0.11731588134765625	0.41838674011230464	1.232147216796875	-2.765655517578125	-0.865936279296875	9.645041387939452	0.5799953521728515	0.27832594299316404	0.896453857421875	-4.87518310546875	-2.9754638671875	9.989806427001952	-0.06823474731445311	-0.15981296081542967	3.574371337890625	-4.787445068359375	-2.101898193359375	
121	0.484	0.0	0.0	0.0	0.0	0.003	0.003	0.006	0.003	9.819219558715819	-0.05626373901367187	0.20231004028320312	-1.438140869140625	-0.972747802734375	-0.7781982421875	9.789890588378906	0.4381389038085937	0.19033903198242186	0.667572021484375	-4.95147705078125	-2.986907958984375	10.20229182434082	0.06464344482421874	-0.5602431884765625	3.2196044921875	-4.8980712890625	-2.01416015625	
122	0.488	0.0	0.0	0.0	0.0	0.003	0.003	0.003	0.006	9.884461553955077	0.1657984649658203	-0.061650692749023434	0.26702880859375	-2.353668212890625	-0.972747802734375	9.688137017822266	0.5662286926269531	0.31962592163085934	0.91552734375	-4.974365234375	-3.070831298828125	9.815029705810547	-0.04189852905273437	-0.10235212097167969	3.849029541015625	-4.528045654296875	-2.346038818359375	
123	0.492	0.0	0.0	0.0	0.0	0.003	0.003	0.003	0.006	9.770138424682617	0.14544775085449219	0.27952304382324217	-1.300811767578125	-1.377105712890625	-0.995635986328125	9.76175871887207	0.38367081604003905	0.2454056701660156	0.60272216796875	-4.7454833984375	-2.910614013671875	10.095151300048828	-0.015562310791015624	-0.43993455505371093	3.253936767578125	-4.825592041015625	-2.079010009765625	
124	0.496	0.0	0.0	0.0	0.0	0.003	0.003	0.003	0.006	9.892841259765625	-0.0430956298828125	-0.10175357055664062	0.19073486328125	-2.0904541015625	-0.720977783203125	9.670779055786133	0.47764323120117186	0.18854338073730467	0.774383544921875	-4.779815673828125	-3.185272216796875	9.790489138793944	0.03232172241210937	-0.14903905334472656	3.742218017578125	-4.5623779296875	-2.28118896484375	
125	0.5	0.0	0.0	0.0	0.0	0.006	0.003	0.003	0.006	9.8311905670166	0.13108254089355467	0.2154781494140625	-1.377105712890625	-0.904083251953125	-0.598907470703125	9.79408044128418	0.3345896820068359	0.27353753967285155	0.713348388671875	-4.924774169921875	-3.086090087890625	9.861716638183593	0.006584054565429687	-0.11372457885742186	3.711700439453125	-4.47845458984375	-2.330780029296875	
126	0.504	0.0	0.0	0.0	0.0	0.006	0.003	0.006	0.003	9.864709390258788	0.18555062866210936	0.001197100830078125	1.67083740234375	-3.01361083984375	-1.026153564453125	9.703100778198241	0.40880993347167965	0.229843359375	0.9307861328125	-4.669189453125	-3.34930419921875	9.779116680908203	-0.008379705810546874	-0.10295067138671875	3.753662109375	-4.451751708984375	-2.4261474609375	
127	0.508	0.0	0.0	0.0	0.0	0.003	0.003	0.003	0.006	9.979631069946288	0.29089550170898437	-0.2603694305419922	4.711151123046875	-5.340576171875	-0.614166259765625	9.715670336914062	0.39863457641601563	0.10594342346191406	0.835418701171875	-5.023956298828125	-2.651214599609375	9.765948571777344	0.0383072265625	-0.13168109130859373	3.765106201171875	-4.791259765625	-2.429962158203125	
128	0.512	0.0	0.0	0.0	0.0	0.009000000000000001	0.006	0.003	0.003	9.874884747314452	0.26216508178710934	-0.025139117431640625	1.384735107421875	-2.8533935546875	-0.591278076171875	9.759963067626952	0.47764323120117186	0.16280571289062498	0.74005126953125	-4.93621826171875	-3.253936767578125	9.82460651245117	0.002992752075195312	-0.181959326171875	3.528594970703125	-4.5166015625	-2.0904541015625	
129	0.516	0.0	0.0	0.0	0.0	0.009000000000000001	0.006	0.003	0.003	10.007762939453125	0.34057518615722654	-0.22206220397949217	5.504608154296875	-5.9814453125	-1.056671142578125	9.843161575317382	0.21188684692382811	0.0053869537353515625	0.701904296875	-5.069732666015625	-2.429962158203125	9.90840357055664	-0.15741875915527342	-0.12210428466796874	3.841400146484375	-4.87518310546875	-2.35748291015625	
130	0.52	0.0	0.0	0.0	0.0	0.003	0.003	0.003	0.003	9.859322436523437	0.09636661682128905	0.0053869537353515625	6.061553955078125	-2.941131591796875	-0.858306884765625	9.77432827758789	0.5141548065185546	0.06943184814453125	0.713348388671875	-4.90570068359375	-2.910614013671875	9.9461122467041	0.051475335693359374	-0.22744915771484372	3.582000732421875	-4.367828369140625	-2.166748046875	
131	0.524	0.0	0.0	0.0	0.0	0.003	0.003	0.003	0.006	9.993996279907225	0.5093664031982421	-0.24660277099609373	5.80596923828125	-5.886077880859375	-0.522613525390625	9.727641345214844	0.354940396118164	0.1149216796875	0.843048095703125	-4.825592041015625	-2.43377685546875	9.816825357055663	-0.05566518859863281	-0.1083376251220703	3.631591796875	-4.6844482421875	-2.51007080078125	
132	0.528	0.0	0.0	0.0	0.0	0.006	0.003	0.006	0.006	9.957484704589843	0.18076222534179687	-0.06584054565429687	7.373809814453125	-6.603240966796875	-1.0833740234375	9.884461553955077	0.3321954803466797	0.012569558715820313	1.010894775390625	-5.176544189453125	-2.880096435546875	10.0748005859375	-0.07601590270996093	-0.1771709228515625	3.582000732421875	-4.2724609375	-2.269744873046875	
133	0.532	0.0	0.0	0.0	0.0	0.003	0.003	0.003	0.003	9.979631069946288	0.18435352783203124	-0.17298106994628906	6.4239501953125	-6.206512451171875	-1.071929931640625	9.701305126953125	0.44053310546874996	0.06943184814453125	0.77056884765625	-4.955291748046875	-2.765655517578125	10.072406384277343	-0.181959326171875	-0.1610100616455078	3.398895263671875	-4.638671875	-2.033233642578125	
134	0.536	0.0	0.0	0.0	0.0	0.003	0.006	0.006	0.006	9.951499200439452	0.18914193115234373	-0.1466448516845703	5.33294677734375	-5.290985107421875	-0.362396240234375	9.78629928588867	0.4590881683349609	-0.005985504150390624	0.720977783203125	-4.718780517578125	-2.933502197265625	9.919177478027343	0.09696516723632811	-0.1867477294921875	3.71551513671875	-4.302978515625	-2.22015380859375	
135	0.54	0.0	0.0	0.0	0.0	0.006	0.003	0.006	0.006	9.753977563476562	0.12808978881835936	0.3094505645751953	5.146026611328125	-5.413055419921875	-1.1138916015625	9.853336932373047	0.41958384094238277	0.15741875915527342	0.637054443359375	-4.791259765625	-2.353668212890625	10.104129556274414	-0.2328361114501953	-0.05327098693847656	3.780364990234375	-4.7760009765625	-2.1209716796875	
136	0.544	0.0	0.0	0.0	0.0	0.006	0.003	0.003	0.006	9.955689053344726	0.08200140686035155	-0.11432312927246092	6.999969482421875	-6.595611572265625	-1.2969970703125	9.835380419921874	0.4070142822265625	0.017357962036132813	1.15203857421875	-4.8828125	-2.84576416015625	10.308235247802735	-0.04668693237304687	-0.536899722290039	3.45611572265625	-4.489898681640625	-2.25067138671875	
137	0.548	0.0	0.0	0.0	0.0	0.006	0.003	0.003	0.006	9.708487731933593	-0.5680243438720702	0.34237083740234375	1.361846923828125	-2.86102294921875	-0.63323974609375	9.735422500610351	0.5608417388916015	0.22864625854492185	0.61798095703125	-4.871368408203125	-2.64739990234375	9.967061511230469	-0.07242460021972656	-0.11013327636718749	3.528594970703125	-4.657745361328125	-2.071380615234375	
138	0.552	0.0	0.0	0.0	0.0	0.003	0.003	0.003	0.003	9.958083255004881	-0.11192892761230468	-0.13108254089355467	3.9520263671875	-4.81414794921875	-0.164031982421875	9.911396322631836	0.45968671875	0.055066638183593745	1.522064208984375	-5.02777099609375	-3.0364990234375	10.270526571655273	-0.014963760375976562	-0.4686649749755859	3.864288330078125	-4.741668701171875	-2.025604248046875	
139	0.556	0.0	0.0	0.0	0.0	0.003	0.003	0.003	0.006	9.750386260986328	0.24660277099609373	0.3010708587646484	4.6844482421875	-4.730224609375	-1.3427734375	9.853935482788085	0.4267664459228515	0.17058686828613281	0.64849853515625	-4.817962646484375	-2.651214599609375	10.184933862304687	-0.02693476867675781	-0.076614453125	3.299713134765625	-4.520416259765625	-1.911163330078125	
140	0.56	0.0	0.0	0.0	0.0	0.003	0.003	0.006	0.003	9.71686743774414	-0.4704606262207031	0.3226186737060547	-2.0751953125	-0.8697509765625	-1.25885009765625	9.8311905670166	0.5883750579833984	0.04668693237304687	1.59454345703125	-4.8675537109375	-3.2196044921875	10.154407791137695	0.06584054565429687	-0.5392939239501953	3.749847412109375	-4.459381103515625	-2.437591552734375	
141	0.5640000000000001	0.0	0.0	0.0	0.0	0.006	0.006	0.006	0.003	9.623493572998047	-0.8990227233886718	0.49739539489746093	-0.553131103515625	-1.895904541015625	-0.560760498046875	9.591171850585937	0.6452373474121094	0.37289690856933594	0.675201416015625	-4.619598388671875	-3.0059814453125	10.046070166015625	0.10594342346191406	-0.07721300354003906	3.101348876953125	-4.638671875	-1.617431640625	
142	0.5680000000000001	0.0	0.0	0.0	0.0	0.003	0.003	0.003	0.0	9.843760125732421	0.09576806640624999	0.15502455749511718	-3.24249267578125	-0.118255615234375	-0.362396240234375	9.955689053344726	0.4997895965576172	0.06883329772949218	1.583099365234375	-5.0048828125	-3.2958984375	10.401609112548828	-0.12808978881835936	-0.5614402893066406	3.41796875	-4.57763671875	-2.34222412109375	
143	0.5720000000000001	0.0	0.0	0.0	0.0	0.003	0.003	0.006	0.003	9.667786303710937	0.4147954376220703	0.35194764404296874	2.689361572265625	-3.35693359375	-0.81634521484375	9.704896429443359	0.6200982299804687	0.23882161560058593	1.277923583984375	-5.001068115234375	-2.90679931640625	10.083180291748047	0.11252747802734374	-0.12030863342285156	3.3416748046875	-4.8065185546875	-1.995086669921875	
144	0.5760000000000001	0.0	0.0	0.0	0.0	0.003	0.003	0.003	0.006	9.683348614501952	0.29568390502929687	0.39803602600097654	0.14495849609375	-1.9989013671875	-1.42669677734375	9.701903677368163	0.469263525390625	0.33698388366699217	0.217437744140625	-5.27191162109375	-2.796173095703125	9.982623822021484	-0.11252747802734374	-0.3752911102294922	3.421783447265625	-4.608154296875	-2.09808349609375	
145	0.58	0.0	0.0	0.0	0.0	0.003	0.003	0.003	0.003	9.91558617553711	-0.6171054779052734	0.105344873046875	-3.482818603515625	0.1678466796875	-0.40435791015625	9.719261639404296	0.5458779785156249	0.4129997863769531	0.637054443359375	-5.008697509765625	-2.758026123046875	10.235810647583007	0.018555062866210937	-0.16519991455078123	3.37982177734375	-4.84466552734375	-1.834869384765625	
146	0.584	0.0	0.0	0.0	0.0	0.003	0.006	0.003	0.003	9.866505041503906	-0.5380968231201172	0.20769699401855468	-5.962371826171875	1.5716552734375	-0.049591064453125	9.85632968444824	0.42975919799804685	0.22744915771484372	0.61798095703125	-4.833221435546875	-3.345489501953125	10.18313821105957	-0.25797522888183594	-0.49799394531249996	3.47137451171875	-4.817962646484375	-2.29644775390625	
147	0.588	0.0	0.0	0.0	0.0	0.003	0.006	0.006	0.006	10.011354241943359	1.0845733520507812	-0.20530279235839843	2.685546875	-3.6163330078125	-0.682830810546875	9.745597857666015	0.488417138671875	0.15023615417480468	0.92315673828125	-4.894256591796875	-2.590179443359375	9.682151513671874	0.3286041778564453	-0.03591302490234375	3.955841064453125	-4.566192626953125	-2.353668212890625	
148	0.592	0.0	0.0	0.0	0.0	0.006	0.003	0.003	0.006	9.935338339233398	0.7493851196289062	-0.1580173095703125	9.250640869140625	-7.88116455078125	-1.6021728515625	9.880870251464843	0.4291606475830078	0.18076222534179687	0.431060791015625	-5.1727294921875	-2.605438232421875	10.097545501708984	-0.18136077575683593	-0.49200844116210934	3.4637451171875	-4.711151123046875	-2.06756591796875	
149	0.596	0.0	0.0	0.0	0.0	0.0	0.003	0.006	0.003	10.079588989257813	0.14484920043945312	-0.2567781280517578	4.44793701171875	-4.974365234375	-1.9073486328125	9.847949978637695	0.4165910888671875	0.023942016601562498	0.06866455078125	-4.871368408203125	-2.6397705078125	9.982623822021484	0.10773907470703124	-0.15083470458984374	3.31878662109375	-4.63104248046875	-2.124786376953125	
150	0.6	0.0	0.0	0.0	0.0	0.006	0.003	0.006	0.003	9.897031112670899	-0.23044190979003906	-0.21188684692382811	2.7923583984375	-4.2877197265625	-0.324249267578125	9.642647186279296	0.4944026428222656	-0.04848258361816406	1.41143798828125	-5.039215087890625	-3.185272216796875	9.809642752075195	-0.09516951599121093	-0.181959326171875	3.692626953125	-4.528045654296875	-2.50244140625	
151	0.604	0.0	0.0	0.0	0.0	0.003	0.006	0.003	0.006	10.01733974609375	-0.24361001892089842	-0.14604630126953125	0.347137451171875	-2.490997314453125	-0.232696533203125	9.680355862426758	0.5225345123291015	0.15442600708007811	1.22833251953125	-4.886627197265625	-3.16619873046875	9.776123928833007	0.22206220397949217	-0.04249707946777344	3.692626953125	-4.878997802734375	-2.079010009765625	
152	0.608	0.0	0.0	0.0	0.0	0.006	0.003	0.003	0.003	9.965265859985351	0.5584475372314452	-0.2609679809570312	7.350921630859375	-6.809234619140625	-0.6866455078125	9.81862100830078	0.3687070556640625	-0.05985504150390625	1.445770263671875	-5.39398193359375	-3.047943115234375	9.941323843383788	-0.17417817077636719	-0.14963760375976562	3.971099853515625	-4.79888916015625	-2.254486083984375	
153	0.612	0.0	0.0	0.0	0.0	0.009000000000000001	0.006	0.003	0.006	9.852139831542969	0.21009119567871093	0.10354922180175781	6.687164306640625	-6.053924560546875	-1.3427734375	9.746794958496093	0.4860229370117187	0.03172317199707031	1.132965087890625	-4.863739013671875	-3.13568115234375	9.860519537353515	0.21188684692382811	-0.19393033447265623	3.673553466796875	-4.070281982421875	-2.376556396484375	
154	0.616	0.0	0.0	0.0	0.0	0.003	0.003	0.003	0.006	9.781510882568359	0.5327098693847656	-0.016759411621093748	7.9803466796875	-7.1868896484375	-0.865936279296875	9.578003741455078	0.5195417602539062	0.07841010437011718	0.72479248046875	-5.100250244140625	-2.5634765625	9.743203656005859	0.007781155395507812	-0.16041151123046873	3.650665283203125	-4.901885986328125	-2.391815185546875	
155	0.62	0.0	0.0	0.0	0.0	0.003	0.003	0.006	0.006	9.762955819702148	-0.18614917907714842	0.32620997619628905	2.6092529296875	-3.90625	-0.7781982421875	9.745597857666015	0.5057751007080078	0.25797522888183594	1.56402587890625	-4.9591064453125	-3.24249267578125	9.948506448364258	0.09038111267089843	0.05386953735351562	3.509521484375	-4.39453125	-2.178192138671875	
156	0.624	0.0	0.0	0.0	0.0	0.0	0.003	0.006	0.003	9.82580361328125	0.22685060729980466	0.047884033203124995	5.54656982421875	-5.428314208984375	-0.885009765625	9.771335525512695	0.4082113830566406	-0.07242460021972656	1.781463623046875	-5.054473876953125	-3.444671630859375	9.95329485168457	-0.10893617553710937	-0.13826514587402344	3.742218017578125	-4.82177734375	-2.0599365234375	
157	0.628	0.0	0.0	0.0	0.0	0.0	0.006	0.006	0.006	9.737816702270507	-0.04369418029785156	0.35613749694824215	1.186370849609375	-2.788543701171875	-0.728607177734375	9.652223992919922	0.5674257934570313	0.2914940521240234	1.48773193359375	-4.856109619140625	-3.265380859375	9.85094273071289	0.07781155395507812	0.00718260498046875	3.39508056640625	-4.180908203125	-2.208709716796875	
158	0.632	0.0	0.0	0.0	0.0	0.003	0.003	0.003	0.003	9.886257205200195	-0.3064578125	0.06344634399414062	-0.1220703125	-1.995086669921875	-0.644683837890625	9.750386260986328	0.35015199279785153	0.3585316986083984	0.2593994140625	-4.96673583984375	-2.689361572265625	9.891644158935547	-0.023343466186523436	0.09816226806640624	3.833770751953125	-4.69207763671875	-2.048492431640625	
159	0.636	0.0	0.0	0.0	0.0	0.003	0.006	0.003	0.003	9.925761532592773	-0.2561795776367187	0.17298106994628906	1.056671142578125	-2.5177001953125	-0.728607177734375	9.851541281127929	0.37708676147460934	0.181959326171875	1.033782958984375	-4.78363037109375	-3.200531005859375	10.041880313110351	-0.08978256225585937	-0.09038111267089843	3.856658935546875	-4.69207763671875	-2.471923828125	
160	0.64	0.0	0.0	0.0	0.0	0.006	0.003	0.003	0.003	10.034099157714843	-0.08978256225585937	-0.17597382202148437	2.78472900390625	-3.757476806640625	-0.774383544921875	9.782707983398437	0.35314474487304687	0.20949264526367187	0.255584716796875	-5.01251220703125	-2.788543701171875	9.982025271606444	-0.023343466186523436	0.0047884033203125	3.570556640625	-4.444122314453125	-1.8768310546875	
161	0.644	0.0	0.0	0.0	0.0	0.003	0.003	0.003	0.006	9.86351228942871	0.39264907226562495	-0.1227028350830078	4.550933837890625	-5.016326904296875	-0.888824462890625	9.795876092529296	0.6548141540527344	0.059256491088867186	1.129150390625	-4.669189453125	-2.5482177734375	10.140641131591796	-0.06105214233398437	-0.507570751953125	4.02069091796875	-4.46319580078125	-2.410888671875	
162	0.648	0.0	0.0	0.0	0.0	0.006	0.006	0.003	0.003	9.989207876586914	-0.02633621826171875	-0.03411737365722656	5.199432373046875	-5.199432373046875	-0.69427490234375	9.847351428222655	0.29927520751953124	0.18914193115234373	0.7781982421875	-5.237579345703125	-2.57110595703125	10.095151300048828	-0.08200140686035155	0.03531447448730469	3.597259521484375	-4.673004150390625	-1.682281494140625	
163	0.652	0.0	0.0	0.0	0.0	0.006	0.003	0.003	0.003	9.900622415161132	0.05985504150390625	-0.12988544006347655	3.017425537109375	-3.90625	-1.033782958984375	9.945513696289062	0.5548562347412109	-0.016160861206054686	1.678466796875	-4.8370361328125	-2.895355224609375	10.313023651123046	-0.17657237243652343	-0.5291185668945312	3.77655029296875	-4.24957275390625	-2.460479736328125	
164	0.656	0.0	0.0	0.0	0.0	0.003	0.006	0.003	0.006	9.80665	0.08140285644531249	0.2454056701660156	4.901885986328125	-4.947662353515625	-0.6561279296875	9.569025485229492	0.5578489868164063	0.49739539489746093	0.3814697265625	-4.703521728515625	-2.960205078125	9.951499200439452	0.09636661682128905	0.023942016601562498	3.3416748046875	-4.802703857421875	-2.025604248046875	
165	0.66	0.0	0.0	0.0	0.0	0.006	0.006	0.003	0.006	9.821015209960937	0.06643909606933593	-0.01915361328125	0.942230224609375	-2.750396728515625	-0.96893310546875	9.929951385498047	0.5351040710449219	0.1005564697265625	1.636505126953125	-4.669189453125	-2.727508544921875	10.244190353393554	-0.1927332336425781	-0.4339490509033203	3.978729248046875	-4.63104248046875	-2.223968505859375	
166	0.664	0.0	0.0	0.0	0.0	0.006	0.003	0.003	0.006	9.746794958496093	0.16819266662597654	0.2184709014892578	1.678466796875	-2.98309326171875	-1.064300537109375	9.759963067626952	0.3716998077392578	0.44113165588378905	0.499725341796875	-5.207061767578125	-2.849578857421875	10.177751257324218	0.06404489440917968	-0.2693476867675781	3.360748291015625	-4.520416259765625	-2.14385986328125	
167	0.668	0.0	0.0	0.0	0.0	0.003	0.003	0.006	0.006	9.866505041503906	-0.031124621582031248	-0.11611878051757812	0.041961669921875	-1.96075439453125	-0.988006591796875	9.903016616821288	0.5440823272705078	-0.09816226806640624	1.04522705078125	-4.9591064453125	-2.92205810546875	10.14542953491211	-0.15562310791015624	-0.4321533996582031	3.810882568359375	-4.3792724609375	-2.3345947265625	
168	0.672	0.0	0.0	0.0	0.0	0.003	0.003	0.006	0.006	9.700108026123047	0.24361001892089842	0.18076222534179687	1.76239013671875	-3.1585693359375	-0.728607177734375	9.613916766357422	0.4746504791259765	0.5207388610839844	0.301361083984375	-5.0506591796875	-2.635955810546875	9.970054263305663	0.1927332336425781	-0.13946224670410157	3.429412841796875	-4.863739013671875	-1.9073486328125	
169	0.676	0.0	0.0	0.0	0.0	0.006	0.003	0.003	0.009000000000000001	9.938929641723632	-0.14125789794921875	-0.18136077575683593	0.888824462890625	-2.674102783203125	-0.766754150390625	10.026318002319336	0.42317514343261714	-0.20051438903808594	1.2969970703125	-4.779815673828125	-3.02886962890625	10.212467181396484	-0.2615665313720703	-0.5051765502929687	3.520965576171875	-4.680633544921875	-1.71661376953125	
170	0.68	0.0	0.0	0.0	0.0	-0.003	0.006	0.006	0.006	9.702502227783203	0.10654197387695312	0.18375497741699218	1.865386962890625	-2.95257568359375	-1.132965087890625	9.673173257446289	0.4321533996582031	0.2651578338623047	1.13677978515625	-4.64630126953125	-2.899169921875	10.02332525024414	0.12389993591308593	-0.17298106994628906	3.398895263671875	-4.43267822265625	-2.11334228515625	
171	0.684	0.0	0.0	0.0	0.0	0.003	0.006	0.006	0.003	9.759963067626952	0.364517202758789	0.30526071166992186	0.545501708984375	-2.11334228515625	-0.827789306640625	9.879673150634765	0.5470750793457031	-0.04668693237304687	1.453399658203125	-4.734039306640625	-2.8533935546875	10.01733974609375	-0.07242460021972656	-0.42018239135742186	3.387451171875	-5.062103271484375	-1.750946044921875	
172	0.6880000000000001	0.0	0.0	0.0	0.0	0.003	0.003	0.006	0.006	9.727042794799804	0.12689268798828124	0.19871873779296872	1.094818115234375	-2.796173095703125	-0.9613037109375	9.69771382446289	0.44113165588378905	0.31004911499023435	0.736236572265625	-4.82177734375	-2.948760986328125	9.868300692749022	-0.08978256225585937	-0.1610100616455078	3.620147705078125	-4.627227783203125	-2.658843994140625	
173	0.6920000000000001	0.0	0.0	0.0	0.0	0.006	0.003	0.006	0.003	9.91438907470703	0.26216508178710934	0.047884033203124995	0.4730224609375	-2.140045166015625	-0.75531005859375	9.968857162475585	0.40462008056640625	-0.12210428466796874	0.911712646484375	-5.04302978515625	-2.9449462890625	10.172364303588866	-0.19093758239746092	-0.4112041351318359	3.307342529296875	-4.673004150390625	-1.8157958984375	
174	0.6960000000000001	0.0	0.0	0.0	0.0	0.003	0.003	0.006	0.006	9.773131176757811	0.09038111267089843	0.18555062866210936	3.5858154296875	-4.268646240234375	-0.78582763671875	9.534309561157226	0.6374561920166015	0.35613749694824215	0.675201416015625	-4.886627197265625	-3.070831298828125	9.706093530273437	-0.0017956512451171875	-0.10594342346191406	3.85284423828125	-4.497528076171875	-2.5787353515625	
175	0.7000000000000001	0.0	0.0	0.0	0.0	0.003	1.911	4.614	4.569	9.874884747314452	0.3459621398925781	0.0939724151611328	1.178741455078125	-2.63214111328125	-0.57220458984375	9.75517466430664	0.34835634155273437	0.12689268798828124	0.69427490234375	-5.115509033203125	-2.41851806640625	10.13166287536621	-0.059256491088867186	-0.3489548919677734	3.74603271484375	-4.60052490234375	-2.0751953125	
176	0.704	0.0	0.0	0.0	0.0	4.578	4.6290000000000004	4.632	4.575	9.862315188598632	0.24600422058105467	0.15442600708007811	4.489898681640625	-4.604339599609375	-0.99945068359375	9.731831198120117	0.5105635040283203	0.3274070770263672	0.858306884765625	-4.619598388671875	-3.314971923828125	9.936535440063476	-0.21966800231933592	-0.0987608184814453	3.749847412109375	-4.482269287109375	-2.76947021484375	
177	0.708	0.0	0.0	0.0	0.0	4.5840000000000005	4.632	4.632	4.581	9.849745629882811	0.17836802368164062	0.10414777221679687	0.514984130859375	-2.1820068359375	-0.78582763671875	9.735422500610351	0.3597287994384765	0.10295067138671875	0.72479248046875	-4.940032958984375	-2.8076171875	9.8449572265625	0.20649989318847656	-0.181959326171875	3.692626953125	-4.669189453125	-2.3040771484375	
178	0.712	0.0	0.0	0.0	0.0	4.578	4.6290000000000004	4.6290000000000004	4.59	9.745597857666015	0.36272155151367186	0.22744915771484372	3.35693359375	-4.18853759765625	-0.812530517578125	9.488221179199218	0.6171054779052734	0.3274070770263672	1.216888427734375	-4.955291748046875	-3.27301025390625	9.64025298461914	-0.0143652099609375	0.06344634399414062	3.997802734375	-4.58526611328125	-2.529144287109375	
179	0.716	0.0	0.0	0.0	0.0	4.59	4.6290000000000004	4.632	4.572	10.034697708129881	0.3363853332519531	-0.12090718383789062	4.79888916015625	-5.30242919921875	-0.7476806640625	9.913191973876952	0.24839842224121092	0.04608838195800781	0.8087158203125	-5.0048828125	-2.9754638671875	10.01075569152832	0.19512743530273435	-0.20649989318847656	3.688812255859375	-4.69207763671875	-2.178192138671875	
180	0.72	0.0	0.0	0.0	0.0	4.5840000000000005	4.632	4.632	4.5600000000000005	9.848548529052733	0.17657237243652343	0.0718260498046875	3.91387939453125	-4.459381103515625	-0.949859619140625	9.570821136474608	0.5518634826660156	0.3716998077392578	1.049041748046875	-4.573822021484375	-3.208160400390625	10.123881719970703	-0.34835634155273437	-0.3178302703857422	3.60107421875	-4.5013427734375	-1.995086669921875	
181	0.724	0.0	0.0	0.0	0.0	4.593	4.626	4.6290000000000004	4.5600000000000005	9.947907897949218	0.22086510314941404	-0.011971008300781249	4.184722900390625	-4.974365234375	-0.823974609375	9.721655841064452	0.36571430358886714	0.1352723937988281	1.06048583984375	-5.08880615234375	-2.613067626953125	9.715071786499022	0.3124433166503906	-0.0796072052001953	3.726959228515625	-4.78363037109375	-2.216339111328125	
182	0.728	0.0	0.0	0.0	0.0	4.59	4.626	4.632	4.572	9.827000714111328	0.08080430603027343	0.08978256225585937	3.7078857421875	-3.8299560546875	-0.70953369140625	9.647435589599608	0.5482721801757812	0.2537853759765625	0.690460205078125	-4.535675048828125	-3.086090087890625	10.025719451904296	-0.3124433166503906	-0.2645592834472656	3.3111572265625	-4.638671875	-1.8310546875	
183	0.732	0.0	0.0	0.0	0.0	4.5840000000000005	4.632	4.632	4.581	10.097545501708984	0.13407529296874998	-0.18255787658691405	4.306793212890625	-4.6844482421875	-0.81634521484375	9.945513696289062	0.2711433380126953	0.051475335693359374	0.774383544921875	-5.0048828125	-2.483367919921875	10.254964260864257	0.08140285644531249	-0.16759411621093748	3.871917724609375	-4.87518310546875	-2.414703369140625	
184	0.736	0.0	0.0	0.0	0.0	4.587	4.632	4.6290000000000004	4.581	9.911396322631836	0.1592144104003906	-0.031124621582031248	5.7220458984375	-5.489349365234375	-0.751495361328125	9.792284790039062	0.6410474945068358	0.11791443176269531	1.40380859375	-4.87518310546875	-2.902984619140625	9.932345587158203	-0.25438392639160157	-0.1927332336425781	3.337860107421875	-4.489898681640625	-2.2125244140625	
185	0.74	0.0	0.0	0.0	0.0	4.569	4.6290000000000004	4.626	4.59	9.957484704589843	0.4129997863769531	-0.08259995727539061	5.001068115234375	-5.66864013671875	-0.873565673828125	9.71028338317871	0.41539398803710936	0.22864625854492185	0.659942626953125	-5.100250244140625	-2.37274169921875	9.888651406860351	0.24061726684570311	-0.00718260498046875	3.681182861328125	-4.581451416015625	-2.34222412109375	
186	0.744	0.0	0.0	0.0	0.0	4.59	4.6290000000000004	4.632	4.572	9.96586441040039	0.09217676391601562	-0.05985504150390625	5.802154541015625	-5.706787109375	-0.701904296875	9.958681805419921	0.4961982940673828	-0.020949264526367185	1.255035400390625	-4.825592041015625	-2.727508544921875	10.184335311889647	-0.3800795135498047	-0.2807201446533203	4.047393798828125	-4.6234130859375	-1.857757568359375	
187	0.748	0.0	0.0	0.0	0.0	4.59	4.632	4.632	4.5600000000000005	10.019733947753906	0.41958384094238277	-0.03531447448730469	4.08935546875	-4.642486572265625	-0.980377197265625	9.872490545654296	0.48123453369140623	0.16699556579589842	0.911712646484375	-5.2337646484375	-2.819061279296875	10.123881719970703	0.037708676147460936	-0.1753752716064453	3.810882568359375	-4.4097900390625	-2.231597900390625	
188	0.752	0.0	0.0	0.0	0.0	4.587	0.003	0.003	0.003	9.868899243164062	0.4255693450927734	0.011971008300781249	6.130218505859375	-6.031036376953125	-0.652313232421875	9.737218151855469	0.5811924530029297	0.1370680450439453	0.8697509765625	-4.642486572265625	-2.7313232421875	10.108917959594725	0.09038111267089843	-0.5716156463623047	3.570556640625	-4.49371337890625	-1.995086669921875	
189	0.756	0.0	0.0	0.0	0.0	0.003	0.003	0.003	0.006	9.668983404541015	0.15861585998535155	0.44891281127929683	3.833770751953125	-4.421234130859375	-0.888824462890625	9.83897172241211	0.5207388610839844	0.1849520782470703	0.583648681640625	-4.924774169921875	-2.353668212890625	10.104728106689452	-0.020949264526367185	-0.07781155395507812	3.59344482421875	-4.41741943359375	-1.953125	
190	0.76	0.0	0.0	0.0	0.0	0.003	0.003	0.003	0.0	9.97903251953125	-0.04908113403320312	-0.1370680450439453	5.85174560546875	-5.466461181640625	-0.90789794921875	10.06223102722168	0.39923312683105466	-0.15442600708007811	1.323699951171875	-4.93621826171875	-3.0364990234375	10.41896707458496	-0.08080430603027343	-0.5596446380615234	3.559112548828125	-4.146575927734375	-2.185821533203125	
191	0.764	0.0	0.0	0.0	0.0	0.003	0.003	0.003	0.006	9.617508068847656	0.09038111267089843	0.4447229583740234	2.86865234375	-3.955841064453125	-0.72479248046875	9.715670336914062	0.622492431640625	0.2699462371826172	0.732421875	-4.61578369140625	-2.613067626953125	9.9981861328125	0.017956512451171875	-0.18375497741699218	3.276824951171875	-4.6234130859375	-2.18963623046875	
192	0.768	0.0	0.0	0.0	0.0	0.0	0.003	0.003	0.003	9.775525378417969	-0.027533319091796873	0.13946224670410157	-1.575469970703125	-1.132965087890625	-0.64849853515625	9.819818109130859	0.5099649536132812	0.03232172241210937	1.636505126953125	-5.298614501953125	-2.925872802734375	10.135254177856444	0.09576806640624999	-0.4537012145996093	3.662109375	-4.6234130859375	-2.048492431640625	
193	0.772	0.0	0.0	0.0	0.0	0.003	0.003	0.003	0.006	9.727641345214844	0.030526071166992186	0.4010287780761719	3.2501220703125	-3.932952880859375	-0.942230224609375	9.952097750854492	0.43514615173339843	0.0796072052001953	0.9307861328125	-4.810333251953125	-2.819061279296875	10.224438189697265	-0.09157821350097656	-0.23403321228027343	3.429412841796875	-4.741668701171875	-1.811981201171875	
194	0.776	0.0	0.0	0.0	0.0	0.003	0.006	0.003	0.003	9.80605144958496	-0.12330138549804687	0.1292868896484375	-1.758575439453125	-0.843048095703125	-1.10626220703125	9.91498762512207	0.5536591339111328	-0.12569558715820311	1.44195556640625	-5.31768798828125	-3.1585693359375	10.204087475585936	-0.02454056701660156	-0.5195417602539062	3.57818603515625	-4.78363037109375	-1.922607421875	
195	0.78	0.0	0.0	0.0	0.0	0.003	0.006	0.006	0.003	9.560645779418945	0.04668693237304687	0.5201403106689453	1.8157958984375	-3.345489501953125	-0.58746337890625	9.597157354736327	0.6721721160888672	0.15682020874023436	0.881195068359375	-4.955291748046875	-2.887725830078125	9.90241806640625	0.04608838195800781	-0.14784195251464843	3.37982177734375	-4.72259521484375	-1.842498779296875	
196	0.784	0.0	0.0	0.0	0.0	0.003	0.003	0.003	0.006	9.789890588378906	0.055066638183593745	0.23523031311035156	-1.62506103515625	-1.0833740234375	-0.667572021484375	9.97184991455078	0.5147533569335937	-0.022744915771484374	0.732421875	-5.10406494140625	-3.055572509765625	10.196306320190429	0.023343466186523436	-0.5865794067382812	3.383636474609375	-4.833221435546875	-1.865386962890625	
197	0.788	0.0	0.0	0.0	0.0	0.006	0.003	0.003	0.006	9.958681805419921	0.03890577697753906	-0.04369418029785156	-0.316619873046875	-1.850128173828125	-1.18255615234375	9.8449572265625	0.47584757995605464	0.21068974609375	0.91552734375	-4.82940673828125	-3.36456298828125	10.199299072265624	-0.05626373901367187	-0.2705447875976562	3.68499755859375	-4.791259765625	-2.25067138671875	
198	0.792	0.0	0.0	0.0	0.0	0.006	0.003	0.003	0.003	9.711480484008788	0.03651157531738281	0.2753331909179687	-1.850128173828125	-0.614166259765625	-0.926971435546875	9.664195001220703	0.39923312683105466	0.36391865234375	0.58746337890625	-4.89044189453125	-3.01361083984375	10.01015714111328	0.03651157531738281	-0.49380409240722656	3.50189208984375	-4.566192626953125	-2.223968505859375	
199	0.796	0.0	0.0	0.0	0.0	0.003	0.006	0.003	0.003	9.880870251464843	0.031124621582031248	0.023942016601562498	-0.7781982421875	-1.560211181640625	-0.81634521484375	9.724648593139648	0.7242460021972655	0.11911153259277343	0.751495361328125	-4.82940673828125	-2.910614013671875	9.645041387939452	0.17298106994628906	-0.014963760375976562	3.894805908203125	-4.5318603515625	-2.00653076171875	
200	0.8	0.0	0.0	0.0	0.0	0.006	0.003	0.003	0.003	9.8311905670166	-0.01915361328125	0.19333178405761717	4.39453125	-4.60052490234375	-0.90789794921875	9.87009634399414	0.201112939453125	0.2501940734863281	0.362396240234375	-4.764556884765625	-2.8076171875	10.311826550292968	-0.17896657409667968	-0.5243301635742187	3.498077392578125	-4.817962646484375	-2.2735595703125	
201	0.804	0.0	0.0	0.0	0.0	0.003	0.006	0.003	0.006	9.975441217041014	0.2424129180908203	-0.07481880187988281	0.93841552734375	-2.69317626953125	-1.0833740234375	9.776722479248047	0.44412440795898434	0.10115502014160156	0.75531005859375	-4.8828125	-3.4027099609375	9.8311905670166	0.034715924072265626	-0.08200140686035155	3.772735595703125	-4.459381103515625	-2.3193359375	
202	0.808	0.0	0.0	0.0	0.0	-0.006	0.003	0.003	0.006	9.904812268066406	0.6524199523925781	-0.21188684692382811	6.1187744140625	-6.099700927734375	-1.007080078125	9.636661682128906	0.33758243408203126	0.3716998077392578	0.26702880859375	-4.817962646484375	-2.716064453125	9.600748657226562	-0.047285482788085934	-0.10474632263183593	3.7078857421875	-4.871368408203125	-2.46429443359375	
203	0.812	0.0	0.0	0.0	0.0	0.006	0.003	0.006	0.003	10.018536846923828	0.15562310791015624	0.023942016601562498	1.087188720703125	-2.66265869140625	-0.858306884765625	9.796474642944336	0.49799394531249996	0.18734627990722655	0.61798095703125	-4.8828125	-3.040313720703125	9.867103591918944	0.07422025146484375	-0.0383072265625	3.719329833984375	-4.489898681640625	-1.827239990234375	
204	0.8160000000000001	0.0	0.0	0.0	0.0	0.006	0.003	0.006	0.003	10.058639724731444	0.3399766357421875	-0.26276363220214843	5.9967041015625	-6.031036376953125	-0.89263916015625	9.916184725952148	0.11791443176269531	-0.06105214233398437	1.163482666015625	-4.970550537109375	-2.593994140625	9.99160207824707	-0.3226186737060547	-0.1580173095703125	3.692626953125	-4.638671875	-2.460479736328125	
205	0.8200000000000001	0.0	0.0	0.0	0.0	0.006	0.003	0.003	0.003	9.928155734252929	0.26336218261718747	-0.08200140686035155	7.293701171875	-6.500244140625	-0.64849853515625	9.578003741455078	0.5799953521728515	0.17477672119140625	0.843048095703125	-4.69970703125	-3.19671630859375	9.854534033203125	0.13766659545898435	-0.13407529296874998	3.704071044921875	-4.21142578125	-2.231597900390625	
206	0.8240000000000001	0.0	0.0	0.0	0.0	0.003	0.006	0.003	0.006	9.937732540893554	0.7026981872558593	-0.15502455749511718	8.4075927734375	-7.354736328125	-0.6256103515625	9.670779055786133	0.2980781066894531	-0.04249707946777344	0.881195068359375	-5.214691162109375	-2.54058837890625	9.726444244384766	-0.11611878051757812	-0.07781155395507812	3.80706787109375	-4.5013427734375	-2.1514892578125	
207	0.8280000000000001	0.0	0.0	0.0	0.0	0.003	0.003	0.003	0.006	10.002375985717773	-0.07003039855957031	-0.011971008300781249	7.46917724609375	-7.053375244140625	-0.934600830078125	9.951499200439452	0.42497079467773435	0.01915361328125	1.323699951171875	-5.157470703125	-3.055572509765625	10.105925207519531	-0.032920272827148434	0.04608838195800781	3.9215087890625	-4.222869873046875	-2.14385986328125	
208	0.8320000000000001	0.0	0.0	0.0	0.0	0.003	0.003	0.003	0.006	9.93294413757324	0.28431144714355466	-0.24660277099609373	7.25555419921875	-6.862640380859375	-0.75531005859375	9.606734161376952	0.3022679595947265	0.010773907470703125	0.988006591796875	-4.9591064453125	-3.08990478515625	10.135254177856444	-0.3794809631347656	0.029328970336914062	3.353118896484375	-4.543304443359375	-2.02178955078125	
209	0.836	0.0	0.0	0.0	0.0	0.003	0.003	0.003	0.0	9.847351428222655	-0.09038111267089843	0.055066638183593745	4.72259521484375	-5.260467529296875	-0.644683837890625	9.67856021118164	0.7326257080078125	0.037708676147460936	1.80816650390625	-4.84466552734375	-2.880096435546875	9.790489138793944	0.3280056274414062	-0.11611878051757812	3.60870361328125	-4.15802001953125	-1.94549560546875	
210	0.84	0.0	0.0	0.0	0.0	0.003	0.003	0.006	0.003	9.750984811401366	-0.32620997619628905	0.41419688720703124	1.8157958984375	-3.185272216796875	-1.064300537109375	9.919776028442381	0.24121581726074218	0.43155484924316406	0.67901611328125	-5.0506591796875	-2.918243408203125	10.21486138305664	-0.35015199279785153	0.05805939025878906	3.7384033203125	-4.764556884765625	-1.708984375	
211	0.844	0.0	0.0	0.0	0.0	0.006	0.006	0.003	0.006	9.86291373901367	-0.19093758239746092	0.21487959899902342	4.5623779296875	-4.63104248046875	-1.125335693359375	9.846154327392577	0.33099837951660155	0.16160861206054686	1.728057861328125	-4.852294921875	-3.34930419921875	9.995791931152343	-0.06643909606933593	0.08080430603027343	3.086090087890625	-4.3792724609375	-2.567291259765625	
212	0.848	0.0	0.0	0.0	0.0	0.003	0.006	0.003	0.003	9.737218151855469	-0.2561795776367187	0.31543606872558594	0.041961669921875	-1.857757568359375	-0.885009765625	9.706692080688477	0.5973533142089843	0.34536358947753903	0.22125244140625	-4.932403564453125	-2.81524658203125	9.86291373901367	0.031124621582031248	-0.07541735229492187	3.528594970703125	-4.459381103515625	-1.88446044921875	
213	0.852	0.0	0.0	0.0	0.0	0.003	0.003	0.006	0.006	9.830592016601562	-0.14245499877929688	0.37768531188964843	-1.068115234375	-1.468658447265625	-0.598907470703125	9.81263550415039	0.5470750793457031	0.13347674255371092	0.7781982421875	-4.596710205078125	-2.239227294921875	10.16398459777832	0.008379705810546874	-0.5189432098388671	3.673553466796875	-4.57763671875	-2.094268798828125	
214	0.856	0.0	0.0	0.0	0.0	0.006	0.006	0.003	0.003	9.930549935913085	-0.15502455749511718	0.30406361083984373	1.728057861328125	-2.902984619140625	-1.026153564453125	9.995791931152343	0.1562216583251953	0.38367081604003905	0.308990478515625	-4.886627197265625	-2.971649169921875	10.267533819580077	-0.3872621185302734	0.031124621582031248	3.574371337890625	-4.55474853515625	-1.987457275390625	
215	0.86	0.0	0.0	0.0	0.0	0.006	0.006	0.003	0.003	9.935936889648437	0.24779987182617186	-0.24361001892089842	1.689910888671875	-2.811431884765625	-1.010894775390625	9.849745629882811	0.7278373046875	-0.08918401184082031	0.98419189453125	-4.825592041015625	-2.6397705078125	10.099341152954102	0.04668693237304687	-0.546476528930664	3.90625	-4.322052001953125	-2.719879150390625	
216	0.864	0.0	0.0	0.0	0.0	-0.003	0.006	0.003	0.006	9.80665	0.1083376251220703	0.2699462371826172	2.471923828125	-3.818511962890625	-0.58746337890625	9.744400756835937	0.4339490509033203	0.44532150878906246	0.705718994140625	-5.260467529296875	-2.750396728515625	9.782707983398437	0.4177881896972656	-0.07481880187988281	3.42559814453125	-4.55474853515625	-1.529693603515625	
217	0.868	0.0	0.0	0.0	0.0	0.006	0.003	0.003	0.006	9.963470208740233	-0.2753331909179687	-0.12030863342285156	1.148223876953125	-2.86102294921875	-0.9918212890625	10.083778842163085	0.3321954803466797	0.032920272827148434	1.262664794921875	-4.7760009765625	-2.716064453125	10.49498297729492	-0.3956418243408203	-0.4836287353515625	3.7841796875	-4.619598388671875	-2.475738525390625	
218	0.872	0.0	0.0	0.0	0.0	0.006	0.006	0.006	0.003	9.779116680908203	0.18555062866210936	0.19572598571777342	2.239227294921875	-3.4637451171875	-1.056671142578125	9.685742816162108	0.6153098266601562	0.3399766357421875	0.58746337890625	-4.974365234375	-3.13568115234375	10.188525164794921	0.19333178405761717	-0.39444472351074217	3.627777099609375	-4.96673583984375	-2.2735595703125	
219	0.876	0.0	0.0	0.0	0.0	0.003	0.003	0.006	0.003	9.718064538574218	0.2609679809570312	0.1131260284423828	0.79345703125	-2.338409423828125	-0.8544921875	9.663596450805663	0.8020575561523438	0.16220716247558592	1.377105712890625	-5.031585693359375	-2.696990966796875	9.816226806640625	0.05027823486328125	-0.4291606475830078	3.07464599609375	-4.558563232421875	-1.796722412109375	
220	0.88	0.0	0.0	0.0	0.0	0.003	0.006	0.003	0.003	9.726444244384766	0.0005985504150390625	0.2507926239013672	0.69427490234375	-2.544403076171875	-1.041412353515625	9.733626849365233	0.3764882110595703	0.46507367248535153	0.217437744140625	-5.023956298828125	-2.74658203125	10.213664282226562	0.059256491088867186	-0.12689268798828124	3.582000732421875	-4.76837158203125	-1.922607421875	
221	0.884	0.0	0.0	0.0	0.0	0.003	0.003	0.003	0.003	9.910199221801758	-0.022146365356445312	0.029328970336914062	0.347137451171875	-2.178192138671875	-1.117706298828125	10.062829577636718	0.4944026428222656	-0.13646949462890623	1.041412353515625	-4.92095947265625	-3.28826904296875	10.35492218017578	-0.29448680419921874	-0.5997475158691405	3.66973876953125	-4.734039306640625	-2.117156982421875	
222	0.888	0.0	0.0	0.0	0.0	0.003	0.003	0.003	0.003	9.731232647705077	0.2507926239013672	0.09516951599121093	-0.164031982421875	-1.911163330078125	-1.02996826171875	9.394847314453125	0.6673837127685547	0.5674257934570313	0.30517578125	-5.039215087890625	-2.72369384765625	9.791087689208984	0.4417302062988281	-0.1083376251220703	3.810882568359375	-4.581451416015625	-1.94549560546875	
223	0.892	0.0	0.0	0.0	0.0	0.003	0.003	0.003	0.003	9.836577520751952	0.2555810272216797	0.12030863342285156	1.5411376953125	-2.857208251953125	-0.576019287109375	9.847351428222655	0.55545478515625	0.11372457885742186	0.885009765625	-4.947662353515625	-2.90679931640625	10.059836825561522	-0.1149216796875	-0.2980781066894531	3.50189208984375	-5.016326904296875	-1.743316650390625	
224	0.896	0.0	0.0	0.0	0.0	0.006	0.003	0.006	0.003	9.90181951599121	0.025737667846679687	0.013766659545898436	1.270294189453125	-2.66265869140625	-1.163482666015625	9.875483297729492	0.28311434631347654	0.25258827514648435	0.8087158203125	-4.848480224609375	-3.19671630859375	10.052055670166014	-0.13347674255371092	-0.13108254089355467	3.726959228515625	-4.825592041015625	-2.471923828125	
225	0.9	0.0	0.0	0.0	0.0	0.003	0.003	0.003	0.003	9.910797772216796	0.36212300109863277	-0.05746083984375	1.556396484375	-2.902984619140625	-0.87738037109375	9.79946739501953	0.6123170745849609	0.017357962036132813	1.15203857421875	-4.550933837890625	-3.078460693359375	9.989806427001952	0.03591302490234375	-0.34177228698730466	3.50189208984375	-4.512786865234375	-1.972198486328125	
226	0.904	0.0	0.0	0.0	0.0	0.003	4.605	4.62	4.569	9.673771807861328	0.18914193115234373	0.23223756103515625	4.0740966796875	-4.6844482421875	-0.782012939453125	9.478644372558593	0.5668272430419922	0.46208092041015625	0.7781982421875	-4.978179931640625	-2.95257568359375	9.55645592651367	0.1592144104003906	0.05805939025878906	3.864288330078125	-4.57763671875	-2.5787353515625	
227	0.908	0.0	0.0	0.0	0.0	4.581	4.6290000000000004	4.6290000000000004	4.554	9.957484704589843	0.19692308654785154	-0.037110125732421874	1.7242431640625	-3.21197509765625	-0.881195068359375	9.90241806640625	0.3112462158203125	0.0005985504150390625	0.896453857421875	-5.283355712890625	-2.5787353515625	10.025719451904296	0.09756371765136718	-0.25258827514648435	3.879547119140625	-4.791259765625	-2.15911865234375	
228	0.912	0.0	0.0	0.0	0.0	4.587	4.623	4.626	4.551	9.920374578857421	0.34237083740234375	-0.05087678527832031	5.22613525390625	-5.001068115234375	-0.86212158203125	9.721057290649414	0.5279214660644531	0.2561795776367187	0.743865966796875	-4.711151123046875	-3.337860107421875	9.823409411621093	-0.03591302490234375	-0.08200140686035155	4.0435791015625	-4.31060791015625	-2.838134765625	
229	0.916	0.0	0.0	0.0	0.0	4.5840000000000005	4.623	4.6290000000000004	4.578	9.782109432983399	0.5255272644042969	0.08200140686035155	1.44195556640625	-2.93731689453125	-0.637054443359375	9.576806640625	0.4908113403320312	0.10893617553710937	0.9765625	-4.8370361328125	-2.76947021484375	9.605537060546874	0.36750995483398435	-0.0987608184814453	3.7689208984375	-4.49371337890625	-2.14385986328125	
230	0.92	0.0	0.0	0.0	0.0	4.587	4.632	4.632	4.575	9.781510882568359	0.28909985046386716	0.14305354919433594	4.909515380859375	-5.367279052734375	-0.591278076171875	9.655815295410155	0.4896142395019531	0.26336218261718747	0.885009765625	-4.825592041015625	-2.99072265625	9.970652813720703	-0.2136824981689453	-0.23882161560058593	3.437042236328125	-4.665374755859375	-1.865386962890625	
231	0.924	0.0	0.0	0.0	0.0	4.5840000000000005	4.626	4.626	4.575	10.108917959594725	-0.033518823242187495	-0.258573779296875	4.741668701171875	-5.0201416015625	-0.644683837890625	9.956287603759765	0.17956512451171874	0.005985504150390624	0.91552734375	-5.08880615234375	-3.009796142578125	10.134655627441406	0.0053869537353515625	-0.354940396118164	3.643035888671875	-4.428863525390625	-2.223968505859375	
232	0.928	0.0	0.0	0.0	0.0	4.575	4.6290000000000004	4.626	4.5840000000000005	9.796474642944336	0.3950432739257812	0.055066638183593745	4.344940185546875	-4.4708251953125	-0.743865966796875	9.565434182739256	0.6236895324707031	0.2603694305419922	0.881195068359375	-4.894256591796875	-3.032684326171875	9.840168823242188	-0.14305354919433594	-0.25318682556152344	3.7841796875	-4.390716552734375	-2.559661865234375	
233	0.932	0.0	0.0	0.0	0.0	4.5840000000000005	4.6290000000000004	4.632	4.572	9.883264453125	0.3573345977783203	0.0047884033203125	5.191802978515625	-5.6304931640625	-0.579833984375	9.674968908691406	0.43574470214843747	0.23582886352539062	0.48065185546875	-5.06591796875	-2.1209716796875	9.730035546875	0.2902969512939453	-0.044891281127929686	3.4637451171875	-4.5013427734375	-2.9144287109375	
234	0.936	0.0	0.0	0.0	0.0	4.587	4.632	4.6290000000000004	4.551	9.974244116210937	0.10773907470703124	-0.08978256225585937	5.0048828125	-5.191802978515625	-0.835418701171875	9.860519537353515	0.3477577911376953	0.20231004028320312	0.99945068359375	-4.764556884765625	-3.093719482421875	10.214262832641602	-0.4082113830566406	-0.32142157287597656	3.673553466796875	-4.512786865234375	-2.37274169921875	
235	0.9400000000000001	0.0	0.0	0.0	0.0	4.587	4.626	4.626	4.5600000000000005	10.012551342773437	0.21966800231933592	-0.18255787658691405	5.4779052734375	-5.290985107421875	-0.74005126953125	9.843161575317382	0.38786066894531246	0.030526071166992186	0.362396240234375	-4.99725341796875	-2.490997314453125	10.13226142578125	-0.02154781494140625	-0.3381809844970703	3.658294677734375	-4.528045654296875	-2.2735595703125	
236	0.9440000000000001	0.0	0.0	0.0	0.0	4.593	0.003	0.003	0.006	9.819818109130859	0.25917232971191406	0.022744915771484374	5.222320556640625	-5.176544189453125	-0.690460205078125	9.490016830444336	0.5291185668945312	0.43574470214843747	1.407623291015625	-4.909515380859375	-2.72369384765625	9.69831237487793	-0.04668693237304687	0.0	3.71551513671875	-4.3792724609375	-2.246856689453125	
237	0.9480000000000001	0.0	0.0	0.0	0.0	0.006	0.003	0.003	0.003	10.064026678466796	0.11911153259277343	-0.24600422058105467	5.428314208984375	-5.60760498046875	-0.774383544921875	9.912593423461914	0.32620997619628905	0.12509703674316405	0.530242919921875	-5.268096923828125	-2.4261474609375	10.162188946533202	-0.04608838195800781	-0.12868833923339842	3.559112548828125	-4.825592041015625	-1.88446044921875	
238	0.9520000000000001	0.0	0.0	0.0	0.0	0.003	0.006	0.003	0.003	10.018536846923828	-0.06344634399414062	-0.2920926025390625	5.33294677734375	-5.252838134765625	-0.949859619140625	10.072406384277343	0.3232172241210937	-0.13587094421386717	1.438140869140625	-4.69207763671875	-2.841949462890625	10.448296044921875	-0.22505495605468748	-0.6655880615234374	3.780364990234375	-4.26483154296875	-2.23541259765625	
239	0.9560000000000001	0.0	0.0	0.0	0.0	0.006	0.003	0.006	0.006	9.886855755615233	0.12629413757324218	-0.022744915771484374	2.384185791015625	-3.482818603515625	-0.77056884765625	9.591171850585937	0.488417138671875	0.2657563842773437	0.7476806640625	-5.07354736328125	-2.4261474609375	9.81862100830078	0.11133037719726561	-0.018555062866210937	3.826141357421875	-4.581451416015625	-2.05230712890625	
240	0.96	0.0	0.0	0.0	0.0	0.006	0.003	0.006	0.003	9.894038360595703	-0.0017956512451171875	-0.08080430603027343	4.268646240234375	-5.096435546875	-0.644683837890625	9.911994873046874	0.45070846252441404	0.029927520751953124	1.262664794921875	-5.1727294921875	-2.62451171875	10.153210690307617	-0.028730419921875	-0.3890577697753906	3.810882568359375	-4.4097900390625	-1.96075439453125	
241	0.964	0.0	0.0	0.0	0.0	0.006	0.003	0.003	0.003	9.753379013061522	-0.005985504150390624	0.19093758239746092	3.4332275390625	-4.154205322265625	-1.049041748046875	9.849745629882811	0.5333084197998047	0.105344873046875	1.178741455078125	-4.9591064453125	-2.78472900390625	10.31003089904785	-0.14784195251464843	-0.3136404174804687	3.41033935546875	-4.76837158203125	-2.1514892578125	
242	0.968	0.0	0.0	0.0	0.0	0.003	0.003	0.003	0.003	9.872490545654296	-0.03411737365722656	-0.13108254089355467	3.5552978515625	-4.21142578125	-1.1749267578125	9.848548529052733	0.46507367248535153	0.052073886108398436	1.178741455078125	-4.848480224609375	-3.021240234375	10.130465774536132	-0.028730419921875	-0.4082113830566406	3.7384033203125	-4.24957275390625	-2.201080322265625	
243	0.972	0.0	0.0	0.0	0.0	0.003	0.003	0.003	0.006	9.570821136474608	-0.13407529296874998	0.39264907226562495	0.720977783203125	-2.368927001953125	-0.762939453125	9.580397943115234	0.6745663177490234	0.412401235961914	0.675201416015625	-4.99725341796875	-2.292633056640625	9.904812268066406	0.0652419952392578	-0.08918401184082031	3.688812255859375	-4.856109619140625	-1.9378662109375	
244	0.976	0.0	0.0	0.0	0.0	0.003	0.006	0.003	0.006	9.785700735473633	-0.008379705810546874	0.23523031311035156	-1.468658447265625	-1.06048583984375	-0.827789306640625	9.99220062866211	0.31184476623535157	0.07841010437011718	0.89263916015625	-4.85992431640625	-3.15093994140625	10.417171423339843	-0.13946224670410157	-0.4782417816162109	3.36456298828125	-5.031585693359375	-1.995086669921875	
245	0.98	0.0	0.0	0.0	0.0	0.003	0.003	0.003	0.006	9.66000514831543	-0.022146365356445312	0.32620997619628905	0.70953369140625	-2.69317626953125	-1.201629638671875	9.720458740234374	0.4878185882568359	0.2861070983886719	1.03759765625	-5.11932373046875	-2.9296875	10.15680199279785	-0.1562216583251953	-0.21607669982910155	3.62396240234375	-4.634857177734375	-2.2735595703125	
246	0.984	0.0	0.0	0.0	0.0	0.006	0.003	0.003	0.006	9.645041387939452	0.20709844360351562	0.3890577697753906	-1.789093017578125	-0.6866455078125	-1.079559326171875	9.715670336914062	0.584185205078125	0.1771709228515625	1.01470947265625	-4.87518310546875	-3.253936767578125	9.929352835083007	0.10953472595214843	-0.40940848388671874	3.528594970703125	-4.8370361328125	-2.18963623046875	
247	0.988	0.0	0.0	0.0	0.0	0.006	0.006	0.003	0.003	9.602544308471678	-0.20530279235839843	0.42796354675292964	-0.26702880859375	-1.82342529296875	-0.87738037109375	9.762955819702148	0.469263525390625	0.229843359375	0.782012939453125	-4.96673583984375	-2.8533935546875	10.20887587890625	-0.14903905334472656	-0.2232593048095703	3.4027099609375	-4.985809326171875	-1.583099365234375	
248	0.992	0.0	0.0	0.0	0.0	0.006	0.006	0.006	0.006	9.834183319091796	0.06943184814453125	0.1592144104003906	-1.983642578125	-0.675201416015625	-1.09100341796875	9.995791931152343	0.4171896392822265	0.02154781494140625	0.9307861328125	-4.802703857421875	-3.322601318359375	10.338761318969725	-0.16699556579589842	-0.6009446166992187	3.4637451171875	-4.8370361328125	-2.391815185546875	
249	0.996	0.0	0.0	0.0	0.0	0.003	0.003	0.003	0.003	9.91438907470703	0.3962403747558593	0.010175357055664061	1.262664794921875	-2.55584716796875	-1.071929931640625	9.667786303710937	0.5662286926269531	0.26276363220214843	0.629425048828125	-4.726409912109375	-3.086090087890625	9.698910925292969	0.14425065002441406	0.010175357055664061	3.76129150390625	-4.5928955078125	-2.216339111328125	
250	1.0	0.0	0.0	0.0	0.0	0.0	0.006	0.003	0.006	9.743203656005859	0.2902969512939453	0.24301146850585936	-2.117156982421875	-0.64849853515625	-0.705718994140625	9.631873278808593	0.411802685546875	0.22266075439453123	0.400543212890625	-5.107879638671875	-2.52532958984375	10.01733974609375	-0.04189852905273437	-0.39803602600097654	3.448486328125	-4.901885986328125	-2.147674560546875	
251	1.004	0.0	0.0	0.0	0.0	0.003	0.003	0.006	0.006	10.067617980957031	0.19692308654785154	-0.1580173095703125	2.349853515625	-3.551483154296875	-0.774383544921875	9.929951385498047	0.3902548706054687	0.09038111267089843	0.6103515625	-4.7454833984375	-2.788543701171875	9.989207876586914	-0.01975216369628906	-0.09516951599121093	3.475189208984375	-4.642486572265625	-2.25830078125	
252	1.008	0.0	0.0	0.0	0.0	0.003	0.006	0.006	0.006	9.835380419921874	0.3812766143798828	0.09277531433105468	7.24029541015625	-6.622314453125	-1.003265380859375	9.695918173217773	0.35194764404296874	0.09816226806640624	0.347137451171875	-4.79888916015625	-2.971649169921875	9.819818109130859	-0.15203180541992187	-0.11013327636718749	3.80706787109375	-4.547119140625	-2.498626708984375	
253	1.012	0.0	0.0	0.0	0.0	0.006	0.003	0.003	0.006	9.975441217041014	0.4608838195800781	-0.1227028350830078	3.56292724609375	-4.215240478515625	-0.690460205078125	9.464877713012696	0.5865794067382812	0.33039982910156246	0.835418701171875	-5.084991455078125	-2.99835205078125	9.609128363037108	0.3028665100097656	0.08978256225585937	3.627777099609375	-4.67681884765625	-1.979827880859375	
254	1.016	0.0	0.0	0.0	0.0	0.006	0.003	0.003	0.003	9.982623822021484	0.2962824554443359	-0.2454056701660156	7.6446533203125	-7.3089599609375	-0.66375732421875	9.846752877807617	0.34177228698730466	-0.06284779357910156	0.637054443359375	-5.0811767578125	-2.79998779296875	9.87608184814453	-0.19153613281249998	-0.07362170104980469	4.032135009765625	-4.840850830078125	-2.13623046875	
255	1.02	0.0	0.0	0.0	0.0	0.006	0.006	0.006	0.003	9.998784683227539	0.19931728820800781	-0.21248539733886718	4.810333251953125	-5.096435546875	-0.934600830078125	9.662997900390625	0.43634325256347656	0.18136077575683593	1.369476318359375	-4.779815673828125	-3.0059814453125	9.93952819213867	0.08020575561523437	-0.10115502014160156	3.894805908203125	-4.24957275390625	-2.544403076171875	
256	1.024	0.0	0.0	0.0	0.0	0.006	0.003	0.003	0.006	9.84435867614746	0.23582886352539062	-0.023942016601562498	5.7830810546875	-5.916595458984375	-0.850677490234375	9.612121115112304	0.5680243438720702	0.01975216369628906	1.316070556640625	-5.107879638671875	-3.223419189453125	9.701305126953125	-0.0383072265625	-0.09516951599121093	4.05120849609375	-4.791259765625	-2.44903564453125	
257	1.028	0.0	0.0	0.0	0.0	0.003	0.003	0.003	0.003	9.809642752075195	-0.01915361328125	0.2920926025390625	3.28826904296875	-4.38690185546875	-0.644683837890625	9.586981997680663	0.5069722015380859	0.3028665100097656	1.300811767578125	-4.72259521484375	-2.838134765625	9.909600671386718	0.201112939453125	-0.027533319091796873	3.62396240234375	-4.070281982421875	-2.11334228515625	
258	1.032	0.0	0.0	0.0	0.0	0.003	0.003	0.003	0.006	9.93354268798828	0.086191259765625	-0.05087678527832031	4.2724609375	-4.9591064453125	-1.087188720703125	9.90181951599121	0.2645592834472656	0.20290859069824219	1.163482666015625	-4.932403564453125	-2.979278564453125	10.024522351074218	-0.25318682556152344	-0.13168109130859373	4.00543212890625	-4.711151123046875	-2.4566650390625	
259	1.036	0.0	0.0	0.0	0.0	0.0	0.006	0.006	0.003	9.874884747314452	0.07900865478515624	0.16998831787109375	3.01361083984375	-3.631591796875	-0.81634521484375	9.554660275268555	0.5303156677246094	0.22445640563964842	1.461029052734375	-5.828857421875	-3.368377685546875	9.853336932373047	0.13766659545898435	-0.009576806640625	3.688812255859375	-4.360198974609375	-2.44903564453125	
260	1.04	0.0	0.0	0.0	0.0	0.003	0.006	0.003	0.003	9.85692823486328	0.15023615417480468	-0.027533319091796873	2.719879150390625	-4.207611083984375	-0.865936279296875	9.70369932861328	0.5021837982177734	0.26755203552246093	0.54168701171875	-4.993438720703125	-2.605438232421875	9.846154327392577	0.017357962036132813	0.08798691101074219	3.692626953125	-4.642486572265625	-1.73187255859375	
261	1.044	0.0	0.0	0.0	0.0	0.006	0.006	0.006	0.003	10.021529598999022	0.028730419921875	-0.04369418029785156	4.08172607421875	-4.72259521484375	-0.598907470703125	9.935936889648437	0.4255693450927734	0.14544775085449219	1.18255615234375	-4.70733642578125	-2.73895263671875	10.038887561035155	-0.07302315063476562	-0.04908113403320312	4.001617431640625	-4.5623779296875	-2.44903564453125	
262	1.048	0.0	0.0	0.0	0.0	0.003	0.003	0.003	0.003	9.87009634399414	0.07721300354003906	0.2747346405029297	5.11932373046875	-5.084991455078125	-0.74005126953125	9.777321029663085	0.4417302062988281	0.10773907470703124	0.667572021484375	-4.955291748046875	-2.838134765625	10.09993970336914	-0.06105214233398437	-0.032920272827148434	3.6468505859375	-4.604339599609375	-1.834869384765625	
263	1.052	0.0	0.0	0.0	0.0	0.003	0.003	0.003	0.003	9.894038360595703	0.23582886352539062	0.013766659545898436	5.645751953125	-5.641937255859375	-0.6103515625	9.727641345214844	0.5746083984375	0.22206220397949217	1.529693603515625	-4.73785400390625	-2.674102783203125	10.08078609008789	-0.016759411621093748	-0.3950432739257812	3.826141357421875	-4.199981689453125	-2.1820068359375	
264	1.056	0.0	0.0	0.0	0.0	0.006	0.003	0.003	0.006	9.765350021362304	0.047884033203124995	0.4285620971679687	4.444122314453125	-4.69207763671875	-0.63323974609375	9.828796365356444	0.489015689086914	0.3902548706054687	0.659942626953125	-5.306243896484375	-2.979278564453125	10.065223779296874	0.009576806640625	0.04249707946777344	3.83758544921875	-4.64630126953125	-1.83868408203125	
265	1.06	0.0	0.0	0.0	0.0	0.006	0.006	0.006	0.003	9.952696301269532	0.004189852905273437	-0.05027823486328125	-0.751495361328125	-1.35040283203125	-1.04522705078125	9.891644158935547	0.45070846252441404	0.07721300354003906	1.537322998046875	-4.878997802734375	-2.9296875	10.415974322509765	-0.3429693878173828	-0.4944026428222656	3.9215087890625	-4.34112548828125	-2.69317626953125	
266	1.064	0.0	0.0	0.0	0.0	0.0	0.006	0.003	0.006	9.697115274047851	0.07721300354003906	0.39264907226562495	3.021240234375	-3.841400146484375	-0.6866455078125	9.715071786499022	0.5626373901367188	0.40940848388671874	0.20599365234375	-4.917144775390625	-2.76947021484375	9.909600671386718	0.14784195251464843	-0.022744915771484374	3.292083740234375	-4.772186279296875	-2.071380615234375	
267	1.068	0.0	0.0	0.0	0.0	0.006	0.003	0.006	4.551	9.813832604980469	0.0526724365234375	0.09217676391601562	-0.7476806640625	-1.514434814453125	-0.8087158203125	9.919177478027343	0.5668272430419922	-0.04608838195800781	1.18255615234375	-4.64630126953125	-2.838134765625	10.164583148193358	-0.12449848632812499	-0.4100070343017578	3.894805908203125	-4.650115966796875	-2.1514892578125	
268	1.072	0.0	0.0	0.0	0.0	4.581	4.626	4.626	4.551	9.798270294189452	0.07481880187988281	0.24959552307128904	3.284454345703125	-4.192352294921875	-0.682830810546875	9.937133990478515	0.421978042602539	0.2705447875976562	0.904083251953125	-5.01251220703125	-2.765655517578125	10.180744009399413	0.16998831787109375	-0.18734627990722655	3.406524658203125	-4.70733642578125	-2.00653076171875	
269	1.076	0.0	0.0	0.0	0.0	4.587	4.62	4.626	4.566	9.843161575317382	0.029927520751953124	0.07422025146484375	-0.118255615234375	-2.094268798828125	-0.99945068359375	9.917381826782226	0.5309142181396485	-0.016759411621093748	1.552581787109375	-4.764556884765625	-3.292083740234375	10.228029492187499	-0.22026655273437498	-0.48662148742675776	3.7994384765625	-4.550933837890625	-2.399444580078125	
270	1.08	0.0	0.0	0.0	0.0	4.587	4.6290000000000004	4.632	4.578	9.74799205932617	0.0796072052001953	0.16160861206054686	-0.2593994140625	-1.865386962890625	-1.1444091796875	9.56363853149414	0.7260416534423828	0.40282442932128903	0.606536865234375	-5.0048828125	-2.8533935546875	9.934739788818359	0.31004911499023435	-0.17238251953125	3.322601318359375	-4.95147705078125	-2.1209716796875	
271	1.084	0.0	0.0	0.0	0.0	4.587	4.632	4.632	4.581	9.866505041503906	-0.24301146850585936	0.07302315063476562	-0.9613037109375	-1.434326171875	-0.789642333984375	10.018536846923828	0.47105917663574215	-0.08080430603027343	1.338958740234375	-5.092620849609375	-3.063201904296875	10.164583148193358	-0.07781155395507812	-0.2998737579345703	3.322601318359375	-4.85992431640625	-1.728057861328125	
272	1.088	0.0	0.0	0.0	0.0	4.578	4.632	4.6290000000000004	4.587	9.860519537353515	-0.0383072265625	0.0047884033203125	-0.209808349609375	-1.7852783203125	-1.094818115234375	9.778518130493163	0.507570751953125	0.17597382202148437	0.583648681640625	-5.168914794921875	-3.1280517578125	10.134057077026366	0.07781155395507812	-0.3333925811767578	3.597259521484375	-4.779815673828125	-2.338409423828125	
273	1.092	0.0	0.0	0.0	0.0	4.587	4.6290000000000004	4.623	4.575	9.819219558715819	-0.05386953735351562	0.00239420166015625	-0.51116943359375	-1.476287841796875	-0.698089599609375	9.74799205932617	0.5063736511230469	0.08798691101074219	1.010894775390625	-5.2642822265625	-3.208160400390625	10.034099157714843	0.09217676391601562	-0.4285620971679687	3.330230712890625	-4.90570068359375	-1.79290771484375	
274	1.096	0.0	0.0	0.0	0.0	4.587	4.632	4.632	4.5600000000000005	9.801861596679688	-0.033518823242187495	0.09995791931152344	0.148773193359375	-2.162933349609375	-1.007080078125	9.751583361816406	0.49320554199218747	0.18255787658691405	0.9307861328125	-5.138397216796875	-2.674102783203125	9.74859060974121	-0.08858546142578125	-0.008379705810546874	3.734588623046875	-4.69970703125	-2.330780029296875	
275	1.1	0.0	0.0	0.0	0.0	4.593	4.6290000000000004	4.6290000000000004	4.557	9.9215716796875	0.1292868896484375	0.007781155395507812	1.30462646484375	-2.597808837890625	-1.1138916015625	9.889249957275391	0.4064157318115234	0.01975216369628906	0.980377197265625	-4.756927490234375	-3.11279296875	10.277110626220702	-0.08439560852050781	-0.5063736511230469	3.467559814453125	-4.764556884765625	-2.002716064453125	
276	1.104	0.0	0.0	0.0	0.0	4.593	0.003	0.006	0.0	9.750984811401366	-0.003591302490234375	0.1197100830078125	0.0762939453125	-2.02178955078125	-1.094818115234375	9.617508068847656	0.6530185028076172	0.19572598571777342	0.759124755859375	-4.78363037109375	-3.3416748046875	9.731232647705077	-0.08020575561523437	-0.04249707946777344	3.810882568359375	-4.58526611328125	-2.635955810546875	
277	1.108	0.0	0.0	0.0	0.0	0.003	0.003	0.003	0.006	9.82580361328125	0.28909985046386716	0.025737667846679687	0.637054443359375	-2.46429443359375	-0.881195068359375	9.782707983398437	0.4423287567138672	0.06703764648437499	1.1749267578125	-5.107879638671875	-3.0364990234375	10.101136804199218	0.10474632263183593	-0.4626794708251953	3.376007080078125	-4.642486572265625	-1.8768310546875	
278	1.112	0.0	0.0	0.0	0.0	0.003	0.006	0.003	0.006	9.843760125732421	-0.19572598571777342	0.020350714111328123	3.948211669921875	-4.57000732421875	-0.812530517578125	9.783905084228515	0.42497079467773435	0.09576806640624999	0.820159912109375	-4.75311279296875	-3.131866455078125	9.920374578857421	-0.2232593048095703	-0.13467384338378904	3.589630126953125	-4.734039306640625	-2.349853515625	
279	1.116	0.0	0.0	0.0	0.0	0.003	0.006	0.003	0.006	9.919177478027343	0.22266075439453123	-0.105344873046875	1.308441162109375	-2.727508544921875	-0.865936279296875	9.795876092529296	0.316034619140625	0.15861585998535155	0.80108642578125	-5.0048828125	-2.536773681640625	9.855731134033203	0.10714052429199218	-0.1131260284423828	3.734588623046875	-4.5166015625	-2.445220947265625	
280	1.12	0.0	0.0	0.0	0.0	0.006	0.006	0.003	0.006	9.841365924072266	0.39863457641601563	0.09995791931152344	4.924774169921875	-4.9591064453125	-0.583648681640625	9.626486325073241	0.5728127471923827	0.1640028137207031	0.896453857421875	-4.886627197265625	-3.0364990234375	9.692326870727538	-0.004189852905273437	-0.062249243164062495	4.085540771484375	-4.878997802734375	-2.414703369140625	
281	1.124	0.0	0.0	0.0	0.0	0.006	0.006	0.006	0.003	9.949104998779296	0.33399113159179683	-0.07362170104980469	2.26593017578125	-3.635406494140625	-0.804901123046875	9.826402163696288	0.24001871643066405	0.037110125732421874	0.774383544921875	-5.06591796875	-2.323150634765625	9.958681805419921	0.028730419921875	-0.3286041778564453	3.57818603515625	-4.817962646484375	-2.140045166015625	
282	1.1280000000000001	0.0	0.0	0.0	0.0	0.003	0.003	0.006	0.003	9.970054263305663	0.25318682556152344	-0.06284779357910156	5.558013916015625	-5.336761474609375	-0.751495361328125	9.808445651245117	0.45010991210937495	0.05566518859863281	0.8087158203125	-4.795074462890625	-3.170013427734375	10.061033926391602	-0.16998831787109375	-0.22565350646972654	3.826141357421875	-4.33349609375	-2.193450927734375	
283	1.1320000000000001	0.0	0.0	0.0	0.0	0.006	0.003	0.006	0.003	9.932345587158203	0.12808978881835936	-0.05985504150390625	5.939483642578125	-6.130218505859375	-0.736236572265625	9.648632690429688	0.36212300109863277	0.059256491088867186	0.9002685546875	-5.1422119140625	-2.67791748046875	9.782707983398437	0.12330138549804687	-0.27174188842773433	3.47137451171875	-4.688262939453125	-2.3345947265625	
284	1.1360000000000001	0.0	0.0	0.0	0.0	0.003	0.003	0.003	0.006	9.879074600219726	0.3064578125	0.022146365356445312	5.878448486328125	-5.91278076171875	-0.850677490234375	9.777919580078125	0.4321533996582031	0.08259995727539061	1.117706298828125	-4.970550537109375	-2.8076171875	9.928155734252929	0.07601590270996093	-0.16819266662597654	3.856658935546875	-4.55474853515625	-2.044677734375	
285	1.1400000000000001	0.0	0.0	0.0	0.0	0.006	0.006	0.003	0.003	10.013748443603514	0.022146365356445312	-0.10893617553710937	6.465911865234375	-6.24847412109375	-0.782012939453125	9.850344180297851	0.29269115295410153	-0.05626373901367187	0.774383544921875	-5.001068115234375	-2.490997314453125	10.173561404418944	-0.34237083740234375	-0.11192892761230468	3.662109375	-4.7149658203125	-2.288818359375	
286	1.1440000000000001	0.0	0.0	0.0	0.0	0.003	0.003	0.003	0.003	9.91438907470703	0.3459621398925781	-0.08259995727539061	6.465911865234375	-6.01959228515625	-0.751495361328125	9.776722479248047	0.42437224426269526	0.028131869506835935	1.232147216796875	-5.062103271484375	-2.811431884765625	9.926360083007811	0.08020575561523437	-0.13826514587402344	3.627777099609375	-4.505157470703125	-2.1514892578125	
287	1.1480000000000001	0.0	0.0	0.0	0.0	0.003	0.003	0.003	0.003	9.9215716796875	-0.09516951599121093	-0.12449848632812499	5.9814453125	-5.908966064453125	-0.728607177734375	9.770736975097655	0.5231330627441406	0.19333178405761717	0.95367431640625	-5.229949951171875	-2.582550048828125	9.943718045043944	-0.1801636749267578	-0.04129997863769531	3.864288330078125	-4.40216064453125	-2.094268798828125	
288	1.1520000000000001	0.0	0.0	0.0	0.0	0.006	0.003	0.003	0.003	9.83178911743164	-0.3190273712158203	0.11133037719726561	2.925872802734375	-3.719329833984375	-0.797271728515625	9.897031112670899	0.37828386230468747	-0.0652419952392578	1.068115234375	-5.0048828125	-3.1280517578125	10.378265646362305	0.0017956512451171875	-0.5440823272705078	3.37982177734375	-4.669189453125	-2.147674560546875	
289	1.156	0.0	0.0	0.0	0.0	0.006	0.003	0.006	0.006	9.924564431762695	-0.12569558715820311	0.01975216369628906	6.103515625	-6.21795654296875	-0.67138671875	9.814431155395507	0.4082113830566406	0.23523031311035156	0.942230224609375	-5.084991455078125	-2.811431884765625	10.12567737121582	-0.3016694091796875	-0.13946224670410157	3.536224365234375	-4.772186279296875	-1.89971923828125	
290	1.16	0.0	0.0	0.0	0.0	0.003	0.003	0.003	0.003	9.734823950195311	-0.2699462371826172	0.1131260284423828	0.942230224609375	-2.5177001953125	-0.911712646484375	9.777919580078125	0.6494272003173828	0.18315642700195311	1.47247314453125	-4.92095947265625	-3.34930419921875	10.172962854003906	0.12569558715820311	-0.4100070343017578	3.62396240234375	-4.53948974609375	-2.315521240234375	
291	1.164	0.0	0.0	0.0	0.0	0.003	0.006	0.003	0.006	9.880870251464843	-0.3848679168701172	0.1484405029296875	-1.25885009765625	-0.995635986328125	-0.92315673828125	9.871293444824218	0.2741360900878906	0.28969840087890625	0.705718994140625	-5.36346435546875	-2.8533935546875	10.136451278686522	-0.297479556274414	-0.037708676147460936	3.45611572265625	-5.0811767578125	-1.880645751953125	
292	1.168	0.0	0.0	0.0	0.0	0.003	0.006	0.003	0.003	9.764751470947266	-0.18854338073730467	0.22026655273437498	-0.186920166015625	-1.88446044921875	-0.9307861328125	9.966462960815429	0.6769605194091797	0.06284779357910156	1.491546630859375	-4.53948974609375	-3.1890869140625	10.386046801757812	-0.062249243164062495	-0.4896142395019531	3.65447998046875	-4.69970703125	-2.6397705078125	
293	1.172	0.0	0.0	0.0	0.0	0.003	0.003	0.006	0.003	9.645041387939452	0.3028665100097656	0.3022679595947265	-0.301361083984375	-1.651763916015625	-1.190185546875	9.672574707031249	0.3441664886474609	0.3890577697753906	0.118255615234375	-4.711151123046875	-2.4566650390625	9.9981861328125	0.1274912384033203	-0.17417817077636719	3.448486328125	-4.547119140625	-1.94549560546875	
294	1.176	0.0	0.0	0.0	0.0	0.003	0.006	0.003	0.003	9.78689783630371	-0.020949264526367185	0.11731588134765625	-0.270843505859375	-1.529693603515625	-0.949859619140625	9.885658654785155	0.7050923889160156	0.04967968444824218	1.316070556640625	-4.978179931640625	-2.513885498046875	10.186729513549803	0.05327098693847656	-0.40940848388671874	3.82232666015625	-4.38690185546875	-2.315521240234375	
295	1.18	0.0	0.0	0.0	0.0	0.003	0.006	0.003	0.003	9.769539874267577	0.17357962036132812	0.22026655273437498	1.369476318359375	-3.13568115234375	-0.965118408203125	9.76116016845703	0.28371289672851563	0.3525461944580078	0.244140625	-4.85992431640625	-2.67791748046875	10.16398459777832	0.034715924072265626	-0.21906945190429686	3.536224365234375	-4.528045654296875	-1.7547607421875	
296	1.184	0.0	0.0	0.0	0.0	0.006	0.003	0.003	0.006	9.917980377197265	0.21966800231933592	-0.029927520751953124	1.155853271484375	-2.628326416015625	-0.812530517578125	9.832986218261718	0.6278793853759765	-0.009576806640625	1.04522705078125	-4.79888916015625	-2.899169921875	10.114903463745117	-0.19333178405761717	-0.43514615173339843	3.391265869140625	-4.96673583984375	-2.246856689453125	
297	1.188	0.0	0.0	0.0	0.0	0.003	0.003	0.006	0.009000000000000001	9.666589202880859	0.29927520751953124	0.2813186950683594	2.685546875	-3.7078857421875	-0.774383544921875	9.534309561157226	0.6284779357910156	0.40940848388671874	0.762939453125	-5.0048828125	-2.933502197265625	10.001777435302733	0.21068974609375	-0.16460136413574217	3.299713134765625	-4.79888916015625	-1.827239990234375	
298	1.192	0.0	0.0	0.0	0.0	0.003	0.006	0.003	0.003	9.792284790039062	0.3321954803466797	0.24660277099609373	1.773834228515625	-3.1585693359375	-0.81634521484375	9.877877499389648	0.5141548065185546	0.06584054565429687	1.018524169921875	-4.856109619140625	-2.880096435546875	10.20887587890625	-0.2292448089599609	-0.4070142822265625	3.543853759765625	-4.99725341796875	-2.025604248046875	
299	1.196	0.0	0.0	0.0	0.0	0.003	0.003	0.003	0.003	9.644442837524414	0.2747346405029297	0.3716998077392578	2.582550048828125	-3.7994384765625	-0.99945068359375	9.645639938354492	0.5494692810058593	0.4537012145996093	1.01470947265625	-5.016326904296875	-3.391265869140625	9.889249957275391	0.1352723937988281	-0.037110125732421874	3.74603271484375	-4.78363037109375	-2.47955322265625	
300	1.2	0.0	0.0	0.0	0.0	0.003	0.003	0.006	0.003	9.783905084228515	0.3232172241210937	0.23822306518554687	-0.213623046875	-1.9073486328125	-1.010894775390625	9.834183319091796	0.59376201171875	0.04967968444824218	1.09100341796875	-4.894256591796875	-3.21197509765625	10.06163247680664	-0.09337386474609374	-0.39743747558593745	3.406524658203125	-4.993438720703125	-2.0599365234375	
301	1.204	0.0	0.0	0.0	0.0	0.006	0.003	0.003	0.003	9.846154327392577	0.2501940734863281	0.11791443176269531	1.987457275390625	-3.48663330078125	-0.99945068359375	9.661800799560547	0.46148236999511716	0.4159925384521484	0.72479248046875	-5.031585693359375	-2.902984619140625	9.867702142333984	0.1592144104003906	-0.11432312927246092	3.631591796875	-4.840850830078125	-2.3040771484375	
302	1.208	0.0	0.0	0.0	0.0	0.003	0.003	0.006	0.003	9.867702142333984	0.2867056488037109	0.08738836059570312	-0.2899169921875	-1.495361328125	-0.7476806640625	9.959280355834961	0.5380968231201172	0.0	0.926971435546875	-4.886627197265625	-3.0059814453125	10.257358462524413	-0.26695348510742184	-0.40462008056640625	3.875732421875	-4.52423095703125	-2.269744873046875	
303	1.212	0.0	0.0	0.0	0.0	0.003	0.003	0.003	0.003	9.87727894897461	0.18734627990722655	0.08858546142578125	2.880096435546875	-3.803253173828125	-0.858306884765625	9.631873278808593	0.4656722229003906	0.37828386230468747	0.701904296875	-4.669189453125	-3.421783447265625	9.69112976989746	0.1753752716064453	0.07062894897460938	3.780364990234375	-4.444122314453125	-2.574920654296875	
304	1.216	0.0	0.0	0.0	0.0	4.461	4.62	4.6290000000000004	4.578	9.886257205200195	0.21009119567871093	0.105344873046875	4.89044189453125	-5.3253173828125	-0.995635986328125	9.666589202880859	0.45070846252441404	0.15562310791015624	0.850677490234375	-4.8370361328125	-2.506256103515625	9.788094937133788	0.044292730712890624	-0.014963760375976562	3.5858154296875	-4.909515380859375	-2.1514892578125	
305	1.22	0.0	0.0	0.0	0.0	4.5840000000000005	4.626	4.626	4.575	9.80665	0.32501287536621093	0.2154781494140625	3.71551513671875	-4.436492919921875	-0.690460205078125	9.66000514831543	0.4495113616943359	0.4722562774658203	0.86212158203125	-4.9591064453125	-3.139495849609375	9.892841259765625	-0.011372457885742187	-0.11073182678222655	3.620147705078125	-4.79888916015625	-2.4871826171875	
