	time	dac1	dac2	dac3	dac4	adc1.3	adc2.3	adc3.3	adc4.3	imu1accx	imu1accy	imu1accz	imu1gyrox	imu1gyroy	imu1gyroz	imu2accx	imu2accy	imu2accz	imu2gyrox	imu2gyroy	imu2gyroz	imu3accx	imu3accy	imu3accz	imu3gyrox	imu3gyroy	imu3gyroz	log
0	0.0	0.0	0.0	0.0	0.0	0.006	0.006	0.006	0.006	9.874286196899414	0.08978256225585937	0.06763619689941405	2.597808837890625	-3.795623779296875	-0.701904296875	9.775525378417969	0.5817910034179687	0.16699556579589842	0.812530517578125	-5.1727294921875	-3.589630126953125	9.969455712890625	0.48183308410644526	-0.19991583862304688	2.78472900390625	-4.7454833984375	-1.88446044921875	Estabizou em 10s, 2314 rpm
1	0.004	0.0	0.0	0.0	0.0	0.006	0.003	0.003	0.006	9.861716638183593	0.08798691101074219	0.07781155395507812	2.498626708984375	-3.7841796875	-0.81634521484375	9.757568865966796	0.5776011505126952	0.16041151123046873	0.40435791015625	-4.78363037109375	-3.124237060546875	9.96586441040039	0.46806642456054687	-0.21009119567871093	2.834320068359375	-4.79888916015625	-1.949310302734375	Started
2	0.008	0.0	0.0	0.0	0.0	0.006	0.003	0.003	0.006	9.855731134033203	0.06883329772949218	0.04908113403320312	2.5634765625	-3.662109375	-0.823974609375	9.757568865966796	0.5512649322509765	0.14185644836425781	0.762939453125	-5.48553466796875	-3.39508056640625	9.964667309570311	0.4339490509033203	-0.24001871643066405	2.685546875	-4.566192626953125	-1.819610595703125	IMU1|LSM6DS3|0x6A|I2C-1|±2g (±19,6m/s²)|±125º/s|400Hz
3	0.012	0.0	0.0	0.0	0.0	0.003	0.003	0.006	0.006	9.851541281127929	0.11192892761230468	0.03651157531738281	2.468109130859375	-3.936767578125	-0.8087158203125	9.758765966796874	0.5991489654541016	0.1292868896484375	0.6866455078125	-4.82940673828125	-3.51715087890625	9.962273107910155	0.488417138671875	-0.23882161560058593	2.750396728515625	-4.61578369140625	-1.796722412109375	IMU2|LSM6DS3|0x6B|I2C-1|±2g (±19,6m/s²)|±125º/s|400Hz
4	0.016	0.0	0.0	0.0	0.0	0.003	0.006	0.003	0.003	9.852139831542969	0.1227028350830078	0.047285482788085934	2.3956298828125	-3.910064697265625	-0.762939453125	9.76116016845703	0.6183025787353515	0.1580173095703125	0.3662109375	-4.726409912109375	-3.421783447265625	9.943119494628906	0.5123591552734374	-0.2154781494140625	2.52532958984375	-4.67681884765625	-1.73187255859375	IMU3|LSM6DS3|0x6B|I2C-2|±2g (±19,6m/s²)|±125º/s|400Hz
5	0.02	0.0	0.0	0.0	0.0	0.003	0.003	0.006	0.006	9.864709390258788	0.07302315063476562	0.05686228942871093	2.468109130859375	-3.902435302734375	-0.92315673828125	9.781510882568359	0.55545478515625	0.15203180541992187	0.51116943359375	-4.863739013671875	-3.345489501953125	9.995791931152343	0.44053310546874996	-0.20530279235839843	2.593994140625	-4.64630126953125	-1.728057861328125	ADC|ADS1015|0|0|1|0|±6,144 V|2400 SPS
6	0.024	0.0	0.0	0.0	0.0	0.0	0.006	0.003	0.006	9.878476049804688	0.06584054565429687	0.055066638183593745	2.52532958984375	-4.180908203125	-0.995635986328125	9.78031378173828	0.5608417388916015	0.3058592620849609	0.52642822265625	-4.852294921875	-3.28826904296875	9.995791931152343	0.4477157104492187	-0.20231004028320312	2.780914306640625	-4.924774169921875	-1.537322998046875	Gen1|Disabled
7	0.028	0.0	0.0	0.0	0.0	0.012	0.003	0.003	0.006	9.87668039855957	0.10235212097167969	0.06823474731445311	2.349853515625	-3.65447998046875	-0.957489013671875	9.760561618041992	0.603338818359375	0.1753752716064453	0.34332275390625	-4.98199462890625	-3.353118896484375	9.970652813720703	0.5033808990478515	-0.18435352783203124	2.750396728515625	-4.79888916015625	-1.99127197265625	Gen2|Enabled|Noise|0.0|10.0|1668
8	0.032	0.0	0.0	0.0	0.0	0.003	0.003	0.003	0.006	9.866505041503906	0.09217676391601562	0.06404489440917968	2.471923828125	-3.582000732421875	-0.78582763671875	9.764751470947266	0.584185205078125	0.16759411621093748	0.362396240234375	-5.229949951171875	-3.21197509765625	9.964667309570311	0.4800374328613281	-0.20231004028320312	2.628326416015625	-4.520416259765625	-1.781463623046875	Gen3|Enabled|Noise|0.0|10.0|128
9	0.036000000000000004	0.0	0.0	0.0	0.0	0.006	0.006	0.003	0.006	9.86291373901367	0.06344634399414062	0.040701428222656245	2.559661865234375	-4.100799560546875	-0.782012939453125	9.77432827758789	0.5470750793457031	0.16340426330566404	0.96893310546875	-5.157470703125	-3.337860107421875	9.983820922851562	0.44592005920410155	-0.20051438903808594	2.834320068359375	-4.5623779296875	-1.728057861328125	Gen4|Enabled|Noise|0.0|10.0|128
10	0.04	0.0	0.0	0.0	0.0	0.006	0.006	0.006	0.006	9.853336932373047	0.05985504150390625	0.06703764648437499	2.445220947265625	-3.71551513671875	-0.751495361328125	9.765948571777344	0.5476736297607422	0.1867477294921875	0.537872314453125	-4.741668701171875	-3.292083740234375	9.986215124511718	0.43993455505371093	-0.18136077575683593	2.72369384765625	-4.6844482421875	-1.941680908203125	Ctrl|Disabled
11	0.044	0.0	0.0	0.0	0.0	0.006	0.003	0.006	0.003	9.855132583618163	0.054468087768554684	0.0909796630859375	2.5482177734375	-3.818511962890625	-0.957489013671875	9.764751470947266	0.5404910247802734	0.20290859069824219	0.579833984375	-4.703521728515625	-3.452301025390625	9.968258612060547	0.4339490509033203	-0.17118541870117188	2.620697021484375	-4.57000732421875	-1.8310546875	
12	0.048	0.0	0.0	0.0	0.0	0.003	0.003	0.006	0.0	9.873089096069336	0.04249707946777344	0.06763619689941405	2.69317626953125	-3.85284423828125	-0.78582763671875	9.779715231323241	0.5374982727050781	0.17836802368164062	0.518798828125	-5.0506591796875	-3.437042236328125	9.98501802368164	0.41898529052734373	-0.1753752716064453	2.78472900390625	-4.795074462890625	-1.82342529296875	
13	0.052000000000000005	0.0	0.0	0.0	0.0	0.003	0.006	0.006	0.003	9.872490545654296	0.04967968444824218	0.05805939025878906	2.544403076171875	-3.810882568359375	-0.995635986328125	9.77492682800293	0.5333084197998047	0.1849520782470703	0.614166259765625	-4.909515380859375	-3.490447998046875	9.976638317871092	0.421978042602539	-0.19093758239746092	2.6397705078125	-4.650115966796875	-1.89208984375	
14	0.056	0.0	0.0	0.0	0.0	0.003	0.006	0.006	0.003	9.854534033203125	0.04369418029785156	0.08379705810546874	2.66265869140625	-3.95965576171875	-0.823974609375	9.759963067626952	0.5392939239501953	0.18614917907714842	0.728607177734375	-5.2642822265625	-3.2806396484375	9.961076007080077	0.430956298828125	-0.17896657409667968	2.719879150390625	-4.5623779296875	-1.598358154296875	
15	0.06	0.0	0.0	0.0	0.0	0.003	0.006	0.006	0.003	9.858723886108399	0.037110125732421874	0.07481880187988281	2.483367919921875	-3.73077392578125	-0.946044921875	9.77492682800293	0.5213374114990235	0.18734627990722655	0.72479248046875	-4.978179931640625	-3.448486328125	9.97184991455078	0.41958384094238277	-0.17357962036132812	2.79998779296875	-4.6234130859375	-1.76239013671875	
16	0.064	0.0	0.0	0.0	0.0	0.0	0.003	0.003	0.003	9.873089096069336	0.027533319091796873	0.076614453125	2.521514892578125	-3.60870361328125	-0.789642333984375	9.782707983398437	0.5111620544433594	0.17836802368164062	0.789642333984375	-5.1422119140625	-3.482818603515625	9.98501802368164	0.39444472351074217	-0.19991583862304688	2.8228759765625	-4.505157470703125	-1.728057861328125	
17	0.068	0.0	0.0	0.0	0.0	0.003	0.006	0.006	0.006	9.867702142333984	0.052073886108398436	0.08798691101074219	2.43377685546875	-3.749847412109375	-0.896453857421875	9.78031378173828	0.5363011718749999	0.16280571289062498	0.66375732421875	-5.05828857421875	-3.429412841796875	9.98501802368164	0.4147954376220703	-0.20949264526367187	2.384185791015625	-4.49371337890625	-1.74713134765625	
18	0.07200000000000001	0.0	0.0	0.0	0.0	-0.003	0.003	0.006	0.003	9.867103591918944	0.05746083984375	0.08439560852050781	2.567291259765625	-3.826141357421875	-0.972747802734375	9.78031378173828	0.5476736297607422	0.17178396911621094	0.7781982421875	-5.34820556640625	-3.42559814453125	9.969455712890625	0.4387374542236328	-0.20769699401855468	2.788543701171875	-4.69970703125	-1.834869384765625	
19	0.076	0.0	0.0	0.0	0.0	0.003	0.003	0.006	0.003	9.867702142333984	0.027533319091796873	0.07841010437011718	2.2735595703125	-3.90625	-0.87738037109375	9.78031378173828	0.5123591552734374	0.1640028137207031	0.78582763671875	-4.99725341796875	-3.25775146484375	9.989207876586914	0.4034229797363281	-0.21487959899902342	2.742767333984375	-4.734039306640625	-1.73187255859375	
20	0.08	0.0	0.0	0.0	0.0	0.003	0.003	0.003	0.003	9.865307940673828	0.018555062866210937	0.07841010437011718	2.590179443359375	-3.742218017578125	-0.75531005859375	9.775525378417969	0.5009866973876953	0.16220716247558592	0.400543212890625	-5.04302978515625	-3.582000732421875	9.986813674926758	0.3890577697753906	-0.20829554443359374	2.582550048828125	-4.6234130859375	-1.743316650390625	
21	0.084	0.0	0.0	0.0	0.0	0.003	0.006	0.006	0.003	9.86351228942871	0.029328970336914062	0.08319850769042968	2.5634765625	-3.8909912109375	-0.83160400390625	9.759364517211914	0.5333084197998047	0.17657237243652343	0.759124755859375	-4.962921142578125	-3.448486328125	9.964667309570311	0.4159925384521484	-0.20231004028320312	2.399444580078125	-4.642486572265625	-1.842498779296875	
22	0.088	0.0	0.0	0.0	0.0	0.006	0.006	0.003	0.003	9.858125335693359	0.028730419921875	0.06943184814453125	2.2125244140625	-3.5552978515625	-0.72479248046875	9.763554370117188	0.5243301635742187	0.17178396911621094	0.576019287109375	-5.359649658203125	-3.505706787109375	9.967660061645507	0.41539398803710936	-0.19572598571777342	2.72369384765625	-4.566192626953125	-1.583099365234375	
23	0.092	0.0	0.0	0.0	0.0	0.003	0.006	0.003	0.006	9.865307940673828	0.007781155395507812	0.0652419952392578	2.475738525390625	-3.597259521484375	-0.78582763671875	9.778518130493163	0.5057751007080078	0.16998831787109375	0.423431396484375	-4.924774169921875	-3.314971923828125	9.980229620361328	0.38247371520996093	-0.19632453613281248	2.79998779296875	-4.85992431640625	-1.819610595703125	
24	0.096	0.0	0.0	0.0	0.0	0.003	0.006	0.003	0.003	9.867702142333984	0.013168109130859374	0.08259995727539061	2.47955322265625	-3.742218017578125	-0.86212158203125	9.773131176757811	0.507570751953125	0.17956512451171874	0.6561279296875	-4.974365234375	-3.498077392578125	9.97903251953125	0.38786066894531246	-0.17896657409667968	2.643585205078125	-4.947662353515625	-1.67083740234375	
25	0.1	0.0	0.0	0.0	0.0	0.003	0.003	0.006	0.003	9.860519537353515	0.022744915771484374	0.08140285644531249	2.51007080078125	-3.72314453125	-0.77056884765625	9.771934075927733	0.5231330627441406	0.1897404815673828	0.637054443359375	-4.947662353515625	-3.4637451171875	9.970652813720703	0.4112041351318359	-0.17657237243652343	2.8228759765625	-4.7454833984375	-1.827239990234375	
26	0.10400000000000001	0.0	0.0	0.0	0.0	0.003	0.006	0.003	0.003	9.871293444824218	0.02454056701660156	0.06344634399414062	2.475738525390625	-3.444671630859375	-0.885009765625	9.779116680908203	0.5147533569335937	0.17298106994628906	0.476837158203125	-5.06591796875	-3.322601318359375	9.982025271606444	0.40880993347167965	-0.18315642700195311	2.643585205078125	-4.734039306640625	-1.766204833984375	
27	0.108	0.0	0.0	0.0	0.0	0.006	0.003	0.003	0.003	9.868899243164062	0.03411737365722656	0.06045359191894531	2.307891845703125	-3.559112548828125	-0.888824462890625	9.779116680908203	0.5321113189697265	0.17238251953125	0.820159912109375	-5.298614501953125	-3.467559814453125	9.97903251953125	0.40761283264160153	-0.19153613281249998	2.452850341796875	-4.60052490234375	-1.88446044921875	
28	0.112	0.0	0.0	0.0	0.0	0.0	0.003	0.006	0.006	9.865307940673828	0.04608838195800781	0.06763619689941405	2.66265869140625	-3.871917724609375	-0.911712646484375	9.780912332153319	0.5327098693847656	0.18555062866210936	0.522613525390625	-4.95147705078125	-3.574371337890625	9.970054263305663	0.430956298828125	-0.181959326171875	2.75421142578125	-4.817962646484375	-1.483917236328125	
29	0.116	0.0	0.0	0.0	0.0	0.003	0.003	0.003	0.006	9.86411083984375	0.02693476867675781	0.062249243164062495	2.51007080078125	-3.910064697265625	-0.827789306640625	9.77492682800293	0.5333084197998047	0.16519991455078123	0.67138671875	-4.787445068359375	-3.498077392578125	9.98561657409668	0.4207809417724609	-0.16998831787109375	2.7008056640625	-4.6844482421875	-1.6937255859375	
30	0.12	0.0	0.0	0.0	0.0	0.006	0.006	0.006	0.006	9.867702142333984	0.04189852905273437	0.055066638183593745	2.559661865234375	-3.662109375	-0.70953369140625	9.776123928833007	0.5285200164794922	0.1592144104003906	0.545501708984375	-4.947662353515625	-3.154754638671875	9.986215124511718	0.42317514343261714	-0.20171148986816406	2.60162353515625	-4.70733642578125	-1.74713134765625	
31	0.124	0.0	0.0	0.0	0.0	0.003	0.003	0.003	0.003	9.872490545654296	0.05746083984375	0.06404489440917968	2.552032470703125	-3.76129150390625	-0.698089599609375	9.76235726928711	0.5548562347412109	0.16041151123046873	0.598907470703125	-5.035400390625	-3.5247802734375	9.974244116210937	0.4387374542236328	-0.20051438903808594	2.52532958984375	-4.60052490234375	-1.644134521484375	
32	0.128	0.0	0.0	0.0	0.0	0.003	0.003	0.003	0.003	9.860519537353515	0.06943184814453125	0.07422025146484375	2.63214111328125	-3.570556640625	-1.03759765625	9.756371765136718	0.5704185455322265	0.17477672119140625	0.60272216796875	-4.8828125	-3.414154052734375	9.966462960815429	0.4560954162597656	-0.2041056915283203	2.765655517578125	-4.81414794921875	-1.834869384765625	
33	0.132	0.0	0.0	0.0	0.0	0.003	0.003	0.006	0.003	9.861716638183593	0.05985504150390625	0.05626373901367187	2.5787353515625	-3.978729248046875	-0.823974609375	9.775525378417969	0.5620388397216797	0.16220716247558592	0.652313232421875	-4.913330078125	-3.387451171875	9.976039767456054	0.44532150878906246	-0.2166752502441406	2.74658203125	-4.718780517578125	-1.65557861328125	
34	0.136	0.0	0.0	0.0	0.0	0.003	0.006	0.003	0.009000000000000001	9.861118087768554	0.07541735229492187	0.05327098693847656	2.49481201171875	-3.993988037109375	-0.69427490234375	9.778518130493163	0.5668272430419922	0.14425065002441406	0.499725341796875	-5.340576171875	-3.620147705078125	9.992799179077148	0.45010991210937495	-0.22445640563964842	2.788543701171875	-4.711151123046875	-1.708984375	
35	0.14	0.0	0.0	0.0	0.0	0.006	0.006	0.003	0.003	9.868300692749022	0.09756371765136718	0.04548983154296875	2.506256103515625	-3.72314453125	-0.988006591796875	9.776722479248047	0.5919663604736328	0.15502455749511718	0.507354736328125	-5.054473876953125	-3.3721923828125	9.97125136413574	0.48123453369140623	-0.2328361114501953	2.666473388671875	-4.3792724609375	-1.712799072265625	
36	0.14400000000000002	0.0	0.0	0.0	0.0	0.006	0.003	0.006	0.006	9.87009634399414	0.10414777221679687	0.05027823486328125	2.72369384765625	-3.68499755859375	-0.698089599609375	9.782707983398437	0.5877765075683593	0.15083470458984374	0.579833984375	-4.955291748046875	-3.421783447265625	9.979631069946288	0.4860229370117187	-0.23104046020507812	2.72369384765625	-4.711151123046875	-1.789093017578125	
37	0.148	0.0	0.0	0.0	0.0	0.006	0.006	0.003	0.006	9.866505041503906	0.09696516723632811	0.04129997863769531	2.44140625	-3.692626953125	-0.79345703125	9.779715231323241	0.5871779571533203	0.1514332550048828	0.48065185546875	-5.016326904296875	-3.513336181640625	9.976638317871092	0.4800374328613281	-0.23882161560058593	2.620697021484375	-4.787445068359375	-1.621246337890625	
38	0.152	0.0	0.0	0.0	0.0	0.006	0.003	0.003	0.006	9.86291373901367	0.09457096557617187	0.047884033203124995	2.559661865234375	-3.5858154296875	-0.782012939453125	9.759963067626952	0.5985504150390625	0.15741875915527342	0.54168701171875	-5.19561767578125	-3.45611572265625	9.97244846496582	0.48183308410644526	-0.21787235107421873	2.796173095703125	-4.718780517578125	-1.953125	
39	0.156	0.0	0.0	0.0	0.0	0.006	0.006	0.003	0.003	9.86351228942871	0.1005564697265625	0.05626373901367187	2.58636474609375	-3.841400146484375	-0.614166259765625	9.7683427734375	0.5973533142089843	0.15502455749511718	0.762939453125	-5.001068115234375	-3.34930419921875	9.967660061645507	0.48662148742675776	-0.22086510314941404	2.7618408203125	-4.5318603515625	-1.598358154296875	
40	0.16	0.0	0.0	0.0	0.0	0.003	0.006	0.006	0.006	9.859322436523437	0.09696516723632811	0.05027823486328125	2.62451171875	-3.65447998046875	-0.69427490234375	9.777919580078125	0.594959112548828	0.14006079711914063	0.522613525390625	-5.30242919921875	-3.54766845703125	9.973047015380859	0.47644613037109373	-0.21966800231933592	2.532958984375	-4.425048828125	-1.88446044921875	
41	0.164	0.0	0.0	0.0	0.0	0.009000000000000001	0.006	0.003	0.003	9.871293444824218	0.09636661682128905	0.04668693237304687	2.1820068359375	-3.803253173828125	-0.823974609375	9.777919580078125	0.5823895538330078	0.1610100616455078	0.3204345703125	-4.92095947265625	-3.45611572265625	9.97783541870117	0.47704468078613277	-0.21068974609375	2.75421142578125	-4.558563232421875	-1.7242431640625	
42	0.168	0.0	0.0	0.0	0.0	0.003	0.003	0.003	0.003	9.86411083984375	0.08858546142578125	0.062249243164062495	2.38800048828125	-3.688812255859375	-0.823974609375	9.771335525512695	0.5871779571533203	0.1849520782470703	0.63323974609375	-4.985809326171875	-3.360748291015625	9.965265859985351	0.47584757995605464	-0.19931728820800781	2.590179443359375	-4.726409912109375	-1.796722412109375	
43	0.17200000000000001	0.0	0.0	0.0	0.0	0.006	0.006	0.006	0.003	9.858125335693359	0.08259995727539061	0.061650692749023434	2.460479736328125	-3.719329833984375	-0.713348388671875	9.765350021362304	0.5817910034179687	0.17477672119140625	0.7781982421875	-5.45501708984375	-3.566741943359375	9.97843396911621	0.46627077331542965	-0.19153613281249998	2.765655517578125	-4.60052490234375	-1.766204833984375	
44	0.176	0.0	0.0	0.0	0.0	0.006	0.006	0.006	0.006	9.861716638183593	0.08918401184082031	0.05686228942871093	2.4871826171875	-3.509521484375	-0.80108642578125	9.762955819702148	0.5734112976074218	0.17118541870117188	0.514984130859375	-4.82940673828125	-3.299713134765625	9.984419473266602	0.46148236999511716	-0.19033903198242186	2.719879150390625	-4.547119140625	-1.7547607421875	
45	0.18	0.0	0.0	0.0	0.0	0.003	0.003	0.003	0.006	9.871891995239258	0.09816226806640624	0.07122749938964844	2.43377685546875	-3.780364990234375	-0.75531005859375	9.767145672607422	0.584185205078125	0.17298106994628906	0.789642333984375	-5.191802978515625	-3.53240966796875	9.97903251953125	0.469263525390625	-0.18435352783203124	2.61688232421875	-4.638671875	-1.743316650390625	
46	0.184	0.0	0.0	0.0	0.0	0.006	0.003	0.003	0.003	9.865906491088866	0.08499415893554688	0.06703764648437499	2.3193359375	-3.63922119140625	-0.827789306640625	9.767145672607422	0.5817910034179687	0.17597382202148437	0.873565673828125	-5.31768798828125	-3.34930419921875	9.976039767456054	0.4674678741455078	-0.18076222534179687	2.62451171875	-4.619598388671875	-1.88446044921875	
47	0.188	0.0	0.0	0.0	0.0	0.006	0.003	0.003	0.009000000000000001	9.861118087768554	0.061650692749023434	0.058657940673828124	2.628326416015625	-3.894805908203125	-0.86212158203125	9.773729727172851	0.55545478515625	0.1753752716064453	0.63323974609375	-5.10406494140625	-3.376007080078125	9.980229620361328	0.44053310546874996	-0.17178396911621094	2.90679931640625	-4.82940673828125	-1.97601318359375	
48	0.192	0.0	0.0	0.0	0.0	0.003	0.003	0.003	0.006	9.86291373901367	0.06045359191894531	0.06823474731445311	2.605438232421875	-3.490447998046875	-0.904083251953125	9.780912332153319	0.55545478515625	0.18435352783203124	0.507354736328125	-5.14984130859375	-3.398895263671875	9.983820922851562	0.4285620971679687	-0.18315642700195311	2.8076171875	-4.73785400390625	-1.9378662109375	
49	0.196	0.0	0.0	0.0	0.0	0.003	0.003	0.003	0.006	9.85632968444824	0.06344634399414062	0.08259995727539061	2.475738525390625	-3.47900390625	-0.774383544921875	9.777321029663085	0.5626373901367188	0.1753752716064453	0.919342041015625	-5.374908447265625	-3.444671630859375	9.982025271606444	0.44532150878906246	-0.1867477294921875	2.78472900390625	-4.558563232421875	-1.67083740234375	
50	0.2	0.0	0.0	0.0	0.0	0.003	0.003	0.003	0.003	9.87009634399414	0.05386953735351562	0.07841010437011718	2.574920654296875	-3.566741943359375	-0.9002685546875	9.777321029663085	0.5542576843261718	0.17357962036132812	0.57220458984375	-5.023956298828125	-3.330230712890625	9.97783541870117	0.44532150878906246	-0.1945288848876953	2.765655517578125	-4.848480224609375	-1.796722412109375	
51	0.20400000000000001	0.0	0.0	0.0	0.0	0.003	0.006	0.006	0.006	9.868899243164062	0.05327098693847656	0.07242460021972656	2.277374267578125	-3.84521484375	-0.72479248046875	9.78031378173828	0.5398924743652344	0.16340426330566404	0.530242919921875	-5.19561767578125	-3.387451171875	9.974244116210937	0.42975919799804685	-0.19931728820800781	2.819061279296875	-4.5013427734375	-1.678466796875	
52	0.20800000000000002	0.0	0.0	0.0	0.0	0.003	0.006	0.006	0.003	9.86411083984375	0.04668693237304687	0.08499415893554688	2.391815185546875	-4.02069091796875	-0.820159912109375	9.775525378417969	0.5410895751953124	0.16879121704101563	0.37384033203125	-5.130767822265625	-3.482818603515625	9.973047015380859	0.42497079467773435	-0.1849520782470703	2.910614013671875	-4.791259765625	-1.89971923828125	
53	0.212	0.0	0.0	0.0	0.0	0.003	0.006	0.003	0.003	9.853935482788085	0.0383072265625	0.08798691101074219	2.60162353515625	-3.795623779296875	-0.843048095703125	9.76774422302246	0.5279214660644531	0.181959326171875	0.7476806640625	-5.008697509765625	-3.47137451171875	9.982623822021484	0.41838674011230464	-0.18555062866210936	2.593994140625	-4.85992431640625	-1.766204833984375	
54	0.216	0.0	0.0	0.0	0.0	0.003	0.003	0.006	0.003	9.852139831542969	0.03531447448730469	0.08379705810546874	2.735137939453125	-3.849029541015625	-0.86212158203125	9.771934075927733	0.5279214660644531	0.17357962036132812	0.614166259765625	-4.962921142578125	-3.42559814453125	9.97783541870117	0.41539398803710936	-0.20231004028320312	2.681732177734375	-4.72259521484375	-1.739501953125	
55	0.22	0.0	0.0	0.0	0.0	0.003	0.006	0.003	0.003	9.859322436523437	0.01915361328125	0.07841010437011718	2.5634765625	-3.70025634765625	-0.896453857421875	9.781510882568359	0.5219359619140624	0.1693897674560547	0.66375732421875	-5.268096923828125	-3.3416748046875	9.97125136413574	0.411802685546875	-0.20231004028320312	2.55584716796875	-4.764556884765625	-1.708984375	
56	0.224	0.0	0.0	0.0	0.0	0.003	0.006	0.003	0.003	9.86411083984375	0.014963760375976562	0.076614453125	2.471923828125	-3.704071044921875	-0.736236572265625	9.78031378173828	0.5069722015380859	0.17238251953125	0.728607177734375	-5.0201416015625	-3.406524658203125	9.97184991455078	0.40880993347167965	-0.19033903198242186	2.81524658203125	-4.619598388671875	-1.7852783203125	
57	0.228	0.0	0.0	0.0	0.0	0.006	0.003	0.003	0.006	9.86411083984375	0.004189852905273437	0.08319850769042968	2.407073974609375	-3.7689208984375	-0.797271728515625	9.783905084228515	0.5039794494628906	0.181959326171875	0.461578369140625	-4.894256591796875	-3.3111572265625	9.980229620361328	0.39145197143554683	-0.18435352783203124	2.51007080078125	-4.764556884765625	-1.93023681640625	
58	0.232	0.0	0.0	0.0	0.0	0.0	0.003	0.003	0.006	9.868899243164062	0.008978256225585938	0.07362170104980469	2.471923828125	-3.803253173828125	-0.81634521484375	9.77432827758789	0.5027823486328125	0.17417817077636719	0.67138671875	-5.0048828125	-3.387451171875	9.980229620361328	0.3800795135498047	-0.19093758239746092	2.73895263671875	-4.43267822265625	-1.91497802734375	
59	0.23600000000000002	0.0	0.0	0.0	0.0	0.009000000000000001	0.003	0.006	0.006	9.872490545654296	0.002992752075195312	0.08020575561523437	2.51007080078125	-3.871917724609375	-0.759124755859375	9.779715231323241	0.5099649536132812	0.18435352783203124	0.5340576171875	-4.924774169921875	-3.482818603515625	9.97783541870117	0.39264907226562495	-0.181959326171875	2.46429443359375	-4.66156005859375	-1.86920166015625	
60	0.24	0.0	0.0	0.0	0.0	0.006	0.003	0.003	0.006	9.87069489440918	0.016759411621093748	0.08080430603027343	2.361297607421875	-3.452301025390625	-0.690460205078125	9.776722479248047	0.508169302368164	0.17836802368164062	0.42724609375	-5.05828857421875	-3.383636474609375	9.987412225341796	0.3920505218505859	-0.18435352783203124	2.559661865234375	-4.547119140625	-1.76239013671875	
61	0.244	0.0	0.0	0.0	0.0	0.003	0.006	0.003	0.003	9.865307940673828	0.006584054565429687	0.08200140686035155	2.471923828125	-3.936767578125	-0.698089599609375	9.776722479248047	0.5003881469726562	0.16819266662597654	0.5645751953125	-5.176544189453125	-3.387451171875	9.979631069946288	0.38247371520996093	-0.1945288848876953	2.69317626953125	-4.8980712890625	-2.033233642578125	
62	0.248	0.0	0.0	0.0	0.0	0.006	0.003	0.003	0.003	9.868300692749022	0.002992752075195312	0.06344634399414062	2.55584716796875	-3.719329833984375	-0.70953369140625	9.77432827758789	0.5033808990478515	0.17058686828613281	0.782012939453125	-5.2337646484375	-3.47137451171875	9.980229620361328	0.3842693664550781	-0.18315642700195311	2.96783447265625	-4.863739013671875	-1.796722412109375	
63	0.252	0.0	0.0	0.0	0.0	0.0	0.006	0.006	0.003	9.85692823486328	0.010773907470703125	0.06823474731445311	2.597808837890625	-3.627777099609375	-0.77056884765625	9.769539874267577	0.5147533569335937	0.17118541870117188	0.48065185546875	-5.0201416015625	-3.42559814453125	9.973047015380859	0.3968389251708984	-0.19093758239746092	2.658843994140625	-4.76837158203125	-1.926422119140625	
64	0.256	0.0	0.0	0.0	0.0	0.003	0.003	0.003	0.003	9.859920986938477	0.01915361328125	0.055066638183593745	2.353668212890625	-3.76129150390625	-0.782012939453125	9.779116680908203	0.5183446594238281	0.16879121704101563	0.568389892578125	-5.2337646484375	-3.475189208984375	9.975441217041014	0.4082113830566406	-0.1897404815673828	2.7313232421875	-4.673004150390625	-1.766204833984375	
65	0.26	0.0	0.0	0.0	0.0	0.003	0.006	0.006	0.003	9.87009634399414	0.028131869506835935	0.05985504150390625	2.719879150390625	-3.833770751953125	-0.95367431640625	9.779116680908203	0.5201403106689453	0.15682020874023436	0.87738037109375	-4.89044189453125	-3.322601318359375	9.981426721191406	0.41060558471679687	-0.1927332336425781	2.689361572265625	-4.57763671875	-1.56402587890625	
66	0.264	0.0	0.0	0.0	0.0	0.006	0.006	0.003	0.003	9.859322436523437	0.03890577697753906	0.059256491088867186	2.3651123046875	-3.8299560546875	-0.96893310546875	9.776722479248047	0.5351040710449219	0.15682020874023436	0.583648681640625	-5.18798828125	-3.37982177734375	9.97783541870117	0.4171896392822265	-0.20350714111328125	2.92205810546875	-4.512786865234375	-1.987457275390625	
67	0.268	0.0	0.0	0.0	0.0	0.003	0.003	0.003	0.009000000000000001	9.860519537353515	0.04848258361816406	0.06344634399414062	2.6702880859375	-3.60107421875	-0.77056884765625	9.773131176757811	0.5392939239501953	0.14484920043945312	0.80108642578125	-5.04302978515625	-3.44085693359375	9.968857162475585	0.42975919799804685	-0.19991583862304688	2.727508544921875	-4.72259521484375	-1.79290771484375	
68	0.272	0.0	0.0	0.0	0.0	0.006	0.006	0.003	0.006	9.86291373901367	0.062249243164062495	0.04548983154296875	2.407073974609375	-3.582000732421875	-0.713348388671875	9.780912332153319	0.5452794281005859	0.1484405029296875	0.591278076171875	-5.28717041015625	-3.41796875	9.974244116210937	0.4387374542236328	-0.22086510314941404	2.635955810546875	-4.673004150390625	-1.70135498046875	
69	0.276	0.0	0.0	0.0	0.0	0.003	0.003	0.006	0.006	9.867702142333984	0.06823474731445311	0.04369418029785156	2.50244140625	-4.093170166015625	-0.93841552734375	9.779715231323241	0.556053335571289	0.15382745666503905	0.690460205078125	-4.85992431640625	-3.261566162109375	9.983820922851562	0.45489831542968745	-0.2280477081298828	2.735137939453125	-4.718780517578125	-1.773834228515625	
70	0.28	0.0	0.0	0.0	0.0	0.003	0.003	0.003	0.003	9.862315188598632	0.06464344482421874	0.052073886108398436	2.300262451171875	-3.692626953125	-0.701904296875	9.773729727172851	0.5698199951171875	0.15502455749511718	0.75531005859375	-5.50079345703125	-3.4942626953125	9.973047015380859	0.4608838195800781	-0.23822306518554687	2.681732177734375	-4.718780517578125	-1.865386962890625	
71	0.28400000000000003	0.0	0.0	0.0	0.0	0.003	0.003	0.006	0.003	9.87727894897461	0.07422025146484375	0.04848258361816406	2.506256103515625	-3.719329833984375	-0.74005126953125	9.771934075927733	0.5787982513427734	0.1466448516845703	0.67138671875	-5.001068115234375	-3.42559814453125	9.975441217041014	0.46028526916503903	-0.2442085693359375	2.9754638671875	-4.608154296875	-1.880645751953125	
72	0.28800000000000003	0.0	0.0	0.0	0.0	0.003	0.006	0.003	0.006	9.866505041503906	0.08200140686035155	0.04848258361816406	2.674102783203125	-3.70025634765625	-0.701904296875	9.770138424682617	0.5829881042480468	0.14425065002441406	0.453948974609375	-4.8370361328125	-3.582000732421875	9.973645565795898	0.46686932373046874	-0.22685060729980466	2.574920654296875	-4.428863525390625	-1.834869384765625	
73	0.292	0.0	0.0	0.0	0.0	0.003	0.006	0.003	0.003	9.872490545654296	0.10175357055664062	0.04189852905273437	2.44903564453125	-3.864288330078125	-0.728607177734375	9.767145672607422	0.5859808563232421	0.15023615417480468	0.774383544921875	-5.092620849609375	-3.437042236328125	9.967061511230469	0.479438882446289	-0.22385785522460935	2.5787353515625	-4.66156005859375	-1.697540283203125	
74	0.296	0.0	0.0	0.0	0.0	0.003	0.003	0.006	0.006	9.867702142333984	0.0987608184814453	0.0383072265625	2.47955322265625	-3.749847412109375	-0.934600830078125	9.779116680908203	0.5919663604736328	0.14963760375976562	0.4730224609375	-4.96673583984375	-3.383636474609375	9.97843396911621	0.4740519287109375	-0.22026655273437498	2.735137939453125	-4.718780517578125	-1.895904541015625	
75	0.3	0.0	0.0	0.0	0.0	0.006	0.003	0.006	0.006	9.87009634399414	0.0987608184814453	0.032920272827148434	2.498626708984375	-3.589630126953125	-0.8544921875	9.779715231323241	0.5919663604736328	0.15442600708007811	0.48828125	-5.218505859375	-3.376007080078125	9.982623822021484	0.47105917663574215	-0.21487959899902342	2.597808837890625	-4.78363037109375	-1.819610595703125	
76	0.304	0.0	0.0	0.0	0.0	0.006	0.006	0.006	0.003	9.85752678527832	0.09935936889648436	0.04249707946777344	2.5177001953125	-3.76129150390625	-0.705718994140625	9.775525378417969	0.5913678100585937	0.15741875915527342	0.736236572265625	-5.374908447265625	-3.345489501953125	9.981426721191406	0.4752490295410156	-0.21068974609375	2.655029296875	-4.627227783203125	-1.86920166015625	
77	0.308	0.0	0.0	0.0	0.0	0.006	0.003	0.003	0.003	9.85692823486328	0.10235212097167969	0.047884033203124995	2.44140625	-3.7841796875	-0.621795654296875	9.767145672607422	0.5991489654541016	0.15203180541992187	0.60272216796875	-4.825592041015625	-3.387451171875	9.968258612060547	0.48542438659667964	-0.19333178405761717	2.38037109375	-4.638671875	-1.895904541015625	
78	0.312	0.0	0.0	0.0	0.0	0.006	0.006	0.003	0.006	9.866505041503906	0.10295067138671875	0.055066638183593745	2.57110595703125	-3.696441650390625	-0.804901123046875	9.76175871887207	0.5943605621337891	0.1592144104003906	0.69427490234375	-5.023956298828125	-3.406524658203125	9.974244116210937	0.4842272857666015	-0.18914193115234373	2.559661865234375	-4.642486572265625	-1.85394287109375	
79	0.316	0.0	0.0	0.0	0.0	0.006	0.003	0.006	0.003	9.862315188598632	0.09696516723632811	0.04848258361816406	2.666473388671875	-3.662109375	-0.713348388671875	9.772532626342773	0.5913678100585937	0.16819266662597654	0.850677490234375	-4.9896240234375	-3.368377685546875	9.967061511230469	0.47764323120117186	-0.19093758239746092	2.735137939453125	-4.772186279296875	-1.70135498046875	
80	0.32	0.0	0.0	0.0	0.0	0.003	0.006	0.006	0.003	9.874884747314452	0.09995791931152344	0.04967968444824218	2.532958984375	-3.59344482421875	-0.690460205078125	9.77492682800293	0.5865794067382812	0.16998831787109375	0.69427490234375	-4.9591064453125	-3.22723388671875	9.97184991455078	0.47704468078613277	-0.1897404815673828	2.66265869140625	-4.791259765625	-1.922607421875	
81	0.324	0.0	0.0	0.0	0.0	0.003	0.003	0.003	0.003	9.874884747314452	0.09277531433105468	0.055066638183593745	2.49481201171875	-3.74603271484375	-0.823974609375	9.776722479248047	0.5859808563232421	0.16759411621093748	0.38909912109375	-5.05828857421875	-3.35693359375	9.975441217041014	0.4752490295410156	-0.19931728820800781	2.87628173828125	-4.53948974609375	-1.708984375	
82	0.328	0.0	0.0	0.0	0.0	0.006	0.006	0.006	0.006	9.868899243164062	0.09516951599121093	0.055066638183593745	2.498626708984375	-3.89862060546875	-0.98419189453125	9.779116680908203	0.5877765075683593	0.17477672119140625	0.83160400390625	-4.8980712890625	-3.5858154296875	9.976638317871092	0.4722562774658203	-0.20470424194335937	2.7923583984375	-4.69207763671875	-1.651763916015625	
83	0.332	0.0	0.0	0.0	0.0	0.003	0.006	0.006	0.006	9.8694977935791	0.08918401184082031	0.06045359191894531	2.57110595703125	-3.82232666015625	-0.827789306640625	9.769539874267577	0.5829881042480468	0.17836802368164062	0.35858154296875	-4.95147705078125	-3.30352783203125	9.973047015380859	0.4704606262207031	-0.19632453613281248	2.685546875	-4.7149658203125	-1.91497802734375	
84	0.336	0.0	0.0	0.0	0.0	0.006	0.003	0.003	0.003	9.859322436523437	0.08439560852050781	0.07900865478515624	2.407073974609375	-3.65447998046875	-0.9307861328125	9.771934075927733	0.5787982513427734	0.17417817077636719	0.560760498046875	-5.008697509765625	-3.34930419921875	9.97184991455078	0.4722562774658203	-0.19512743530273435	3.025054931640625	-4.535675048828125	-1.79290771484375	
85	0.34	0.0	0.0	0.0	0.0	0.009000000000000001	0.006	0.003	0.006	9.858125335693359	0.06763619689941405	0.0652419952392578	2.4566650390625	-3.60870361328125	-0.797271728515625	9.773131176757811	0.5710170959472656	0.1771709228515625	0.621795654296875	-5.130767822265625	-3.22723388671875	9.97184991455078	0.46208092041015625	-0.19093758239746092	2.685546875	-4.680633544921875	-1.552581787109375	
86	0.34400000000000003	0.0	0.0	0.0	0.0	0.003	0.003	0.006	0.003	9.868300692749022	0.07003039855957031	0.06284779357910156	2.689361572265625	-3.734588623046875	-0.77056884765625	9.770736975097655	0.5680243438720702	0.17178396911621094	0.51116943359375	-5.115509033203125	-3.3721923828125	9.984419473266602	0.45489831542968745	-0.17956512451171874	2.7923583984375	-4.444122314453125	-1.705169677734375	
87	0.34800000000000003	0.0	0.0	0.0	0.0	0.0	0.006	0.003	0.006	9.874286196899414	0.06404489440917968	0.06763619689941405	2.54058837890625	-3.955841064453125	-0.9002685546875	9.777321029663085	0.5620388397216797	0.16879121704101563	0.72479248046875	-4.974365234375	-3.566741943359375	9.98561657409668	0.4447229583740234	-0.18914193115234373	2.60162353515625	-4.72259521484375	-1.80816650390625	
88	0.352	0.0	0.0	0.0	0.0	0.006	0.006	0.006	0.006	9.861118087768554	0.05626373901367187	0.06883329772949218	2.6092529296875	-3.635406494140625	-0.751495361328125	9.7683427734375	0.5584475372314452	0.16759411621093748	0.86212158203125	-5.1422119140625	-3.509521484375	9.986215124511718	0.4267664459228515	-0.19213468322753904	2.712249755859375	-4.642486572265625	-1.51824951171875	
89	0.356	0.0	0.0	0.0	0.0	0.006	0.006	0.006	0.003	9.867702142333984	0.0383072265625	0.08140285644531249	2.254486083984375	-3.62396240234375	-0.682830810546875	9.773729727172851	0.5404910247802734	0.16819266662597654	0.553131103515625	-4.92095947265625	-3.5247802734375	9.982623822021484	0.41359833679199215	-0.18854338073730467	2.74658203125	-4.5623779296875	-1.73187255859375	
90	0.36	0.0	0.0	0.0	0.0	0.009000000000000001	0.003	0.006	0.003	9.86411083984375	0.03591302490234375	0.08319850769042968	2.5634765625	-3.696441650390625	-0.896453857421875	9.779116680908203	0.526125814819336	0.17357962036132812	0.385284423828125	-4.955291748046875	-3.208160400390625	9.980828170776366	0.40940848388671874	-0.18914193115234373	2.67791748046875	-4.535675048828125	-1.800537109375	
91	0.364	0.0	0.0	0.0	0.0	0.003	0.006	0.006	0.0	9.865906491088866	0.03411737365722656	0.08738836059570312	2.597808837890625	-3.887176513671875	-1.1138916015625	9.776123928833007	0.5231330627441406	0.17597382202148437	0.507354736328125	-5.035400390625	-3.5552978515625	9.982623822021484	0.40282442932128903	-0.17238251953125	2.5482177734375	-4.703521728515625	-1.781463623046875	
92	0.368	0.0	0.0	0.0	0.0	0.003	0.006	0.003	0.003	9.87727894897461	0.02693476867675781	0.08319850769042968	2.643585205078125	-3.963470458984375	-0.77056884765625	9.77492682800293	0.5183446594238281	0.1693897674560547	0.522613525390625	-5.130767822265625	-3.45611572265625	9.982623822021484	0.39863457641601563	-0.1849520782470703	2.506256103515625	-4.787445068359375	-1.712799072265625	
93	0.372	0.0	0.0	0.0	0.0	0.006	0.006	0.006	0.006	9.861716638183593	0.008379705810546874	0.07362170104980469	2.422332763671875	-3.7994384765625	-0.90789794921875	9.770736975097655	0.5207388610839844	0.18076222534179687	0.43487548828125	-4.993438720703125	-3.37982177734375	9.97903251953125	0.38786066894531246	-0.18076222534179687	2.6092529296875	-4.4403076171875	-1.7242431640625	
94	0.376	0.0	0.0	0.0	0.0	0.006	0.006	0.006	0.003	9.865307940673828	0.004189852905273437	0.06763619689941405	2.4261474609375	-3.662109375	-0.8697509765625	9.773729727172851	0.5045779998779296	0.1849520782470703	0.606536865234375	-5.084991455078125	-3.27301025390625	9.975441217041014	0.3848679168701172	-0.17357962036132812	2.803802490234375	-4.581451416015625	-1.88446044921875	
95	0.38	0.0	0.0	0.0	0.0	0.003	0.003	0.006	0.0	9.860519537353515	0.0017956512451171875	0.07721300354003906	2.506256103515625	-3.68499755859375	-0.797271728515625	9.772532626342773	0.5033808990478515	0.18136077575683593	0.614166259765625	-5.214691162109375	-3.490447998046875	9.97783541870117	0.3890577697753906	-0.16998831787109375	2.758026123046875	-4.8065185546875	-1.678466796875	
96	0.384	0.0	0.0	0.0	0.0	0.006	0.003	0.006	0.006	9.867702142333984	-0.0047884033203125	0.07601590270996093	2.38037109375	-3.7078857421875	-0.911712646484375	9.773729727172851	0.4991910461425781	0.16998831787109375	0.48828125	-5.01251220703125	-3.559112548828125	9.980229620361328	0.3794809631347656	-0.17836802368164062	2.75421142578125	-4.69970703125	-1.89971923828125	
97	0.388	0.0	0.0	0.0	0.0	0.003	0.006	0.003	0.006	9.867103591918944	0.0047884033203125	0.06105214233398437	2.7313232421875	-3.940582275390625	-0.81634521484375	9.779715231323241	0.49679684448242184	0.17058686828613281	1.03759765625	-4.924774169921875	-3.536224365234375	9.983820922851562	0.38845921936035155	-0.17477672119140625	2.811431884765625	-4.63104248046875	-1.850128173828125	
98	0.392	0.0	0.0	0.0	0.0	0.006	0.003	0.006	0.006	9.8694977935791	-0.0017956512451171875	0.05805939025878906	2.49481201171875	-3.91387939453125	-0.885009765625	9.773131176757811	0.5033808990478515	0.1657984649658203	0.5950927734375	-5.290985107421875	-3.292083740234375	9.986215124511718	0.3896563201904297	-0.19033903198242186	2.74658203125	-4.810333251953125	-1.953125	
99	0.396	0.0	0.0	0.0	0.0	0.003	0.006	0.003	0.009000000000000001	9.875483297729492	0.0047884033203125	0.05087678527832031	2.620697021484375	-3.6163330078125	-0.873565673828125	9.773131176757811	0.5057751007080078	0.16998831787109375	0.640869140625	-5.352020263671875	-3.391265869140625	9.97903251953125	0.39264907226562495	-0.19812018737792966	2.803802490234375	-4.924774169921875	-1.8463134765625	
100	0.4	0.0	0.0	0.0	0.0	0.006	0.006	0.003	0.003	9.867702142333984	0.007781155395507812	0.06045359191894531	2.620697021484375	-3.925323486328125	-0.8087158203125	9.78031378173828	0.5141548065185546	0.16639701538085935	0.606536865234375	-5.062103271484375	-3.22723388671875	9.974244116210937	0.40402153015136716	-0.19033903198242186	2.643585205078125	-4.604339599609375	-1.781463623046875	
101	0.404	0.0	0.0	0.0	0.0	0.003	0.003	0.003	0.006	9.8694977935791	0.016759411621093748	0.06045359191894531	2.4261474609375	-3.47137451171875	-0.8087158203125	9.775525378417969	0.5201403106689453	0.16699556579589842	0.5645751953125	-5.184173583984375	-3.376007080078125	9.97843396911621	0.4070142822265625	-0.20231004028320312	2.712249755859375	-4.608154296875	-1.83868408203125	
102	0.40800000000000003	0.0	0.0	0.0	0.0	0.006	0.003	0.006	0.006	9.865307940673828	0.02693476867675781	0.05087678527832031	2.521514892578125	-3.692626953125	-0.732421875	9.778518130493163	0.5237316131591797	0.1514332550048828	0.57220458984375	-4.79888916015625	-3.53240966796875	9.975441217041014	0.39983167724609375	-0.21248539733886718	2.60162353515625	-4.634857177734375	-1.590728759765625	
103	0.41200000000000003	0.0	0.0	0.0	0.0	0.003	0.003	0.003	0.003	9.867702142333984	0.029328970336914062	0.05686228942871093	2.4261474609375	-3.92913818359375	-0.78582763671875	9.78031378173828	0.5219359619140624	0.14425065002441406	0.46539306640625	-4.82177734375	-3.314971923828125	9.975441217041014	0.4112041351318359	-0.2184709014892578	2.899169921875	-4.650115966796875	-1.865386962890625	
104	0.41600000000000004	0.0	0.0	0.0	0.0	0.003	0.003	0.006	0.006	9.86411083984375	0.0430956298828125	0.05805939025878906	2.559661865234375	-3.650665283203125	-0.759124755859375	9.77492682800293	0.5374982727050781	0.13467384338378904	0.48065185546875	-4.669189453125	-3.261566162109375	9.982623822021484	0.4171896392822265	-0.22565350646972654	2.666473388671875	-4.64630126953125	-1.766204833984375	
105	0.42	0.0	0.0	0.0	0.0	0.003	0.003	0.003	0.009000000000000001	9.85692823486328	0.05386953735351562	0.04608838195800781	2.471923828125	-3.612518310546875	-0.675201416015625	9.779116680908203	0.5446808776855468	0.14185644836425781	0.72479248046875	-5.13458251953125	-3.353118896484375	9.983820922851562	0.4285620971679687	-0.21966800231933592	2.81524658203125	-4.787445068359375	-1.86920166015625	
106	0.424	0.0	0.0	0.0	0.0	0.0	0.006	0.003	0.006	9.868899243164062	0.05805939025878906	0.054468087768554684	2.574920654296875	-3.84521484375	-0.858306884765625	9.78031378173828	0.5530605834960938	0.14963760375976562	0.652313232421875	-4.96673583984375	-3.4637451171875	9.973047015380859	0.4429273071289062	-0.21906945190429686	2.567291259765625	-4.638671875	-1.712799072265625	
107	0.428	0.0	0.0	0.0	0.0	0.003	0.006	0.003	0.003	9.859920986938477	0.0652419952392578	0.044891281127929686	2.47955322265625	-3.7689208984375	-0.7781982421875	9.777919580078125	0.5524620330810547	0.15502455749511718	0.560760498046875	-5.10406494140625	-3.261566162109375	9.976638317871092	0.4483142608642578	-0.22206220397949217	2.742767333984375	-4.505157470703125	-1.85394287109375	
108	0.432	0.0	0.0	0.0	0.0	0.003	0.003	0.003	0.006	9.858125335693359	0.06584054565429687	0.055066638183593745	2.44140625	-3.68499755859375	-0.79345703125	9.779116680908203	0.565031591796875	0.1580173095703125	0.58746337890625	-5.008697509765625	-3.28826904296875	9.976039767456054	0.4429273071289062	-0.20470424194335937	2.655029296875	-4.444122314453125	-1.689910888671875	
109	0.436	0.0	0.0	0.0	0.0	0.006	0.006	0.006	0.006	9.86351228942871	0.06344634399414062	0.05386953735351562	2.437591552734375	-3.704071044921875	-0.812530517578125	9.781510882568359	0.5626373901367188	0.14484920043945312	0.8392333984375	-5.27191162109375	-3.490447998046875	9.976638317871092	0.46148236999511716	-0.20769699401855468	2.6702880859375	-4.66156005859375	-1.71661376953125	
110	0.44	0.0	0.0	0.0	0.0	0.003	0.003	0.006	0.003	9.85752678527832	0.09696516723632811	0.022744915771484374	2.735137939453125	-3.940582275390625	-0.736236572265625	9.752780462646484	0.5548562347412109	0.1640028137207031	0.6103515625	-5.08880615234375	-3.597259521484375	9.961674557495117	0.4147954376220703	-0.17896657409667968	2.536773681640625	-4.53948974609375	-1.804351806640625	
111	0.444	0.0	0.0	0.0	0.0	0.006	0.003	0.003	0.003	9.872490545654296	0.12449848632812499	0.05327098693847656	2.61688232421875	-3.849029541015625	-0.835418701171875	9.767145672607422	0.6721721160888672	0.14724340209960937	0.736236572265625	-5.092620849609375	-3.45611572265625	9.951499200439452	0.5578489868164063	-0.1897404815673828	2.7008056640625	-4.5928955078125	-1.644134521484375	
112	0.448	0.0	0.0	0.0	0.0	0.003	0.006	0.006	0.006	9.8449572265625	0.08499415893554688	0.05027823486328125	2.796173095703125	-3.993988037109375	-0.782012939453125	9.772532626342773	0.4950011932373047	0.16041151123046873	0.5035400390625	-5.01251220703125	-3.24249267578125	9.928754284667969	0.43454760131835934	-0.12988544006347655	2.6092529296875	-4.573822021484375	-1.62506103515625	
113	0.452	0.0	0.0	0.0	0.0	0.006	0.003	0.006	0.003	9.873089096069336	0.1083376251220703	0.06763619689941405	2.658843994140625	-4.001617431640625	-0.988006591796875	9.764751470947266	0.5985504150390625	0.17298106994628906	0.400543212890625	-4.92095947265625	-3.692626953125	9.950900650024414	0.4608838195800781	-0.17776947326660156	2.674102783203125	-4.535675048828125	-2.086639404296875	
114	0.456	0.0	0.0	0.0	0.0	0.006	0.003	0.003	0.003	9.890447058105469	0.08319850769042968	0.03411737365722656	2.26593017578125	-3.787994384765625	-0.7171630859375	9.778518130493163	0.6643909606933593	0.1514332550048828	0.415802001953125	-5.107879638671875	-3.337860107421875	9.950302099609374	0.5781997009277343	-0.11432312927246092	2.838134765625	-4.63104248046875	-1.651763916015625	
115	0.46	0.0	0.0	0.0	0.0	0.006	0.006	0.003	0.003	9.873089096069336	0.11552023010253906	0.09277531433105468	2.84576416015625	-3.864288330078125	-0.766754150390625	9.746794958496093	0.5722141967773438	0.17238251953125	0.823974609375	-5.008697509765625	-3.5552978515625	9.952696301269532	0.44053310546874996	-0.1753752716064453	2.704620361328125	-4.70733642578125	-1.865386962890625	
116	0.464	0.0	0.0	0.0	0.0	0.003	0.006	0.003	0.006	9.9078050201416	0.03411737365722656	0.0526724365234375	2.330780029296875	-3.90625	-0.934600830078125	9.767145672607422	0.5482721801757812	0.1484405029296875	0.637054443359375	-4.913330078125	-3.498077392578125	9.928754284667969	0.41419688720703124	-0.09516951599121093	2.69317626953125	-4.49371337890625	-1.7852783203125	
117	0.468	0.0	0.0	0.0	0.0	0.003	0.003	0.003	0.006	9.883264453125	0.21487959899902342	0.08140285644531249	2.696990966796875	-3.662109375	-0.83160400390625	9.811438403320311	0.5901707092285156	0.12030863342285156	0.54168701171875	-4.909515380859375	-3.31878662109375	10.04846436767578	0.47884033203125	-0.2753331909179687	2.58636474609375	-4.7454833984375	-1.77001953125	
118	0.47200000000000003	0.0	0.0	0.0	0.0	0.006	0.003	0.006	0.003	9.888651406860351	0.08200140686035155	0.07302315063476562	2.32696533203125	-3.57818603515625	-0.659942626953125	9.755773214721678	0.584185205078125	0.16340426330566404	0.5340576171875	-5.33294677734375	-3.261566162109375	9.886855755615233	0.48662148742675776	-0.06464344482421874	2.70843505859375	-4.497528076171875	-1.45721435546875	
119	0.47600000000000003	0.0	0.0	0.0	0.0	0.006	0.003	0.003	0.006	9.909600671386718	-0.05327098693847656	0.022744915771484374	2.513885498046875	-3.509521484375	-0.858306884765625	9.792284790039062	0.46148236999511716	0.1322796417236328	0.67901611328125	-5.05828857421875	-3.520965576171875	10.053252770996092	0.2914940521240234	-0.2753331909179687	2.574920654296875	-4.57000732421875	-1.995086669921875	
120	0.48	0.0	0.0	0.0	0.0	0.003	0.003	0.003	0.006	9.916783276367187	0.07422025146484375	0.05805939025878906	2.292633056640625	-3.620147705078125	-0.9765625	9.744999307250977	0.6889315277099609	0.2507926239013672	0.6103515625	-5.237579345703125	-3.498077392578125	10.006565838623047	0.6434416961669921	-0.23104046020507812	2.86102294921875	-4.82177734375	-1.857757568359375	
121	0.484	0.0	0.0	0.0	0.0	0.006	0.006	0.003	0.006	9.911396322631836	-0.037110125732421874	0.013766659545898436	2.47955322265625	-3.780364990234375	-0.86212158203125	9.787496386718749	0.5213374114990235	0.12868833923339842	0.51116943359375	-5.062103271484375	-3.47900390625	10.032902056884765	0.37289690856933594	-0.2567781280517578	2.536773681640625	-4.405975341796875	-1.819610595703125	
122	0.488	0.0	0.0	0.0	0.0	0.006	0.006	0.006	0.006	9.890447058105469	0.013766659545898436	0.03890577697753906	3.009796142578125	-4.077911376953125	-0.659942626953125	9.726444244384766	0.5746083984375	0.2609679809570312	0.43487548828125	-5.28717041015625	-3.35693359375	9.965265859985351	0.51714755859375	-0.20649989318847656	2.87628173828125	-4.69207763671875	-1.842498779296875	
123	0.492	0.0	0.0	0.0	0.0	0.006	0.006	0.006	0.006	9.937133990478515	-0.06763619689941405	-0.02154781494140625	2.532958984375	-3.795623779296875	-0.90789794921875	9.886257205200195	0.4225765930175781	0.05626373901367187	0.66375732421875	-5.0201416015625	-3.3721923828125	10.077793338012695	0.33698388366699217	-0.31184476623535157	2.7618408203125	-4.67681884765625	-1.873016357421875	
124	0.496	0.0	0.0	0.0	0.0	0.006	0.006	0.006	0.006	9.77432827758789	0.19572598571777342	0.17298106994628906	2.887725830078125	-4.1351318359375	-0.6256103515625	9.737816702270507	0.6536170532226562	0.2693476867675781	0.640869140625	-4.96673583984375	-3.021240234375	9.986813674926758	0.6536170532226562	-0.21787235107421873	2.674102783203125	-4.5623779296875	-1.476287841796875	
125	0.5	0.0	0.0	0.0	0.0	0.003	0.003	0.003	0.003	9.922768780517577	-0.12808978881835936	0.00718260498046875	2.73895263671875	-3.57818603515625	-0.90789794921875	9.87727894897461	0.34536358947753903	0.08200140686035155	0.644683837890625	-4.89044189453125	-3.368377685546875	10.065822329711914	0.24121581726074218	-0.2980781066894531	2.93731689453125	-4.718780517578125	-1.796722412109375	
126	0.504	0.0	0.0	0.0	0.0	0.006	0.003	0.003	0.006	9.778518130493163	0.15442600708007811	0.17597382202148437	2.712249755859375	-3.932952880859375	-0.675201416015625	9.731232647705077	0.7206546997070312	0.25258827514648435	0.86212158203125	-4.95147705078125	-3.505706787109375	10.005368737792969	0.6410474945068358	-0.23642741394042968	2.62451171875	-4.650115966796875	-1.9989013671875	
127	0.508	0.0	0.0	0.0	0.0	0.003	0.003	0.006	0.003	9.866505041503906	-0.0796072052001953	0.12509703674316405	1.93023681640625	-3.4027099609375	-0.83160400390625	9.90122096557617	0.4010287780761719	0.04908113403320312	0.637054443359375	-5.008697509765625	-3.185272216796875	10.097545501708984	0.29927520751953124	-0.3190273712158203	3.0059814453125	-4.547119140625	-1.422882080078125	
128	0.512	0.0	0.0	0.0	0.0	0.006	0.003	0.006	0.0	9.764152920532226	0.11611878051757812	0.2041056915283203	2.834320068359375	-3.993988037109375	-0.675201416015625	9.696516723632811	0.6913257293701172	0.29927520751953124	0.514984130859375	-4.92095947265625	-3.2501220703125	9.898826763916015	0.5608417388916015	-0.09816226806640624	2.61688232421875	-4.90570068359375	-1.8157958984375	
129	0.516	0.0	0.0	0.0	0.0	0.006	0.006	0.003	0.006	9.851541281127929	-0.11432312927246092	0.15981296081542967	1.94549560546875	-3.2501220703125	-0.7781982421875	9.920973129272461	0.3842693664550781	0.03411737365722656	0.492095947265625	-4.940032958984375	-3.62396240234375	10.111312161254883	0.2454056701660156	-0.3232172241210937	2.7618408203125	-4.779815673828125	-1.71661376953125	
130	0.52	0.0	0.0	0.0	0.0	0.006	0.006	0.006	0.006	9.76116016845703	0.1274912384033203	0.19333178405761717	2.574920654296875	-3.696441650390625	-0.659942626953125	9.724648593139648	0.7787140899658203	0.2615665313720703	0.732421875	-5.336761474609375	-3.4027099609375	9.93354268798828	0.6159083770751953	-0.12449848632812499	2.4566650390625	-4.6539306640625	-1.93023681640625	
131	0.524	0.0	0.0	0.0	0.0	0.006	0.006	0.003	0.006	9.826402163696288	-0.1274912384033203	0.16041151123046873	1.64031982421875	-3.22723388671875	-0.553131103515625	9.78629928588867	0.3800795135498047	0.16998831787109375	0.6866455078125	-5.077362060546875	-3.37982177734375	9.95389340209961	0.2292448089599609	-0.19692308654785154	2.7923583984375	-4.779815673828125	-1.651763916015625	
132	0.528	0.0	0.0	0.0	0.0	0.006	0.003	0.003	0.006	9.815628256225585	0.06344634399414062	-0.0047884033203125	1.80816650390625	-3.314971923828125	-0.965118408203125	9.694122521972655	0.7661445312499999	0.29388825378417965	0.514984130859375	-4.924774169921875	-3.398895263671875	9.89583401184082	0.5853823059082031	-0.11133037719726561	2.559661865234375	-4.833221435546875	-1.9683837890625	
133	0.532	0.0	0.0	0.0	0.0	0.0	0.006	0.003	0.006	9.839570272827148	-0.07122749938964844	0.14185644836425781	1.567840576171875	-3.177642822265625	-0.629425048828125	9.816226806640625	0.412401235961914	0.14305354919433594	0.484466552734375	-5.130767822265625	-3.28826904296875	9.975441217041014	0.28730419921875	-0.23104046020507812	2.7618408203125	-4.84466552734375	-1.865386962890625	
134	0.536	0.0	0.0	0.0	0.0	-0.003	0.003	0.006	0.006	9.83897172241211	0.08259995727539061	-0.01975216369628906	1.766204833984375	-3.269195556640625	-1.018524169921875	9.679757312011718	0.5787982513427734	0.19692308654785154	0.698089599609375	-5.077362060546875	-3.54766845703125	9.890447058105469	0.36631285400390623	-0.13826514587402344	2.3193359375	-4.497528076171875	-2.0599365234375	
135	0.54	0.0	0.0	0.0	0.0	0.006	0.006	0.006	0.003	9.81862100830078	-0.0718260498046875	0.16639701538085935	2.719879150390625	-4.016876220703125	-0.743865966796875	9.804255798339844	0.34835634155273437	0.1322796417236328	0.5950927734375	-5.069732666015625	-3.406524658203125	9.954491952514648	0.2059013427734375	-0.21787235107421873	2.72369384765625	-5.100250244140625	-1.65557861328125	
136	0.544	0.0	0.0	0.0	0.0	0.006	0.006	0.003	0.003	9.83777462158203	0.13347674255371092	-0.03411737365722656	2.124786376953125	-3.437042236328125	-1.178741455078125	9.688137017822266	0.6290764862060546	0.1897404815673828	0.400543212890625	-5.184173583984375	-3.795623779296875	9.89523546142578	0.4112041351318359	-0.13108254089355467	2.716064453125	-4.703521728515625	-2.300262451171875	
137	0.548	0.0	0.0	0.0	0.0	0.003	0.006	0.003	0.003	9.87727894897461	0.1849520782470703	-0.12330138549804687	2.70843505859375	-3.917694091796875	-1.049041748046875	9.718663088989258	0.4387374542236328	0.11013327636718749	0.48065185546875	-5.05828857421875	-3.108978271484375	9.967061511230469	0.19033903198242186	-0.23822306518554687	2.7618408203125	-4.791259765625	-1.453399658203125	
138	0.552	0.0	0.0	0.0	0.0	0.003	0.006	0.006	0.003	9.839570272827148	0.13168109130859373	-0.040701428222656245	2.223968505859375	-3.25775146484375	-1.25885009765625	9.648632690429688	0.5979518646240234	0.19871873779296872	0.728607177734375	-4.87518310546875	-3.910064697265625	9.874286196899414	0.32142157287597656	-0.12210428466796874	2.29644775390625	-4.512786865234375	-2.117156982421875	
139	0.556	0.0	0.0	0.0	0.0	0.006	0.006	0.003	0.003	9.898826763916015	0.17238251953125	-0.12808978881835936	2.941131591796875	-3.833770751953125	-0.812530517578125	9.707290631103515	0.46627077331542965	0.11013327636718749	0.77056884765625	-4.985809326171875	-3.131866455078125	9.83777462158203	0.4584896179199218	-0.020350714111328123	2.67791748046875	-4.680633544921875	-1.316070556640625	
140	0.56	0.0	0.0	0.0	0.0	0.009000000000000001	0.003	0.003	0.006	9.910199221801758	0.03232172241210937	0.037708676147460936	4.070281982421875	-4.730224609375	-0.86212158203125	9.81862100830078	0.44113165588378905	0.08140285644531249	0.255584716796875	-4.82940673828125	-3.448486328125	9.865906491088866	0.3603273498535156	-0.09636661682128905	2.162933349609375	-4.451751708984375	-1.91497802734375	
141	0.5640000000000001	0.0	0.0	0.0	0.0	0.003	0.003	0.006	0.006	9.906607919311522	0.1322796417236328	-0.15023615417480468	2.582550048828125	-4.116058349609375	-0.797271728515625	9.6917283203125	0.4255693450927734	0.13407529296874998	0.629425048828125	-5.10406494140625	-3.204345703125	9.821015209960937	0.40282442932128903	0.016160861206054686	2.727508544921875	-4.6844482421875	-1.621246337890625	
142	0.5680000000000001	0.0	0.0	0.0	0.0	0.006	0.006	0.006	0.006	9.882067352294921	0.00239420166015625	0.05686228942871093	4.00543212890625	-4.6539306640625	-0.743865966796875	9.794678991699218	0.4471171600341797	0.1149216796875	0.396728515625	-4.802703857421875	-3.574371337890625	10.153809240722655	0.25258827514648435	-0.43035774841308594	2.99835205078125	-4.634857177734375	-1.91497802734375	
143	0.5720000000000001	0.0	0.0	0.0	0.0	0.003	0.006	0.006	0.003	9.925162982177733	0.12868833923339842	-0.15981296081542967	2.69317626953125	-4.02069091796875	-0.934600830078125	9.807847100830077	0.7074865905761718	0.18435352783203124	0.46539306640625	-5.279541015625	-3.131866455078125	9.8311905670166	0.44532150878906246	0.032920272827148434	2.52532958984375	-4.76837158203125	-1.36566162109375	
144	0.5760000000000001	0.0	0.0	0.0	0.0	0.003	0.003	0.003	0.003	9.886855755615233	-0.05386953735351562	0.05566518859863281	3.757476806640625	-4.730224609375	-0.713348388671875	9.80066449584961	0.4471171600341797	0.11073182678222655	0.583648681640625	-4.82940673828125	-3.83758544921875	10.162787496948242	0.23582886352539062	-0.4285620971679687	2.86865234375	-4.604339599609375	-1.911163330078125	
145	0.58	0.0	0.0	0.0	0.0	0.003	0.006	0.003	0.006	9.816226806640625	0.061650692749023434	0.27293898925781246	2.288818359375	-3.71551513671875	-0.54931640625	9.80724855041504	0.6787561706542968	0.1753752716064453	0.67901611328125	-5.336761474609375	-3.16619873046875	10.01733974609375	0.824203921508789	-0.2855085479736328	2.948760986328125	-4.718780517578125	-1.636505126953125	
146	0.584	0.0	0.0	0.0	0.0	0.003	0.006	0.003	0.003	9.877877499389648	-0.06883329772949218	0.05985504150390625	3.826141357421875	-4.5318603515625	-0.885009765625	9.961076007080077	0.32501287536621093	-0.03651157531738281	1.102447509765625	-5.023956298828125	-3.620147705078125	10.184933862304687	0.29269115295410153	-0.4417302062988281	3.101348876953125	-4.734039306640625	-1.758575439453125	
147	0.588	0.0	0.0	0.0	0.0	0.0	0.006	0.006	0.003	9.801861596679688	0.10474632263183593	0.30466216125488277	2.170562744140625	-3.566741943359375	-0.3662109375	9.798868844604492	0.7188590484619141	0.17417817077636719	0.42724609375	-5.298614501953125	-3.345489501953125	10.036493359375	0.8744821563720703	-0.2932897033691406	2.838134765625	-4.634857177734375	-1.453399658203125	
148	0.592	0.0	0.0	0.0	0.0	0.006	0.003	0.003	0.006	9.87009634399414	-0.12449848632812499	0.058657940673828124	0.244140625	-2.521514892578125	-0.7781982421875	9.97125136413574	0.2693476867675781	-0.017956512451171875	0.78582763671875	-4.67681884765625	-3.41796875	10.173561404418944	0.2184709014892578	-0.38307226562499996	2.628326416015625	-4.63104248046875	-2.025604248046875	
149	0.596	0.0	0.0	0.0	0.0	0.003	0.003	0.003	0.006	9.7928833404541	0.1304839904785156	0.3016694091796875	2.01416015625	-3.414154052734375	-0.4425048828125	9.803058697509766	0.7577648254394531	0.16340426330566404	0.57220458984375	-5.023956298828125	-3.35693359375	10.037690460205077	0.9241618408203125	-0.2825157958984375	2.87628173828125	-4.49371337890625	-1.53350830078125	
150	0.6	0.0	0.0	0.0	0.0	0.003	0.006	0.003	0.003	9.93294413757324	-0.33578678283691404	0.07302315063476562	0.087738037109375	-2.18963623046875	-0.789642333984375	9.968857162475585	0.25797522888183594	-0.030526071166992186	0.759124755859375	-4.73785400390625	-3.35693359375	10.189123715209961	0.26276363220214843	-0.39983167724609375	2.960205078125	-4.688262939453125	-1.9683837890625	
151	0.604	0.0	0.0	0.0	0.0	0.003	0.003	0.006	0.003	9.775525378417969	0.15023615417480468	0.33758243408203126	1.956939697265625	-3.45611572265625	-0.553131103515625	9.638457333374022	0.805050308227539	0.41060558471679687	0.823974609375	-5.367279052734375	-3.231048583984375	10.02332525024414	0.8918401184082031	-0.2813186950683594	2.95257568359375	-4.909515380859375	-1.613616943359375	
152	0.608	0.0	0.0	0.0	0.0	0.006	0.003	0.003	0.006	9.92755718383789	-0.3124433166503906	0.08259995727539061	0.202178955078125	-2.49481201171875	-0.988006591796875	9.975441217041014	0.2603694305419922	-0.03411737365722656	0.843048095703125	-5.10406494140625	-3.528594970703125	10.192116467285155	0.2861070983886719	-0.40402153015136716	2.727508544921875	-4.726409912109375	-1.83868408203125	
153	0.612	0.0	0.0	0.0	0.0	0.006	0.006	0.003	0.003	9.873687646484374	0.2867056488037109	-0.00239420166015625	2.4261474609375	-3.41796875	-0.949859619140625	9.639055883789062	0.8056488586425781	0.41419688720703124	0.61798095703125	-4.978179931640625	-3.070831298828125	9.87727894897461	0.8511386901855468	-0.05985504150390625	2.655029296875	-4.8065185546875	-2.13623046875	
154	0.616	0.0	0.0	0.0	0.0	0.006	0.003	0.003	0.006	9.923965881347655	-0.29089550170898437	0.09935936889648436	0.3509521484375	-2.590179443359375	-0.720977783203125	9.906009368896484	0.1466448516845703	0.028131869506835935	0.63323974609375	-5.13458251953125	-3.124237060546875	10.190919366455077	0.2753331909179687	-0.41838674011230464	2.872467041015625	-4.8828125	-1.9073486328125	
155	0.62	0.0	0.0	0.0	0.0	-0.003	0.006	0.006	0.006	9.884461553955077	0.2693476867675781	0.008379705810546874	2.6092529296875	-3.711700439453125	-0.827789306640625	9.648034140014648	0.7553706237792969	0.42377369384765623	0.6256103515625	-5.474090576171875	-3.253936767578125	9.892841259765625	0.8206126190185546	-0.07122749938964844	2.63214111328125	-4.734039306640625	-2.08282470703125	
156	0.624	0.0	0.0	0.0	0.0	0.006	0.003	0.003	0.006	9.926958633422851	-0.2855085479736328	0.09277531433105468	0.30517578125	-2.124786376953125	-0.8392333984375	9.926360083007811	0.11192892761230468	0.017357962036132813	0.83160400390625	-5.0048828125	-3.16619873046875	9.957484704589843	0.24061726684570311	-0.17956512451171874	2.803802490234375	-5.0811767578125	-1.682281494140625	
157	0.628	0.0	0.0	0.0	0.0	0.003	0.006	0.006	0.003	9.883264453125	0.27892449340820313	-0.008978256225585938	2.593994140625	-3.620147705078125	-1.049041748046875	9.641450085449218	0.8289923248291016	0.2813186950683594	0.629425048828125	-4.558563232421875	-3.70025634765625	9.892841259765625	0.8475473876953125	-0.058657940673828124	2.803802490234375	-4.84466552734375	-2.017974853515625	
158	0.632	0.0	0.0	0.0	0.0	0.003	0.003	0.003	0.003	9.795876092529296	0.35314474487304687	0.086191259765625	4.154205322265625	-4.726409912109375	-0.568389892578125	9.96586441040039	-0.010175357055664061	0.0017956512451171875	0.690460205078125	-5.02777099609375	-3.21197509765625	9.952097750854492	0.16340426330566404	-0.17776947326660156	2.70843505859375	-4.92095947265625	-1.4801025390625	
159	0.636	0.0	0.0	0.0	0.0	0.006	0.006	0.006	0.003	9.889848507690429	0.28909985046386716	-0.0053869537353515625	2.834320068359375	-3.894805908203125	-1.018524169921875	9.641450085449218	0.7990648040771484	0.296881005859375	0.67138671875	-4.79888916015625	-3.818511962890625	9.808445651245117	0.3507505432128906	0.001197100830078125	2.346038818359375	-4.451751708984375	-2.15911865234375	
160	0.64	0.0	0.0	0.0	0.0	0.006	0.003	0.003	0.003	9.80665	0.3902548706054687	0.07422025146484375	3.948211669921875	-4.528045654296875	-0.4425048828125	9.694122521972655	0.5877765075683593	0.1562216583251953	0.70953369140625	-4.99725341796875	-3.0364990234375	9.970652813720703	0.23642741394042968	-0.20709844360351562	2.8839111328125	-5.001068115234375	-1.556396484375	
161	0.644	0.0	0.0	0.0	0.0	0.006	0.003	0.003	0.009000000000000001	9.87608184814453	0.24361001892089842	-0.003591302490234375	4.364013671875	-4.6844482421875	-0.965118408203125	9.63307037963867	0.6937199310302734	0.32561142578124996	0.675201416015625	-4.9591064453125	-3.71551513671875	9.789890588378906	0.297479556274414	-0.0053869537353515625	2.47955322265625	-4.619598388671875	-2.254486083984375	
162	0.648	0.0	0.0	0.0	0.0	0.003	0.006	0.006	0.003	9.79408044128418	0.3327940307617187	0.06045359191894531	4.150390625	-4.459381103515625	-0.6256103515625	9.700108026123047	0.4267664459228515	0.1640028137207031	0.728607177734375	-5.168914794921875	-2.86865234375	9.983820922851562	0.15263035583496093	-0.19153613281249998	2.6397705078125	-4.940032958984375	-1.85394287109375	
163	0.652	0.0	0.0	0.0	0.0	0.006	0.003	0.006	0.009000000000000001	9.905410818481444	0.15861585998535155	0.059256491088867186	4.43267822265625	-4.848480224609375	-1.07574462890625	9.694122521972655	0.7912836486816406	0.23403321228027343	0.499725341796875	-4.505157470703125	-3.894805908203125	9.836577520751952	0.4016273284912109	-0.0909796630859375	2.18963623046875	-4.390716552734375	-2.201080322265625	
164	0.656	0.0	0.0	0.0	0.0	0.006	0.003	0.003	0.006	9.80724855041504	0.3220201232910156	0.013766659545898436	3.833770751953125	-4.6844482421875	-0.70953369140625	9.71686743774414	0.34835634155273437	0.1370680450439453	0.583648681640625	-5.054473876953125	-2.838134765625	9.78629928588867	0.3746925598144531	0.07362170104980469	2.651214599609375	-4.688262939453125	-1.1444091796875	
165	0.66	0.0	0.0	0.0	0.0	0.006	0.006	0.003	0.006	9.904213717651366	0.06045359191894531	0.05027823486328125	4.116058349609375	-4.932403564453125	-0.797271728515625	9.694122521972655	0.6841431243896484	0.19632453613281248	0.713348388671875	-4.680633544921875	-4.032135009765625	9.824007962036132	0.3238157745361328	-0.09995791931152344	2.41851806640625	-4.63104248046875	-2.58636474609375	
166	0.664	0.0	0.0	0.0	0.0	0.003	0.003	0.003	0.003	9.935936889648437	-0.04848258361816406	0.059256491088867186	1.842498779296875	-3.299713134765625	-0.621795654296875	9.734823950195311	0.9702502227783203	0.14305354919433594	0.38909912109375	-5.313873291015625	-3.170013427734375	9.80665	0.4950011932373047	0.02154781494140625	2.655029296875	-4.886627197265625	-1.1444091796875	
167	0.668	0.0	0.0	0.0	0.0	0.003	0.006	0.003	0.003	9.906009368896484	0.055066638183593745	0.05566518859863281	4.222869873046875	-4.779815673828125	-1.068115234375	9.677363110351562	0.7625532287597656	0.21248539733886718	0.49591064453125	-4.787445068359375	-3.833770751953125	10.159196194458007	0.1466448516845703	-0.3758896606445312	2.63214111328125	-4.421234130859375	-1.857757568359375	
168	0.672	0.0	0.0	0.0	0.0	0.003	0.006	0.006	0.009000000000000001	9.91558617553711	-0.09995791931152344	0.0909796630859375	1.9378662109375	-3.597259521484375	-0.812530517578125	9.785102185058593	0.28431144714355466	0.11192892761230468	0.54168701171875	-5.298614501953125	-3.0670166015625	9.789890588378906	0.3699041564941406	0.0526724365234375	2.872467041015625	-4.89044189453125	-1.636505126953125	
169	0.676	0.0	0.0	0.0	0.0	0.003	0.006	0.003	0.003	9.929951385498047	0.17298106994628906	0.006584054565429687	4.32586669921875	-4.67681884765625	-0.80108642578125	9.700108026123047	0.8008604553222656	0.17118541870117188	0.919342041015625	-4.84466552734375	-3.787994384765625	10.205284576416014	0.14903905334472656	-0.43634325256347656	2.9754638671875	-4.425048828125	-2.017974853515625	
170	0.68	0.0	0.0	0.0	0.0	0.006	0.006	0.003	0.006	9.93414123840332	0.032920272827148434	0.08798691101074219	2.9296875	-4.032135009765625	-0.621795654296875	9.791087689208984	0.22206220397949217	0.08080430603027343	0.38909912109375	-5.092620849609375	-3.2501220703125	9.987412225341796	0.8008604553222656	-0.2154781494140625	3.017425537109375	-4.764556884765625	-1.6021728515625	
171	0.684	0.0	0.0	0.0	0.0	0.009000000000000001	0.006	0.006	0.003	9.925761532592773	-0.5141548065185546	0.06643909606933593	1.1749267578125	-3.345489501953125	-0.8697509765625	9.89523546142578	0.7679401824951172	-0.08559270935058594	0.885009765625	-4.810333251953125	-3.25775146484375	10.171765753173828	0.07362170104980469	-0.4369418029785156	2.8076171875	-4.638671875	-1.766204833984375	
172	0.6880000000000001	0.0	0.0	0.0	0.0	0.003	0.003	0.003	0.006	9.952097750854492	-0.04967968444824218	0.08020575561523437	3.093719482421875	-4.093170166015625	-0.827789306640625	9.79946739501953	0.3345896820068359	0.07062894897460938	0.579833984375	-5.115509033203125	-3.60870361328125	10.01733974609375	0.728435855102539	-0.27353753967285155	2.899169921875	-4.9591064453125	-1.53350830078125	
173	0.6920000000000001	0.0	0.0	0.0	0.0	0.003	0.006	0.006	0.006	9.938331091308592	-0.5614402893066406	0.07003039855957031	1.132965087890625	-2.960205078125	-1.224517822265625	9.9215716796875	0.6404489440917969	-0.11851298217773437	1.049041748046875	-4.974365234375	-2.93731689453125	10.188525164794921	0.17118541870117188	-0.48063598327636714	2.0294189453125	-4.33349609375	-1.819610595703125	
174	0.6960000000000001	0.0	0.0	0.0	0.0	0.006	0.003	0.006	0.006	9.94012674255371	-0.013766659545898436	0.11611878051757812	1.5411376953125	-2.849578857421875	-0.713348388671875	9.668983404541015	0.4656722229003906	0.5159504577636719	0.568389892578125	-5.10406494140625	-3.681182861328125	9.961674557495117	0.8798691101074219	-0.2454056701660156	2.95257568359375	-4.84466552734375	-1.46484375	
175	0.7000000000000001	0.0	0.0	0.0	0.0	0.006	0.003	0.006	0.006	9.962273107910155	-0.6661866119384765	0.04189852905273437	0.530242919921875	-2.719879150390625	-1.0986328125	9.955689053344726	0.479438882446289	-0.1592144104003906	0.606536865234375	-4.840850830078125	-3.047943115234375	10.271125122070313	0.003591302490234375	-0.5051765502929687	2.826690673828125	-4.57763671875	-1.468658447265625	
176	0.704	0.0	0.0	0.0	0.0	0.006	0.003	0.003	0.006	9.660603698730467	-0.0017956512451171875	0.23582886352539062	1.033782958984375	-3.009796142578125	-0.78582763671875	9.679757312011718	0.6194996795654296	0.47884033203125	0.48828125	-5.3253173828125	-3.509521484375	10.007762939453125	0.7757213378906249	-0.27353753967285155	2.66265869140625	-4.543304443359375	-1.85394287109375	
177	0.708	0.0	0.0	0.0	0.0	0.003	0.003	0.006	0.009000000000000001	9.952696301269532	-0.6147112762451171	0.051475335693359374	0.7171630859375	-2.895355224609375	-0.957489013671875	10.058639724731444	0.46028526916503903	-0.13587094421386717	1.15966796875	-5.222320556640625	-3.269195556640625	10.280701928710936	0.20769699401855468	-0.5057751007080078	2.567291259765625	-4.520416259765625	-1.575469970703125	
178	0.712	0.0	0.0	0.0	0.0	0.003	0.003	0.003	0.003	9.63307037963867	0.3651157531738281	0.2537853759765625	1.430511474609375	-3.269195556640625	-0.576019287109375	9.67137760620117	0.6673837127685547	0.4955997436523437	0.32806396484375	-5.3253173828125	-3.36456298828125	9.878476049804688	0.5327098693847656	-0.054468087768554684	2.643585205078125	-4.726409912109375	-2.05230712890625	
179	0.716	0.0	0.0	0.0	0.0	0.003	0.003	0.006	0.003	9.840767373657226	-0.47285482788085936	0.07841010437011718	-1.02996826171875	-1.5869140625	-0.698089599609375	10.079588989257813	0.4578910675048828	-0.1406593475341797	1.1749267578125	-4.96673583984375	-3.18145751953125	10.273519323730468	0.2166752502441406	-0.4997895965576172	2.979278564453125	-4.810333251953125	-1.552581787109375	
180	0.72	0.0	0.0	0.0	0.0	0.003	0.006	0.003	0.006	9.631274728393555	-0.05327098693847656	0.24839842224121092	0.972747802734375	-2.758026123046875	-0.701904296875	9.607332711791992	0.6889315277099609	0.4225765930175781	0.23651123046875	-4.8828125	-3.688812255859375	9.87608184814453	0.47704468078613277	-0.05805939025878906	2.407073974609375	-4.67681884765625	-2.12860107421875	
181	0.724	0.0	0.0	0.0	0.0	0.009000000000000001	0.003	0.003	0.006	9.804854348754882	0.20829554443359374	0.10115502014160156	0.263214111328125	-2.25830078125	-0.8392333984375	10.04846436767578	0.5291185668945312	-0.105344873046875	1.369476318359375	-5.0506591796875	-3.509521484375	9.970054263305663	0.6302735870361328	-0.1945288848876953	2.49481201171875	-4.833221435546875	-1.499176025390625	
182	0.728	0.0	0.0	0.0	0.0	0.006	0.003	0.006	0.006	9.6151138671875	0.19572598571777342	0.3178302703857422	3.07464599609375	-3.71551513671875	-0.942230224609375	9.620500820922851	0.6147112762451171	0.4381389038085937	0.14495849609375	-4.7149658203125	-3.60870361328125	9.892841259765625	0.3082534637451172	-0.028730419921875	2.582550048828125	-4.82177734375	-2.254486083984375	
183	0.732	0.0	0.0	0.0	0.0	0.006	0.006	0.006	0.006	9.804854348754882	-0.24121581726074218	0.11851298217773437	-0.873565673828125	-1.51824951171875	-1.10626220703125	9.775525378417969	0.5231330627441406	0.1292868896484375	0.64849853515625	-5.229949951171875	-3.482818603515625	9.93414123840332	0.7254431030273437	-0.11252747802734374	2.44140625	-4.75311279296875	-1.567840576171875	
184	0.736	0.0	0.0	0.0	0.0	0.006	0.006	0.006	0.003	9.81862100830078	0.10714052429199218	-0.015562310791015624	0.965118408203125	-2.5634765625	-1.056671142578125	9.604938510131836	0.5764040496826172	0.4273649963378906	0.270843505859375	-5.069732666015625	-3.65447998046875	9.872490545654296	0.22026655273437498	-0.054468087768554684	2.330780029296875	-4.444122314453125	-2.277374267578125	
185	0.74	0.0	0.0	0.0	0.0	0.006	0.006	0.003	0.003	9.781510882568359	0.03591302490234375	0.1580173095703125	-0.217437744140625	-1.983642578125	-0.850677490234375	9.739612353515625	0.5817910034179687	0.18136077575683593	0.713348388671875	-4.8980712890625	-3.47137451171875	9.910797772216796	0.7368155609130859	-0.0909796630859375	2.3193359375	-4.70733642578125	-1.77001953125	
186	0.744	0.0	0.0	0.0	0.0	0.003	2.604	4.638	4.6080000000000005	9.770736975097655	0.002992752075195312	0.054468087768554684	1.033782958984375	-2.72369384765625	-1.50299072265625	9.585186346435547	0.43993455505371093	0.3124433166503906	0.171661376953125	-4.43267822265625	-3.631591796875	9.779116680908203	0.08259995727539061	-0.037110125732421874	2.3651123046875	-4.70733642578125	-1.781463623046875	
187	0.748	0.0	0.0	0.0	0.0	4.62	4.65	4.65	4.602	9.772532626342773	-0.2567781280517578	0.1753752716064453	2.048492431640625	-3.35693359375	-0.720977783203125	9.779116680908203	0.5698199951171875	0.12988544006347655	0.701904296875	-4.9285888671875	-3.34930419921875	9.963470208740233	0.7302315063476562	-0.1005564697265625	2.361297607421875	-4.730224609375	-1.9683837890625	
188	0.752	0.0	0.0	0.0	0.0	4.632	4.65	4.65	4.605	9.779116680908203	-0.07062894897460938	0.037110125732421874	0.171661376953125	-2.193450927734375	-1.186370849609375	9.579200842285156	0.49320554199218747	0.30406361083984373	0.217437744140625	-4.489898681640625	-3.765106201171875	9.770736975097655	0.1753752716064453	-0.033518823242187495	2.445220947265625	-4.764556884765625	-1.76239013671875	
189	0.756	0.0	0.0	0.0	0.0	4.626	4.647	4.65	4.617	9.937133990478515	0.3842693664550781	-0.1149216796875	2.5787353515625	-3.971099853515625	-0.81634521484375	9.7683427734375	0.5770026000976562	0.11671733093261719	1.132965087890625	-5.33294677734375	-3.482818603515625	9.798270294189452	0.5321113189697265	0.01975216369628906	2.506256103515625	-4.72259521484375	-1.80816650390625	
190	0.76	0.0	0.0	0.0	0.0	4.623	4.6530000000000005	4.6530000000000005	4.62	9.801263046264648	0.10235212097167969	0.010773907470703125	1.251220703125	-3.13568115234375	-1.010894775390625	9.588777648925781	0.5087678527832031	0.2920926025390625	0.23651123046875	-4.7607421875	-3.688812255859375	9.78689783630371	0.23343466186523437	-0.08678981018066406	2.140045166015625	-4.43267822265625	-1.76239013671875	
191	0.764	0.0	0.0	0.0	0.0	4.617	4.6530000000000005	4.6530000000000005	4.62	9.943119494628906	0.24181436767578124	-0.1406593475341797	3.0364990234375	-4.108428955078125	-0.75531005859375	9.73063409729004	0.5524620330810547	0.09636661682128905	0.720977783203125	-5.157470703125	-3.35693359375	9.82580361328125	0.5123591552734374	-0.025139117431640625	2.681732177734375	-5.04302978515625	-2.0599365234375	
192	0.768	0.0	0.0	0.0	0.0	4.6080000000000005	4.65	4.647	4.626	9.988010775756836	0.1580173095703125	-0.09935936889648436	5.428314208984375	-5.79833984375	-0.644683837890625	9.559448678588867	0.49859249572753905	0.32441432495117184	0.675201416015625	-4.840850830078125	-3.246307373046875	10.18373676147461	0.5351040710449219	-0.43574470214843747	2.86102294921875	-4.46319580078125	-1.18255615234375	
193	0.772	0.0	0.0	0.0	0.0	4.626	4.6530000000000005	4.6530000000000005	4.611	9.980229620361328	0.35134909362792965	-0.17597382202148437	3.025054931640625	-4.207611083984375	-0.644683837890625	9.695918173217773	0.5919663604736328	0.09576806640624999	0.652313232421875	-5.05828857421875	-3.284454345703125	9.813832604980469	0.4955997436523437	-0.0383072265625	2.63214111328125	-4.787445068359375	-1.9989013671875	
194	0.776	0.0	0.0	0.0	0.0	4.626	4.6530000000000005	4.6530000000000005	4.602	10.019733947753906	0.2292448089599609	-0.11851298217773437	6.206512451171875	-6.168365478515625	-0.48828125	9.907206469726562	0.536899722290039	-0.04908113403320312	0.66375732421875	-4.82940673828125	-3.177642822265625	10.190320816040039	0.5877765075683593	-0.469263525390625	2.87628173828125	-4.31060791015625	-1.45721435546875	
195	0.78	0.0	0.0	0.0	0.0	4.617	4.6530000000000005	4.65	4.6080000000000005	10.000580334472655	0.2507926239013672	-0.20231004028320312	3.21197509765625	-4.314422607421875	-0.568389892578125	9.720458740234374	0.5823895538330078	0.10594342346191406	0.72479248046875	-5.313873291015625	-3.345489501953125	9.866505041503906	0.4578910675048828	-0.04249707946777344	2.750396728515625	-4.680633544921875	-2.76947021484375	
196	0.784	0.0	0.0	0.0	0.0	4.626	4.647	4.6530000000000005	4.617	10.000580334472655	0.1801636749267578	-0.12449848632812499	5.962371826171875	-5.901336669921875	-0.40435791015625	9.87727894897461	0.49739539489746093	0.006584054565429687	0.858306884765625	-4.657745361328125	-3.11279296875	10.19570776977539	0.5392939239501953	-0.411802685546875	2.948760986328125	-4.638671875	-1.323699951171875	
197	0.788	0.0	0.0	0.0	0.0	4.623	4.6530000000000005	4.6530000000000005	4.617	9.807847100830077	0.20470424194335937	0.21906945190429686	5.481719970703125	-5.645751953125	-0.4119873046875	9.78689783630371	0.6021417175292968	0.2950853546142578	0.659942626953125	-5.37109375	-3.10516357421875	10.00417163696289	0.35015199279785153	-0.19991583862304688	3.086090087890625	-4.852294921875	-1.659393310546875	
198	0.792	0.0	0.0	0.0	0.0	4.62	4.6530000000000005	4.6530000000000005	4.62	10.034697708129881	0.30406361083984373	-0.14724340209960937	6.30950927734375	-6.09588623046875	-0.35858154296875	9.913191973876952	0.5201403106689453	-0.0526724365234375	0.6866455078125	-4.78363037109375	-3.173828125	10.189722265624999	0.5536591339111328	-0.46686932373046874	3.078460693359375	-4.337310791015625	-1.224517822265625	
199	0.796	0.0	0.0	0.0	0.0	4.617	4.6530000000000005	4.647	4.626	9.804255798339844	0.16460136413574217	0.2059013427734375	5.66864013671875	-5.901336669921875	-0.568389892578125	9.813832604980469	0.604535919189453	0.25917232971191406	0.66375732421875	-5.290985107421875	-3.16619873046875	10.011354241943359	0.3477577911376953	-0.21966800231933592	2.98309326171875	-4.779815673828125	-1.880645751953125	
200	0.8	0.0	0.0	0.0	0.0	4.626	4.6530000000000005	4.6530000000000005	4.6080000000000005	9.987412225341796	0.2819172454833984	-0.07601590270996093	0.79345703125	-2.74658203125	-0.789642333984375	10.077194787597655	0.45190556335449217	-0.10235212097167969	0.8087158203125	-4.985809326171875	-2.99072265625	10.27232222290039	0.5291185668945312	-0.40940848388671874	2.674102783203125	-4.608154296875	-1.7852783203125	
201	0.804	0.0	0.0	0.0	0.0	4.626	4.6530000000000005	4.6530000000000005	4.602	9.756371765136718	0.17477672119140625	0.258573779296875	5.565643310546875	-5.901336669921875	-0.5950927734375	9.816226806640625	0.6817489227294922	0.2519897247314453	0.70953369140625	-5.084991455078125	-3.0517578125	10.007762939453125	0.34117373657226563	-0.21128829650878905	2.93731689453125	-4.8675537109375	-1.8310546875	
202	0.808	0.0	0.0	0.0	0.0	4.6290000000000004	4.6530000000000005	4.6530000000000005	4.6080000000000005	9.9981861328125	-0.25438392639160157	-0.029927520751953124	0.827789306640625	-2.941131591796875	-0.8544921875	10.134655627441406	0.36391865234375	-0.19213468322753904	1.293182373046875	-5.130767822265625	-3.0364990234375	10.299256991577147	0.5638344909667968	-0.4848258361816406	2.86865234375	-4.7607421875	-1.62506103515625	
203	0.812	0.0	0.0	0.0	0.0	4.626	4.647	4.6530000000000005	4.617	9.758167416381836	0.2723404388427734	0.2214636535644531	5.794525146484375	-5.565643310546875	-0.49591064453125	9.603142858886718	0.8750807067871094	0.4034229797363281	0.446319580078125	-4.95147705078125	-3.475189208984375	9.830592016601562	0.28790274963378903	0.051475335693359374	2.51007080078125	-4.444122314453125	-1.834869384765625	
204	0.8160000000000001	0.0	0.0	0.0	0.0	4.623	4.6530000000000005	4.6530000000000005	4.623	9.924564431762695	-0.41838674011230464	0.02154781494140625	0.400543212890625	-2.86865234375	-0.8392333984375	10.047267266845703	0.3280056274414062	-0.07302315063476562	1.2359619140625	-5.3558349609375	-3.238677978515625	10.196306320190429	0.5237316131591797	-0.31962592163085934	2.651214599609375	-4.566192626953125	-1.819610595703125	
205	0.8200000000000001	0.0	0.0	0.0	0.0	4.62	4.6530000000000005	4.6530000000000005	4.623	9.715670336914062	-0.1945288848876953	0.2723404388427734	-0.2899169921875	-2.040863037109375	-1.300811767578125	9.597755905151367	0.8888473663330078	0.35793314819335936	0.568389892578125	-5.107879638671875	-3.16619873046875	9.840767373657226	0.28431144714355466	0.05386953735351562	2.544403076171875	-4.817962646484375	-2.094268798828125	
206	0.8240000000000001	0.0	0.0	0.0	0.0	4.614	4.6530000000000005	4.65	4.626	9.924564431762695	-0.4483142608642578	0.0143652099609375	0.484466552734375	-2.60162353515625	-1.068115234375	9.803058697509766	0.3327940307617187	0.11432312927246092	0.667572021484375	-5.001068115234375	-3.475189208984375	10.274117874145507	0.5512649322509765	-0.4291606475830078	2.262115478515625	-4.913330078125	-1.8463134765625	
207	0.8280000000000001	0.0	0.0	0.0	0.0	4.626	4.6530000000000005	4.6530000000000005	4.611	9.752780462646484	-0.12689268798828124	0.1771709228515625	-0.80108642578125	-1.73187255859375	-1.27410888671875	9.566631283569336	0.7811082916259765	0.4052186309814453	0.484466552734375	-5.157470703125	-3.2501220703125	9.791686239624022	0.24779987182617186	0.14125789794921875	2.361297607421875	-4.634857177734375	-2.056121826171875	
208	0.8320000000000001	0.0	0.0	0.0	0.0	4.626	4.6530000000000005	4.6530000000000005	4.602	9.900622415161132	-0.18914193115234373	0.037110125732421874	0.843048095703125	-2.78472900390625	-1.16729736328125	9.777919580078125	0.49679684448242184	0.14484920043945312	0.476837158203125	-5.06591796875	-3.6773681640625	9.926360083007811	0.5985504150390625	-0.14784195251464843	2.506256103515625	-4.70733642578125	-2.02178955078125	
209	0.836	0.0	0.0	0.0	0.0	4.626	4.65	4.65	4.6080000000000005	9.765350021362304	-0.3794809631347656	0.181959326171875	-1.598358154296875	-1.232147216796875	-1.300811767578125	9.581595043945311	0.6177040283203125	0.31184476623535157	0.41961669921875	-4.53948974609375	-3.82232666015625	9.827000714111328	0.28012159423828126	0.12330138549804687	2.52532958984375	-4.69207763671875	-1.750946044921875	
210	0.84	0.0	0.0	0.0	0.0	4.623	4.647	4.6530000000000005	4.617	9.767145672607422	0.23642741394042968	0.13467384338378904	0.125885009765625	-2.178192138671875	-1.0986328125	9.772532626342773	0.4207809417724609	0.21248539733886718	0.67138671875	-4.89044189453125	-3.6163330078125	9.977236868286132	0.489015689086914	-0.18076222534179687	2.597808837890625	-4.6234130859375	-2.086639404296875	
211	0.844	0.0	0.0	0.0	0.0	4.626	4.6530000000000005	4.6530000000000005	0.003	9.685742816162108	-0.2699462371826172	0.258573779296875	-1.781463623046875	-0.89263916015625	-1.277923583984375	9.580996493530273	0.6266822845458984	0.23822306518554687	0.457763671875	-4.825592041015625	-3.9215087890625	9.762955819702148	0.3920505218505859	-0.2663549346923828	2.429962158203125	-4.375457763671875	-1.556396484375	
212	0.848	0.0	0.0	0.0	0.0	0.003	0.003	0.003	0.006	9.80665	0.1352723937988281	0.04129997863769531	0.00762939453125	-2.300262451171875	-0.67901611328125	9.788693487548828	0.4417302062988281	0.16340426330566404	0.51116943359375	-4.8980712890625	-3.215789794921875	10.014945544433592	0.5434837768554687	-0.29568390502929687	2.4261474609375	-4.871368408203125	-2.193450927734375	
213	0.852	0.0	0.0	0.0	0.0	0.0	0.006	0.006	0.003	9.751583361816406	-0.08499415893554688	0.16639701538085935	3.4637451171875	-1.21307373046875	-1.39617919921875	9.69112976989746	0.5626373901367188	0.19393033447265623	0.354766845703125	-4.642486572265625	-3.80706787109375	9.86351228942871	0.3459621398925781	-0.24480711975097655	2.841949462890625	-4.21905517578125	-1.567840576171875	
214	0.856	0.0	0.0	0.0	0.0	0.003	0.006	0.003	0.0	9.753379013061522	0.08319850769042968	0.1580173095703125	1.15203857421875	-2.685546875	-1.06048583984375	9.599551556396484	0.4740519287109375	0.31962592163085934	0.49591064453125	-5.001068115234375	-3.204345703125	9.751583361816406	0.32142157287597656	0.08798691101074219	2.63214111328125	-4.741668701171875	-1.911163330078125	
215	0.86	0.0	0.0	0.0	0.0	0.003	0.003	0.003	0.003	9.942520944213866	0.28909985046386716	0.018555062866210937	3.200531005859375	-3.95965576171875	-0.507354736328125	9.623493572998047	0.6404489440917969	0.25797522888183594	0.476837158203125	-4.791259765625	-3.82232666015625	9.797671743774414	0.43454760131835934	-0.23702596435546874	2.8839111328125	-4.474639892578125	-1.522064208984375	
216	0.864	0.0	0.0	0.0	0.0	0.006	0.006	0.003	0.003	9.866505041503906	0.3716998077392578	-0.06883329772949218	1.262664794921875	-2.685546875	-0.9918212890625	9.721057290649414	0.43634325256347656	0.1640028137207031	0.308990478515625	-4.878997802734375	-3.345489501953125	9.83897172241211	0.296881005859375	0.07242460021972656	2.788543701171875	-4.73785400390625	-1.77001953125	
217	0.868	0.0	0.0	0.0	0.0	0.003	0.006	0.003	0.003	9.920374578857421	0.3136404174804687	0.05985504150390625	4.89044189453125	-4.962921142578125	-0.659942626953125	9.77432827758789	0.41359833679199215	0.08738836059570312	0.675201416015625	-4.66156005859375	-3.551483154296875	9.740809454345703	0.3956418243408203	-0.10953472595214843	2.50244140625	-4.581451416015625	-1.739501953125	
218	0.872	0.0	0.0	0.0	0.0	0.006	0.006	0.003	0.006	10.025120901489258	-0.027533319091796873	-0.0526724365234375	4.302978515625	-4.970550537109375	-0.522613525390625	9.575609539794922	0.4842272857666015	0.412401235961914	0.606536865234375	-4.932403564453125	-3.265380859375	9.750386260986328	0.39324762268066404	-0.05566518859863281	2.2430419921875	-4.367828369140625	-1.697540283203125	
219	0.876	0.0	0.0	0.0	0.0	0.003	0.006	0.003	0.006	10.031704956054687	0.5476736297607422	-0.07242460021972656	4.917144775390625	-4.772186279296875	-0.148773193359375	9.847351428222655	0.411802685546875	0.011971008300781249	0.6866455078125	-4.8980712890625	-3.3111572265625	10.205284576416014	0.5416881256103515	-0.48722003784179685	2.93731689453125	-4.4097900390625	-1.506805419921875	
220	0.88	0.0	0.0	0.0	0.0	0.009000000000000001	0.006	0.003	0.006	10.038887561035155	0.21906945190429686	-0.011372457885742187	6.78253173828125	-6.427764892578125	-0.83160400390625	9.886257205200195	0.6027402679443359	0.02154781494140625	0.461578369140625	-5.1422119140625	-3.002166748046875	9.865307940673828	0.31064766540527344	-0.2645592834472656	2.87628173828125	-4.67681884765625	-1.552581787109375	
221	0.884	0.0	0.0	0.0	0.0	0.006	0.006	0.006	0.003	9.974244116210937	0.1753752716064453	-0.022146365356445312	4.123687744140625	-4.69970703125	-0.949859619140625	9.770736975097655	0.4830301849365234	0.07781155395507812	0.60272216796875	-5.13458251953125	-3.6773681640625	10.162188946533202	0.5817910034179687	-0.5231330627441406	3.055572509765625	-4.596710205078125	-1.445770263671875	
222	0.888	0.0	0.0	0.0	0.0	0.003	0.003	0.006	0.003	10.092158547973632	0.12030863342285156	-0.11013327636718749	5.168914794921875	-5.62286376953125	-0.148773193359375	9.85692823486328	0.6913257293701172	0.04249707946777344	0.3662109375	-5.0048828125	-2.895355224609375	9.982623822021484	0.3908534210205078	-0.11192892761230468	3.147125244140625	-4.917144775390625	-1.804351806640625	
223	0.892	0.0	0.0	0.0	0.0	0.003	0.006	0.003	0.006	10.107720858764647	0.19393033447265623	-0.17896657409667968	6.046295166015625	-6.053924560546875	-0.629425048828125	10.095151300048828	0.2759317413330078	-0.20231004028320312	1.15966796875	-5.275726318359375	-3.253936767578125	10.261548315429687	0.4381389038085937	-0.5111620544433594	2.712249755859375	-4.322052001953125	-1.739501953125	
224	0.896	0.0	0.0	0.0	0.0	0.006	0.003	0.006	0.003	9.974244116210937	0.2867056488037109	0.08200140686035155	7.442474365234375	-6.8359375	-0.942230224609375	9.804255798339844	0.6925228302001952	0.12449848632812499	0.347137451171875	-5.138397216796875	-2.964019775390625	9.993996279907225	0.37828386230468747	-0.0939724151611328	2.9449462890625	-4.695892333984375	-1.82342529296875	
225	0.9	0.0	0.0	0.0	0.0	0.003	0.006	0.006	0.003	10.060435375976562	-0.632667788696289	-0.04908113403320312	2.872467041015625	-4.077911376953125	-0.67901611328125	10.005967288208007	0.36272155151367186	-0.030526071166992186	0.75531005859375	-5.290985107421875	-3.3721923828125	10.216657034301758	0.5740098480224609	-0.36152445068359373	2.819061279296875	-4.726409912109375	-1.77001953125	
226	0.904	0.0	0.0	0.0	0.0	0.006	0.006	0.003	0.006	10.06223102722168	-0.2507926239013672	-0.09457096557617187	4.37164306640625	-5.10406494140625	-0.22125244140625	9.701305126953125	0.9624690673828125	0.2424129180908203	0.57220458984375	-5.096435546875	-2.956390380859375	10.095151300048828	0.3507505432128906	-0.11731588134765625	3.19671630859375	-4.817962646484375	-1.613616943359375	
227	0.908	0.0	0.0	0.0	0.0	0.009000000000000001	0.003	0.003	0.003	10.037690460205077	0.4207809417724609	-0.03651157531738281	5.60760498046875	-5.786895751953125	-0.57220458984375	10.008960040283203	0.3136404174804687	-0.08678981018066406	0.83160400390625	-5.237579345703125	-3.276824951171875	10.265738168334961	0.45190556335449217	-0.4100070343017578	2.90679931640625	-4.44793701171875	-1.861572265625	
228	0.912	0.0	0.0	0.0	0.0	0.003	0.003	0.006	0.003	9.433753091430663	-0.32441432495117184	0.747589468383789	0.701904296875	-2.8839111328125	-1.4801025390625	9.613916766357422	0.9612719665527343	0.3489548919677734	1.28936767578125	-4.978179931640625	-3.0975341796875	9.943119494628906	0.45968671875	-0.028730419921875	2.54058837890625	-4.7149658203125	-1.85394287109375	
229	0.916	0.0	0.0	0.0	0.0	0.003	0.003	0.006	0.003	9.992799179077148	-0.978031378173828	0.13287819213867186	1.369476318359375	-3.231048583984375	-1.026153564453125	10.003573086547851	0.3896563201904297	0.29448680419921874	0.049591064453125	-5.19561767578125	-3.7078857421875	10.31661495361328	0.5105635040283203	-0.4064157318115234	2.74658203125	-4.638671875	-1.6632080078125	
230	0.92	0.0	0.0	0.0	0.0	0.006	0.006	0.006	0.003	9.624092123413085	-0.15682020874023436	0.39803602600097654	-2.025604248046875	-1.186370849609375	-0.278472900390625	9.695319622802733	0.86191259765625	0.30705636291503907	0.57220458984375	-4.87518310546875	-3.131866455078125	9.9078050201416	0.28431144714355466	0.19632453613281248	2.559661865234375	-4.550933837890625	-2.079010009765625	
231	0.924	0.0	0.0	0.0	0.0	0.003	0.003	0.003	0.003	9.925761532592773	0.07302315063476562	0.15263035583496093	2.75421142578125	-3.7384033203125	-1.232147216796875	9.740809454345703	0.36272155151367186	0.40761283264160153	0.583648681640625	-5.054473876953125	-3.887176513671875	10.228029492187499	0.5668272430419922	-0.45190556335449217	2.803802490234375	-4.810333251953125	-1.857757568359375	
232	0.928	0.0	0.0	0.0	0.0	0.006	0.006	0.006	0.003	9.575609539794922	0.6470329986572265	0.4722562774658203	2.490997314453125	-3.692626953125	-1.678466796875	9.692326870727538	0.9307458953857422	0.32620997619628905	0.759124755859375	-4.82940673828125	-3.875732421875	9.892841259765625	0.43574470214843747	0.0718260498046875	2.50244140625	-4.7454833984375	-1.73187255859375	
233	0.932	0.0	0.0	0.0	0.0	0.006	0.003	0.003	0.003	9.773729727172851	-0.70868369140625	0.1867477294921875	-1.922607421875	-0.949859619140625	-1.392364501953125	9.916783276367187	0.296881005859375	0.2741360900878906	0.499725341796875	-5.08880615234375	-3.803253173828125	9.941922393798828	0.40761283264160153	-0.13347674255371092	2.552032470703125	-4.878997802734375	-2.00653076171875	
234	0.936	0.0	0.0	0.0	0.0	0.003	0.006	0.003	0.003	9.520542901611327	-0.7691372833251953	0.623090982055664	-3.4637451171875	0.194549560546875	-1.369476318359375	9.630676177978515	0.7996633544921875	0.354341845703125	0.091552734375	-4.791259765625	-3.635406494140625	9.873687646484374	0.3585316986083984	0.16879121704101563	2.582550048828125	-4.8675537109375	-1.956939697265625	
235	0.9400000000000001	0.0	0.0	0.0	0.0	0.003	0.003	0.003	0.0	9.88386300354004	0.430956298828125	-0.052073886108398436	-0.476837158203125	-1.354217529296875	-0.186920166015625	9.797073193359374	0.5111620544433594	0.4016273284912109	-0.141143798828125	-5.054473876953125	-3.7689208984375	9.803058697509766	0.5195417602539062	-0.13407529296874998	2.7008056640625	-5.0201416015625	-1.850128173828125	
236	0.9440000000000001	0.0	0.0	0.0	0.0	0.006	0.003	0.006	0.006	10.019733947753906	0.8774749084472656	-0.2825157958984375	6.420135498046875	-5.954742431640625	-0.888824462890625	9.719261639404296	0.6877344268798827	0.17477672119140625	1.033782958984375	-4.84466552734375	-3.4942626953125	9.7545761138916	0.3746925598144531	-0.06584054565429687	2.254486083984375	-4.24957275390625	-1.758575439453125	
237	0.9480000000000001	0.0	0.0	0.0	0.0	0.003	0.003	0.003	0.006	9.97184991455078	0.5410895751953124	-0.2316390106201172	4.055023193359375	-4.21142578125	-1.3275146484375	9.74200655517578	0.36930560607910157	-0.01915361328125	0.52642822265625	-5.062103271484375	-3.41033935546875	9.868899243164062	0.4495113616943359	-0.2136824981689453	2.414703369140625	-4.669189453125	-2.06756591796875	
238	0.9520000000000001	0.0	0.0	0.0	0.0	0.003	0.006	0.003	0.006	9.922768780517577	-0.04668693237304687	-0.12030863342285156	3.39508056640625	-4.4403076171875	-0.8087158203125	9.651026892089844	0.6554127044677734	0.18914193115234373	0.232696533203125	-4.96673583984375	-3.292083740234375	9.600748657226562	0.4010287780761719	0.04908113403320312	2.300262451171875	-4.6539306640625	-1.811981201171875	
239	0.9560000000000001	0.0	0.0	0.0	0.0	0.006	0.006	0.003	0.003	9.973047015380859	0.14484920043945312	-0.2567781280517578	2.25830078125	-4.169464111328125	-0.701904296875	9.709086282348633	0.4704606262207031	-0.01975216369628906	-0.057220458984375	-5.237579345703125	-2.834320068359375	9.873687646484374	0.5117606048583984	-0.2603694305419922	2.582550048828125	-4.863739013671875	-1.705169677734375	
240	0.96	0.0	0.0	0.0	0.0	0.003	0.006	0.003	0.003	9.986813674926758	0.17118541870117188	-0.2041056915283203	4.840850830078125	-5.268096923828125	-0.762939453125	9.813832604980469	0.4572925170898437	-0.12509703674316405	0.64849853515625	-5.077362060546875	-3.360748291015625	9.82580361328125	0.2813186950683594	-0.1005564697265625	2.109527587890625	-4.528045654296875	-1.918792724609375	
241	0.964	0.0	0.0	0.0	0.0	0.003	0.006	0.006	0.003	9.924564431762695	-0.2771288421630859	-0.1370680450439453	4.055023193359375	-5.382537841796875	-0.9307861328125	9.6151138671875	0.5363011718749999	0.005985504150390624	0.301361083984375	-5.2490234375	-3.2806396484375	9.756970315551758	0.49859249572753905	0.011372457885742187	2.674102783203125	-4.791259765625	-2.033233642578125	
242	0.968	0.0	0.0	0.0	0.0	0.003	0.006	0.003	0.009000000000000001	9.93354268798828	-0.1005564697265625	-0.06404489440917968	4.6539306640625	-5.405426025390625	-0.736236572265625	9.731232647705077	0.5662286926269531	0.00239420166015625	0.5340576171875	-5.1727294921875	-3.204345703125	9.727641345214844	0.4171896392822265	-0.07242460021972656	2.3651123046875	-4.72259521484375	-1.922607421875	
243	0.972	0.0	0.0	0.0	0.0	0.0	0.006	0.006	0.006	10.007762939453125	-0.37828386230468747	-0.12330138549804687	2.105712890625	-4.2877197265625	-0.45013427734375	9.822810861206055	0.5159504577636719	0.19871873779296872	0.637054443359375	-5.2032470703125	-3.589630126953125	9.93952819213867	0.4285620971679687	-0.10893617553710937	2.681732177734375	-4.734039306640625	-1.712799072265625	
244	0.976	0.0	0.0	0.0	0.0	0.006	0.006	0.003	0.003	9.916783276367187	-0.06763619689941405	0.06404489440917968	3.139495849609375	-3.940582275390625	-0.621795654296875	9.710881933593749	0.508169302368164	0.11073182678222655	0.396728515625	-5.035400390625	-3.398895263671875	10.23341644592285	0.3938461730957031	-0.373495458984375	2.979278564453125	-4.31060791015625	-1.537322998046875	
245	0.98	0.0	0.0	0.0	0.0	0.003	0.003	0.003	0.006	9.894038360595703	-0.09576806640624999	0.0987608184814453	2.62451171875	-4.024505615234375	-0.6561279296875	9.707290631103515	0.4955997436523437	0.26396073303222656	0.78582763671875	-5.352020263671875	-3.5552978515625	9.73602105102539	0.5099649536132812	0.054468087768554684	2.78472900390625	-4.638671875	-1.590728759765625	
246	0.984	0.0	0.0	0.0	0.0	0.003	0.006	0.003	0.012	9.87668039855957	-0.011971008300781249	0.09576806640624999	2.498626708984375	-3.63922119140625	-0.530242919921875	9.964068759155273	0.6416460449218749	0.0005985504150390625	1.24359130859375	-5.14984130859375	-3.467559814453125	10.273519323730468	0.4471171600341797	-0.508169302368164	3.009796142578125	-4.4403076171875	-1.5716552734375	
247	0.988	0.0	0.0	0.0	0.0	0.003	0.003	0.003	0.003	9.970652813720703	-0.1801636749267578	0.032920272827148434	1.7852783203125	-3.627777099609375	-0.644683837890625	9.791686239624022	0.4225765930175781	0.19871873779296872	0.1068115234375	-5.077362060546875	-3.5400390625	10.190320816040039	0.3489548919677734	-0.31663316955566406	2.887725830078125	-4.665374755859375	-1.68609619140625	
248	0.992	0.0	0.0	0.0	0.0	0.006	0.003	0.003	0.006	9.840168823242188	0.3184288208007812	0.14963760375976562	3.955841064453125	-4.49371337890625	-0.66375732421875	9.828197814941406	0.6554127044677734	0.09157821350097656	1.12152099609375	-4.9896240234375	-3.208160400390625	10.142436782836914	0.47584757995605464	-0.4255693450927734	2.838134765625	-4.467010498046875	-1.60980224609375	
249	0.996	0.0	0.0	0.0	0.0	0.006	0.006	0.006	0.006	9.670180505371093	0.3860650177001953	0.32920272827148434	3.97491455078125	-4.611968994140625	-0.823974609375	9.675567459106444	0.4860229370117187	0.4483142608642578	0.560760498046875	-5.344390869140625	-3.3111572265625	10.085574493408203	0.4572925170898437	-0.28969840087890625	3.093719482421875	-4.886627197265625	-1.28936767578125	
250	1.0	0.0	0.0	0.0	0.0	0.006	0.006	0.006	0.006	9.995791931152343	0.06284779357910156	-0.08200140686035155	4.38690185546875	-4.848480224609375	-0.621795654296875	9.988609326171874	0.612915625	-0.09816226806640624	1.06048583984375	-4.8370361328125	-3.139495849609375	10.322600457763672	0.37708676147460934	-0.5231330627441406	2.98309326171875	-4.638671875	-1.708984375	
251	1.004	0.0	0.0	0.0	0.0	0.012	0.006	0.006	0.006	9.631873278808593	0.34715924072265625	0.4016273284912109	4.12750244140625	-4.33349609375	-0.77056884765625	9.673771807861328	0.5434837768554687	0.4746504791259765	0.42724609375	-5.161285400390625	-3.345489501953125	10.095151300048828	0.48183308410644526	-0.28311434631347654	3.086090087890625	-4.497528076171875	-1.529693603515625	
252	1.008	0.0	0.0	0.0	0.0	0.003	0.006	0.003	0.006	9.903615167236328	0.13168109130859373	0.05566518859863281	4.283905029296875	-4.89044189453125	-0.5035400390625	9.89523546142578	0.5668272430419922	-0.00718260498046875	0.6866455078125	-5.107879638671875	-3.2958984375	10.155006341552733	0.5213374114990235	-0.4147954376220703	2.73895263671875	-4.76837158203125	-1.46484375	
253	1.012	0.0	0.0	0.0	0.0	0.009000000000000001	0.006	0.003	0.003	9.632471829223633	0.2998737579345703	0.3854664672851562	3.7689208984375	-4.31060791015625	-0.8544921875	9.749189160156249	0.5674257934570313	0.4327519500732422	0.61798095703125	-5.18035888671875	-3.387451171875	10.218452685546874	0.41419688720703124	-0.3950432739257812	3.086090087890625	-4.85992431640625	-1.4495849609375	
254	1.016	0.0	0.0	0.0	0.0	0.009000000000000001	0.003	0.003	0.006	9.849745629882811	-0.3220201232910156	0.11432312927246092	-1.331329345703125	-1.239776611328125	-1.35040283203125	10.037091909790039	0.5584475372314452	-0.06703764648437499	0.7781982421875	-4.886627197265625	-3.559112548828125	10.235212097167969	0.4165910888671875	-0.4560954162597656	2.803802490234375	-4.505157470703125	-1.73187255859375	
255	1.02	0.0	0.0	0.0	0.0	0.003	0.006	0.003	0.006	9.558850128173827	0.2861070983886719	0.48722003784179685	2.948760986328125	-3.692626953125	-0.675201416015625	9.627084875488281	0.7032967376708984	0.5345055206298828	0.720977783203125	-5.290985107421875	-3.3416748046875	9.708487731933593	0.38187516479492184	0.0939724151611328	2.681732177734375	-4.901885986328125	-2.086639404296875	
256	1.024	0.0	0.0	0.0	0.0	0.006	0.003	0.003	0.006	9.849745629882811	-0.258573779296875	0.1131260284423828	-1.491546630859375	-1.255035400390625	-1.178741455078125	10.02990930480957	0.5129577056884765	-0.08499415893554688	0.812530517578125	-5.283355712890625	-3.131866455078125	10.269329470825195	0.45190556335449217	-0.5386953735351562	2.819061279296875	-4.734039306640625	-1.57928466796875	
257	1.028	0.0	0.0	0.0	0.0	0.003	0.003	0.003	0.006	9.620500820922851	0.09935936889648436	0.36391865234375	-0.263214111328125	-2.086639404296875	-1.079559326171875	9.64623848876953	0.5410895751953124	0.3896563201904297	0.213623046875	-4.84466552734375	-3.76129150390625	9.892841259765625	0.2059013427734375	-0.002992752075195312	2.57110595703125	-4.787445068359375	-2.277374267578125	
258	1.032	0.0	0.0	0.0	0.0	0.006	0.006	0.006	0.006	9.804854348754882	-0.10354922180175781	0.15442600708007811	-0.9002685546875	-1.678466796875	-1.01470947265625	10.01015714111328	0.5398924743652344	-0.08918401184082031	1.01470947265625	-5.092620849609375	-3.60870361328125	9.822212310791015	0.6177040283203125	-0.029328970336914062	2.437591552734375	-4.932403564453125	-2.0751953125	
259	1.036	0.0	0.0	0.0	0.0	0.006	0.006	0.003	0.003	9.829993466186522	-0.0047884033203125	-0.033518823242187495	0.32806396484375	-2.246856689453125	-1.09100341796875	9.55106897277832	0.6793547210693359	0.48123453369140623	0.446319580078125	-5.07354736328125	-3.77655029296875	9.79946739501953	0.2867056488037109	0.04608838195800781	2.62451171875	-4.932403564453125	-1.865386962890625	
260	1.04	0.0	0.0	0.0	0.0	0.006	0.003	0.003	0.006	9.805452899169921	-0.1083376251220703	0.15203180541992187	-0.713348388671875	-1.708984375	-1.186370849609375	9.828197814941406	0.41419688720703124	0.05327098693847656	0.6103515625	-5.115509033203125	-3.200531005859375	9.996989031982421	0.5386953735351562	-0.19213468322753904	2.50244140625	-4.82177734375	-1.953125	
261	1.044	0.0	0.0	0.0	0.0	0.003	0.006	0.003	0.006	9.795876092529296	0.022744915771484374	0.002992752075195312	0.293731689453125	-2.26593017578125	-1.2969970703125	9.5384994140625	0.6607996582031249	0.4740519287109375	0.22125244140625	-4.96673583984375	-3.92913818359375	9.76774422302246	0.21188684692382811	0.008978256225585938	2.5787353515625	-4.596710205078125	-1.728057861328125	
262	1.048	0.0	0.0	0.0	0.0	0.0	0.003	0.006	0.003	9.858723886108399	0.31004911499023435	-0.11851298217773437	2.376556396484375	-3.7078857421875	-0.965118408203125	9.749787710571288	0.5279214660644531	0.09457096557617187	0.453948974609375	-5.290985107421875	-3.30352783203125	9.880870251464843	0.6907271789550781	-0.13108254089355467	2.67791748046875	-5.07354736328125	-2.00653076171875	
263	1.052	0.0	0.0	0.0	0.0	0.003	0.006	0.006	0.003	9.84555577697754	0.07841010437011718	-0.061650692749023434	0.9307861328125	-2.422332763671875	-1.308441162109375	9.669581954956055	0.48722003784179685	0.22026655273437498	0.057220458984375	-4.695892333984375	-3.513336181640625	9.834183319091796	0.22385785522460935	-0.07601590270996093	2.73895263671875	-4.638671875	-1.77001953125	
264	1.056	0.0	0.0	0.0	0.0	0.0	0.006	0.003	0.003	9.871293444824218	0.19093758239746092	-0.07781155395507812	2.73895263671875	-3.997802734375	-0.827789306640625	9.771934075927733	0.4465186096191406	0.09636661682128905	0.507354736328125	-4.9591064453125	-3.337860107421875	9.925162982177733	0.5363011718749999	-0.1322796417236328	2.574920654296875	-4.802703857421875	-1.99127197265625	
265	1.06	0.0	0.0	0.0	0.0	2.037	4.641	4.647	4.6080000000000005	9.731831198120117	0.09277531433105468	0.1149216796875	0.949859619140625	-2.6702880859375	-1.216888427734375	9.524134204101562	0.6141127258300781	0.34835634155273437	0.0762939453125	-4.69970703125	-3.604888916015625	9.702502227783203	0.3028665100097656	-0.10115502014160156	2.35748291015625	-4.46319580078125	-1.705169677734375	
266	1.064	0.0	0.0	0.0	0.0	4.626	4.644	4.65	4.617	9.91438907470703	0.421978042602539	-0.08439560852050781	2.83050537109375	-3.871917724609375	-0.64849853515625	9.835978970336914	0.5147533569335937	-0.0005985504150390625	0.804901123046875	-5.21087646484375	-2.92205810546875	9.941922393798828	0.556053335571289	-0.16041151123046873	2.788543701171875	-4.871368408203125	-1.857757568359375	
267	1.068	0.0	0.0	0.0	0.0	4.626	4.65	4.6530000000000005	4.617	10.013748443603514	0.20350714111328125	-0.17956512451171874	5.3558349609375	-5.680084228515625	-0.946044921875	9.598354455566406	0.5602431884765625	0.3016694091796875	0.29754638671875	-4.730224609375	-3.72314453125	9.842563024902343	0.16879121704101563	-0.06823474731445311	2.552032470703125	-4.596710205078125	-1.77764892578125	
268	1.072	0.0	0.0	0.0	0.0	4.617	4.65	4.65	4.623	9.829394915771484	0.373495458984375	0.031124621582031248	3.284454345703125	-4.55474853515625	-0.583648681640625	9.692925421142577	0.4704606262207031	0.13587094421386717	0.6103515625	-5.2947998046875	-3.1280517578125	9.798270294189452	0.5099649536132812	-0.04848258361816406	2.872467041015625	-4.66156005859375	-1.895904541015625	
269	1.076	0.0	0.0	0.0	0.0	4.614	4.65	4.647	4.626	9.99160207824707	0.2555810272216797	-0.11013327636718749	5.435943603515625	-5.71441650390625	-0.51116943359375	9.884461553955077	0.5895721588134766	-0.04848258361816406	0.63323974609375	-5.214691162109375	-3.28826904296875	10.210072979736328	0.5668272430419922	-0.5213374114990235	3.12042236328125	-4.589080810546875	-1.308441162109375	
270	1.08	0.0	0.0	0.0	0.0	4.626	4.6530000000000005	4.6530000000000005	4.6080000000000005	9.970054263305663	0.24959552307128904	-0.16519991455078123	5.756378173828125	-5.886077880859375	-0.469207763671875	9.853935482788085	0.4129997863769531	-0.008379705810546874	1.03759765625	-5.268096923828125	-3.36456298828125	9.995791931152343	0.3962403747558593	-0.13646949462890623	2.689361572265625	-4.734039306640625	-1.7852783203125	
271	1.084	0.0	0.0	0.0	0.0	4.6290000000000004	4.6530000000000005	4.6530000000000005	4.602	9.974244116210937	0.2998737579345703	-0.09636661682128905	6.103515625	-5.970001220703125	-0.537872314453125	9.859920986938477	0.5297171173095703	0.025737667846679687	0.797271728515625	-4.87518310546875	-3.292083740234375	10.242394702148436	0.4542997650146484	-0.5045779998779296	2.880096435546875	-4.413604736328125	-1.373291015625	
272	1.088	0.0	0.0	0.0	0.0	4.6290000000000004	4.65	4.6530000000000005	4.6080000000000005	9.898826763916015	0.11372457885742186	0.1484405029296875	5.702972412109375	-5.596160888671875	-0.3814697265625	9.668983404541015	0.5692214447021484	0.21308394775390624	1.026153564453125	-5.53131103515625	-3.055572509765625	9.943119494628906	0.4004302276611328	-0.2154781494140625	3.0670166015625	-4.871368408203125	-1.7242431640625	
273	1.092	0.0	0.0	0.0	0.0	4.623	4.6530000000000005	4.6530000000000005	4.62	10.040084661865233	0.1388636962890625	-0.1562216583251953	5.31768798828125	-5.382537841796875	-0.591278076171875	10.013748443603514	0.4572925170898437	-0.1867477294921875	0.652313232421875	-5.031585693359375	-3.1890869140625	10.38664535217285	0.5063736511230469	-0.7170633972167968	3.21197509765625	-4.604339599609375	-1.255035400390625	
274	1.096	0.0	0.0	0.0	0.0	4.623	4.6530000000000005	4.6530000000000005	4.623	9.963470208740233	0.25438392639160157	-0.0430956298828125	5.47027587890625	-5.641937255859375	-0.415802001953125	9.832986218261718	0.6637924102783203	0.21487959899902342	0.705718994140625	-5.24139404296875	-3.261566162109375	10.144232434082031	0.2902969512939453	-0.2932897033691406	2.9449462890625	-4.657745361328125	-1.697540283203125	
275	1.1	0.0	0.0	0.0	0.0	4.62	4.6530000000000005	4.6530000000000005	4.623	9.958681805419921	-0.143652099609375	-0.004189852905273437	3.2501220703125	-4.4097900390625	-0.911712646484375	9.769539874267577	0.4997895965576172	0.143652099609375	0.530242919921875	-4.878997802734375	-3.41796875	10.113706362915039	0.5811924530029297	-0.45070846252441404	2.716064453125	-4.543304443359375	-1.495361328125	
276	1.104	0.0	0.0	0.0	0.0	4.614	4.65	4.647	4.626	9.912593423461914	0.35134909362792965	0.105344873046875	6.85882568359375	-6.3934326171875	-0.41961669921875	9.841964474487304	0.7673416320800781	0.1975216369628906	0.9918212890625	-5.10406494140625	-2.826690673828125	10.14542953491211	0.41958384094238277	-0.42317514343261714	3.131866455078125	-5.16510009765625	-1.60980224609375	
277	1.108	0.0	0.0	0.0	0.0	4.626	4.6530000000000005	4.656	0.003	10.076596237182617	-0.3184288208007812	-0.1693897674560547	2.315521240234375	-3.66973876953125	-1.033782958984375	10.184933862304687	0.29388825378417965	-0.18854338073730467	0.762939453125	-5.069732666015625	-3.2501220703125	10.29207438659668	0.5051765502929687	-0.40402153015136716	2.99835205078125	-4.421234130859375	-1.70135498046875	
278	1.112	0.0	0.0	0.0	0.0	0.003	0.006	0.003	0.003	9.789292037963866	0.12330138549804687	0.2214636535644531	5.2947998046875	-5.580902099609375	-0.331878662109375	9.711480484008788	0.6865373260498047	0.3184288208007812	0.644683837890625	-5.077362060546875	-2.8533935546875	9.986813674926758	0.37289690856933594	-0.25438392639160157	3.376007080078125	-4.6234130859375	-1.70135498046875	
279	1.116	0.0	0.0	0.0	0.0	0.006	0.003	0.003	0.003	9.990404977416992	-0.1466448516845703	-0.03232172241210937	2.201080322265625	-3.84521484375	-0.606536865234375	10.024522351074218	0.5105635040283203	-0.08080430603027343	1.094818115234375	-5.207061767578125	-3.337860107421875	10.134655627441406	0.6596025573730468	-0.3280056274414062	2.899169921875	-4.756927490234375	-1.4801025390625	
280	1.12	0.0	0.0	0.0	0.0	0.003	0.003	0.006	0.003	9.765948571777344	-0.2424129180908203	0.21248539733886718	0.759124755859375	-2.857208251953125	-1.224517822265625	9.765948571777344	0.7841010437011718	0.2041056915283203	0.9765625	-4.98199462890625	-3.18145751953125	9.87608184814453	0.23882161560058593	0.0939724151611328	2.162933349609375	-4.66156005859375	-1.73187255859375	
281	1.124	0.0	0.0	0.0	0.0	0.003	0.003	0.003	0.009000000000000001	9.9078050201416	-0.27353753967285155	0.058657940673828124	2.1820068359375	-3.688812255859375	-1.071929931640625	10.020931048583984	0.316034619140625	0.017956512451171875	0.446319580078125	-4.894256591796875	-3.650665283203125	10.237606298828124	0.4632780212402344	-0.3459621398925781	2.658843994140625	-4.69970703125	-1.739501953125	
282	1.1280000000000001	0.0	0.0	0.0	0.0	0.006	0.006	0.003	0.006	9.603741409301758	-0.10893617553710937	0.43933600463867184	-0.431060791015625	-1.720428466796875	-1.026153564453125	9.503783489990234	0.9307458953857422	0.40222587890625	0.48828125	-5.214691162109375	-3.467559814453125	9.607332711791992	0.39324762268066404	0.25318682556152344	2.43377685546875	-4.901885986328125	-2.1209716796875	
283	1.1320000000000001	0.0	0.0	0.0	0.0	0.006	0.003	0.003	0.003	9.991003527832031	-0.3435679382324219	-0.013766659545898436	0.3509521484375	-2.49481201171875	-0.843048095703125	9.755773214721678	0.3968389251708984	0.23822306518554687	0.202178955078125	-4.924774169921875	-3.4027099609375	9.954491952514648	0.5303156677246094	-0.2454056701660156	2.773284912109375	-4.810333251953125	-1.880645751953125	
284	1.1360000000000001	0.0	0.0	0.0	0.0	0.003	0.003	0.006	0.003	9.79946739501953	-0.2424129180908203	0.12629413757324218	-0.9765625	-1.3580322265625	-1.308441162109375	9.74799205932617	0.8415618835449218	0.23702596435546874	0.743865966796875	-5.16510009765625	-3.204345703125	9.93354268798828	0.20470424194335937	0.12988544006347655	2.269744873046875	-4.5013427734375	-2.094268798828125	
285	1.1400000000000001	0.0	0.0	0.0	0.0	0.003	0.003	0.006	0.006	9.698910925292969	-0.012569558715820313	0.26815058593749996	0.335693359375	-2.38037109375	-1.331329345703125	9.567828384399414	0.3345896820068359	0.5446808776855468	0.347137451171875	-4.650115966796875	-3.54766845703125	9.753379013061522	0.4961982940673828	-0.006584054565429687	2.40325927734375	-4.558563232421875	-1.918792724609375	
286	1.1440000000000001	0.0	0.0	0.0	0.0	0.009000000000000001	0.003	0.003	0.003	9.712079034423828	-0.14245499877929688	0.3333925811767578	-1.2054443359375	-1.300811767578125	-1.079559326171875	9.557653027343749	0.7864952453613281	0.2699462371826172	0.49591064453125	-5.031585693359375	-3.62396240234375	9.801263046264648	0.42018239135742186	0.08798691101074219	2.475738525390625	-4.55474853515625	-2.010345458984375	
287	1.1480000000000001	0.0	0.0	0.0	0.0	0.006	0.006	0.003	0.003	9.889848507690429	0.03591302490234375	-0.09038111267089843	-0.286102294921875	-1.674652099609375	-1.087188720703125	9.86411083984375	0.30047230834960936	0.23104046020507812	0.18310546875	-5.039215087890625	-3.612518310546875	10.041281762695311	0.3920505218505859	-0.2184709014892578	2.5482177734375	-4.57000732421875	-1.91497802734375	
288	1.1520000000000001	0.0	0.0	0.0	0.0	0.006	0.006	0.006	0.003	9.916783276367187	0.26755203552246093	-0.010175357055664061	2.593994140625	-3.25775146484375	-0.9002685546875	9.579799392700195	0.6165069274902344	0.2723404388427734	0.762939453125	-4.680633544921875	-3.818511962890625	9.763554370117188	0.33399113159179683	-0.002992752075195312	2.376556396484375	-4.467010498046875	-2.010345458984375	
289	1.156	0.0	0.0	0.0	0.0	0.003	0.006	0.006	0.006	9.77432827758789	0.354940396118164	0.07841010437011718	2.223968505859375	-3.50189208984375	-0.820159912109375	9.53790086364746	0.5159504577636719	0.20769699401855468	0.553131103515625	-5.252838134765625	-3.070831298828125	9.744400756835937	0.5913678100585937	-0.06344634399414062	2.3345947265625	-4.817962646484375	-1.972198486328125	
290	1.16	0.0	0.0	0.0	0.0	0.006	0.003	0.003	0.003	10.014945544433592	0.3028665100097656	-0.14125789794921875	4.222869873046875	-4.7149658203125	-0.64849853515625	9.70968483276367	0.6051344696044921	0.12090718383789062	0.507354736328125	-4.779815673828125	-3.726959228515625	9.829993466186522	0.4375403533935547	-0.13946224670410157	2.628326416015625	-4.550933837890625	-1.57928466796875	
291	1.164	0.0	0.0	0.0	0.0	0.003	0.003	0.003	0.003	9.86411083984375	0.1274912384033203	-0.11911153259277343	1.861572265625	-2.76947021484375	-1.316070556640625	9.740809454345703	0.3220201232910156	0.029328970336914062	0.40435791015625	-5.092620849609375	-3.276824951171875	9.99220062866211	0.2280477081298828	-0.24899697265624998	2.87628173828125	-4.695892333984375	-1.77001953125	
292	1.168	0.0	0.0	0.0	0.0	0.003	0.003	0.006	0.006	9.9215716796875	0.4483142608642578	-0.03172317199707031	4.413604736328125	-5.096435546875	-0.75531005859375	9.502586389160156	0.7410054138183594	0.21248539733886718	0.762939453125	-5.069732666015625	-3.437042236328125	9.555857376098633	0.507570751953125	0.07302315063476562	2.3956298828125	-4.73785400390625	-1.941680908203125	
293	1.172	0.0	0.0	0.0	0.0	0.003	0.006	0.003	0.003	10.050858569335936	0.062249243164062495	-0.16639701538085935	5.718231201171875	-6.1187744140625	-0.370025634765625	9.71686743774414	0.4100070343017578	-0.04967968444824218	0.598907470703125	-5.443572998046875	-3.0670166015625	9.765948571777344	0.4878185882568359	-0.03411737365722656	2.75421142578125	-4.894256591796875	-1.598358154296875	
294	1.176	0.0	0.0	0.0	0.0	0.003	0.006	0.006	0.003	10.084377392578125	0.06883329772949218	-0.21009119567871093	5.4168701171875	-5.451202392578125	-0.705718994140625	10.014346994018554	0.44412440795898434	-0.1388636962890625	0.8087158203125	-5.05828857421875	-3.078460693359375	10.43213518371582	0.32441432495117184	-0.4860229370117187	2.658843994140625	-4.34112548828125	-1.54876708984375	
295	1.18	0.0	0.0	0.0	0.0	0.006	0.003	0.003	0.006	9.926360083007811	-0.26815058593749996	0.105344873046875	4.24957275390625	-5.321502685546875	-0.5340576171875	9.607332711791992	0.43634325256347656	-0.01975216369628906	0.690460205078125	-5.321502685546875	-3.33404541015625	9.704297879028319	0.4100070343017578	0.04848258361816406	2.674102783203125	-4.82940673828125	-1.77764892578125	
296	1.184	0.0	0.0	0.0	0.0	0.009000000000000001	0.003	0.006	0.006	9.98561657409668	0.3238157745361328	-0.06943184814453125	1.79290771484375	-3.391265869140625	-0.7171630859375	9.794678991699218	0.6482300994873047	-0.05626373901367187	1.0223388671875	-5.367279052734375	-3.047943115234375	10.03050785522461	0.6578069061279297	-0.26755203552246093	2.93731689453125	-4.29534912109375	-1.338958740234375	
297	1.188	0.0	0.0	0.0	0.0	0.006	0.003	0.003	0.003	10.02332525024414	-0.5123591552734374	0.11252747802734374	3.76129150390625	-5.023956298828125	-0.354766845703125	9.944915145874022	0.4878185882568359	0.32561142578124996	0.701904296875	-5.0506591796875	-3.414154052734375	10.051457119750976	0.3226186737060547	-0.0796072052001953	2.941131591796875	-4.749298095703125	-1.407623291015625	
298	1.192	0.0	0.0	0.0	0.0	0.003	0.003	0.003	0.003	9.797073193359374	-0.13587094421386717	0.38367081604003905	1.617431640625	-2.925872802734375	-0.537872314453125	9.811438403320311	0.5392939239501953	0.14185644836425781	0.84686279296875	-4.901885986328125	-3.536224365234375	10.31661495361328	0.28431144714355466	-0.4572925170898437	2.67791748046875	-4.520416259765625	-1.796722412109375	
299	1.196	0.0	0.0	0.0	0.0	0.003	0.006	0.003	0.003	9.763554370117188	-0.06105214233398437	0.4674678741455078	2.44140625	-4.058837890625	-0.579833984375	9.65282254333496	0.5823895538330078	0.49679684448242184	0.316619873046875	-5.28717041015625	-3.5400390625	9.916783276367187	0.5710170959472656	-0.20470424194335937	3.0517578125	-4.795074462890625	-1.678466796875	
300	1.2	0.0	0.0	0.0	0.0	0.003	0.003	0.006	0.006	9.952696301269532	-0.08499415893554688	0.12210428466796874	0.919342041015625	-2.685546875	-0.835418701171875	10.041281762695311	0.6278793853759765	-0.020350714111328123	1.079559326171875	-5.031585693359375	-3.192901611328125	10.395025057983398	0.36272155151367186	-0.623090982055664	2.93731689453125	-4.383087158203125	-1.422882080078125	
301	1.204	0.0	0.0	0.0	0.0	0.003	0.003	0.003	0.009000000000000001	9.785102185058593	0.2184709014892578	0.07302315063476562	2.22015380859375	-3.383636474609375	-1.12152099609375	9.91558617553711	0.46028526916503903	0.27353753967285155	0.530242919921875	-4.833221435546875	-3.631591796875	10.281300479125976	0.29388825378417965	-0.3854664672851562	3.08990478515625	-4.4097900390625	-1.77001953125	
302	1.208	0.0	0.0	0.0	0.0	0.003	0.003	0.003	0.006	9.885658654785155	0.004189852905273437	0.11432312927246092	2.300262451171875	-3.53240966796875	-0.67138671875	9.832986218261718	0.5722141967773438	0.11791443176269531	0.980377197265625	-4.99725341796875	-3.21197509765625	10.01733974609375	0.4830301849365234	-0.3172317199707031	2.67791748046875	-4.650115966796875	-1.8463134765625	
303	1.212	0.0	0.0	0.0	0.0	0.003	0.006	0.003	0.006	9.685742816162108	0.3848679168701172	0.18435352783203124	3.143310546875	-4.268646240234375	-0.6561279296875	9.587580548095703	0.7224503509521484	0.421978042602539	0.54931640625	-5.10406494140625	-3.093719482421875	10.084377392578125	0.5225345123291015	-0.25917232971191406	2.93731689453125	-4.66156005859375	-1.5106201171875	
304	1.216	0.0	0.0	0.0	0.0	0.006	0.003	0.006	0.006	10.122086068725585	-0.17477672119140625	-0.22206220397949217	3.040313720703125	-4.131317138671875	-0.69427490234375	10.171765753173828	0.5123591552734374	-0.21068974609375	1.15203857421875	-4.7760009765625	-3.4027099609375	10.436325036621094	0.34715924072265625	-0.5644330413818359	2.90679931640625	-4.604339599609375	-1.682281494140625	
305	1.22	0.0	0.0	0.0	0.0	0.006	0.006	0.006	0.006	9.558850128173827	0.3315969299316406	0.40462008056640625	4.024505615234375	-4.520416259765625	-0.926971435546875	9.539696514892578	0.6147112762451171	0.526125814819336	0.78582763671875	-4.8980712890625	-3.658294677734375	9.80066449584961	0.21906945190429686	0.09935936889648436	2.536773681640625	-4.6539306640625	-2.460479736328125	
306	1.224	0.0	0.0	0.0	0.0	0.003	0.006	0.006	0.006	9.65342109375	0.061650692749023434	0.3651157531738281	-0.20599365234375	-2.460479736328125	-1.18255615234375	9.724050042724608	0.7188590484619141	0.086191259765625	0.576019287109375	-5.290985107421875	-3.559112548828125	10.020931048583984	0.6865373260498047	-0.36152445068359373	2.99835205078125	-4.82940673828125	-1.373291015625	
