	time	dac1	dac2	dac3	dac4	adc1.3	adc2.3	adc3.3	adc4.3	imu1accx	imu1accy	imu1accz	imu1gyrox	imu1gyroy	imu1gyroz	imu2accx	imu2accy	imu2accz	imu2gyrox	imu2gyroy	imu2gyroz	imu3accx	imu3accy	imu3accz	imu3gyrox	imu3gyroy	imu3gyroz	log
0	0.0	0.0	0.0	0.0	0.0	4.6290000000000004	4.6530000000000005	4.659	4.6290000000000004	9.867103591918944	-0.040102877807617184	0.12629413757324218	2.46429443359375	-3.7384033203125	-0.83160400390625	9.783905084228515	0.4674678741455078	0.23882161560058593	0.8087158203125	-4.993438720703125	-3.368377685546875	9.991003527832031	0.34117373657226563	-0.12808978881835936	2.7618408203125	-4.711151123046875	-1.60980224609375	Estabizou em 7s, 1440 rpm
1	0.004	0.0	0.0	0.0	0.0	4.626	4.656	4.656	4.626	9.864709390258788	-0.027533319091796873	0.13766659545898435	2.655029296875	-3.6468505859375	-0.9613037109375	9.782109432983399	0.4752490295410156	0.2609679809570312	0.530242919921875	-4.791259765625	-3.154754638671875	9.974842666625976	0.35134909362792965	-0.10235212097167969	2.78472900390625	-4.638671875	-1.735687255859375	Started
2	0.008	0.0	0.0	0.0	0.0	4.623	4.656	4.6530000000000005	4.632	9.861118087768554	-0.027533319091796873	0.1484405029296875	2.51007080078125	-3.658294677734375	-0.965118408203125	9.773131176757811	0.469263525390625	0.2609679809570312	0.354766845703125	-4.94384765625	-3.4942626953125	9.97783541870117	0.3585316986083984	-0.11671733093261719	2.83050537109375	-4.512786865234375	-1.59454345703125	IMU1|LSM6DS3|0x6A|I2C-1|±2g (±19,6m/s²)|±125º/s|400Hz
3	0.012	0.0	0.0	0.0	0.0	4.632	4.656	4.656	4.62	9.87608184814453	-0.04908113403320312	0.13646949462890623	2.62451171875	-3.89862060546875	-0.751495361328125	9.782707983398437	0.43993455505371093	0.26276363220214843	0.67138671875	-5.306243896484375	-3.414154052734375	9.982025271606444	0.31064766540527344	-0.11791443176269531	2.72369384765625	-4.810333251953125	-1.750946044921875	IMU2|LSM6DS3|0x6B|I2C-1|±2g (±19,6m/s²)|±125º/s|400Hz
4	0.016	0.0	0.0	0.0	0.0	4.6290000000000004	4.656	4.656	4.611	9.867103591918944	-0.06404489440917968	0.1292868896484375	2.46429443359375	-3.650665283203125	-0.9307861328125	9.785102185058593	0.430956298828125	0.2555810272216797	0.6866455078125	-5.001068115234375	-3.27301025390625	9.980828170776366	0.30406361083984373	-0.12210428466796874	2.69317626953125	-4.5928955078125	-1.895904541015625	IMU3|LSM6DS3|0x6B|I2C-2|±2g (±19,6m/s²)|±125º/s|400Hz
5	0.02	0.0	0.0	0.0	0.0	4.632	4.656	4.656	4.614	9.85692823486328	-0.04249707946777344	0.13108254089355467	2.597808837890625	-3.85284423828125	-0.888824462890625	9.770736975097655	0.4590881683349609	0.2555810272216797	0.469207763671875	-5.001068115234375	-3.261566162109375	9.968258612060547	0.32920272827148434	-0.11073182678222655	2.773284912109375	-4.791259765625	-1.62506103515625	ADC|ADS1015|0|0|1|0|±6,144 V|2400 SPS
6	0.024	0.0	0.0	0.0	0.0	4.635	4.65	4.656	4.623	9.854534033203125	-0.05087678527832031	0.12988544006347655	2.54058837890625	-3.818511962890625	-0.885009765625	9.77432827758789	0.4560954162597656	0.24899697265624998	0.820159912109375	-5.14984130859375	-3.28826904296875	9.973047015380859	0.33758243408203126	-0.13766659545898435	2.64739990234375	-4.734039306640625	-1.743316650390625	Gen1|Disabled
7	0.028	0.0	0.0	0.0	0.0	4.632	4.656	4.656	4.623	9.86291373901367	-0.03890577697753906	0.11192892761230468	2.666473388671875	-3.787994384765625	-0.934600830078125	9.779116680908203	0.4513070129394531	0.2316390106201172	0.591278076171875	-5.084991455078125	-3.41033935546875	9.983820922851562	0.31663316955566406	-0.15861585998535155	2.52532958984375	-4.528045654296875	-1.819610595703125	Gen2|Enabled|Noise|0.0|10.0|1668
8	0.032	0.0	0.0	0.0	0.0	4.626	4.656	4.6530000000000005	4.6290000000000004	9.8694977935791	-0.018555062866210937	0.12030863342285156	2.353668212890625	-3.63922119140625	-0.7476806640625	9.781510882568359	0.47285482788085936	0.2292448089599609	0.736236572265625	-4.974365234375	-3.505706787109375	9.97903251953125	0.35613749694824215	-0.16340426330566404	2.826690673828125	-4.64630126953125	-1.8310546875	Gen3|Enabled|Noise|0.0|10.0|128
9	0.036000000000000004	0.0	0.0	0.0	0.0	4.623	4.656	4.6530000000000005	4.635	9.867103591918944	-0.008978256225585938	0.13108254089355467	2.422332763671875	-4.138946533203125	-0.95367431640625	9.78031378173828	0.49799394531249996	0.21906945190429686	0.667572021484375	-5.168914794921875	-3.35693359375	9.974244116210937	0.36930560607910157	-0.1640028137207031	2.716064453125	-4.505157470703125	-1.82342529296875	Gen4|Enabled|Noise|0.0|10.0|128
10	0.04	0.0	0.0	0.0	0.0	4.635	4.656	4.656	4.617	9.87069489440918	0.00239420166015625	0.10235212097167969	2.407073974609375	-3.90625	-0.91552734375	9.782707983398437	0.4878185882568359	0.2136824981689453	0.553131103515625	-4.932403564453125	-3.57818603515625	9.979631069946288	0.35673604736328124	-0.17058686828613281	2.777099609375	-4.5318603515625	-1.83868408203125	Ctrl|Disabled
11	0.044	0.0	0.0	0.0	0.0	4.6290000000000004	4.656	4.656	4.614	9.874884747314452	0.027533319091796873	0.09576806640624999	2.31170654296875	-3.8909912109375	-0.9765625	9.779116680908203	0.5141548065185546	0.20530279235839843	0.537872314453125	-5.092620849609375	-3.2806396484375	9.986215124511718	0.38845921936035155	-0.18914193115234373	2.399444580078125	-4.711151123046875	-1.739501953125	
12	0.048	0.0	0.0	0.0	0.0	4.632	4.656	4.656	4.617	9.8694977935791	0.04668693237304687	0.086191259765625	2.307891845703125	-3.60107421875	-0.972747802734375	9.764152920532226	0.5542576843261718	0.20171148986816406	0.827789306640625	-5.176544189453125	-3.48663330078125	9.97184991455078	0.42018239135742186	-0.18136077575683593	2.6092529296875	-4.558563232421875	-1.750946044921875	
13	0.052000000000000005	0.0	0.0	0.0	0.0	4.632	4.6530000000000005	4.656	4.626	9.87069489440918	0.05566518859863281	0.06643909606933593	2.38800048828125	-3.826141357421875	-0.804901123046875	9.776123928833007	0.5506663818359374	0.18854338073730467	0.51116943359375	-5.214691162109375	-3.322601318359375	9.97903251953125	0.421978042602539	-0.19632453613281248	2.7618408203125	-4.76837158203125	-1.865386962890625	
14	0.056	0.0	0.0	0.0	0.0	4.632	4.656	4.656	4.626	9.85692823486328	0.058657940673828124	0.05027823486328125	2.300262451171875	-3.77655029296875	-0.9918212890625	9.77492682800293	0.5572504364013672	0.1657984649658203	0.43487548828125	-4.93621826171875	-3.4027099609375	9.980828170776366	0.43993455505371093	-0.19632453613281248	2.574920654296875	-4.61578369140625	-1.7242431640625	
15	0.06	0.0	0.0	0.0	0.0	4.632	4.656	4.656	4.6290000000000004	9.853336932373047	0.08738836059570312	0.05985504150390625	2.2735595703125	-3.810882568359375	-0.682830810546875	9.765350021362304	0.6003460662841796	0.18375497741699218	0.774383544921875	-4.9591064453125	-3.44085693359375	9.97783541870117	0.46507367248535153	-0.20530279235839843	2.8533935546875	-4.787445068359375	-1.76239013671875	
16	0.064	0.0	0.0	0.0	0.0	4.623	4.6530000000000005	4.6530000000000005	4.635	9.874286196899414	0.10594342346191406	0.047285482788085934	2.3651123046875	-3.780364990234375	-0.946044921875	9.771335525512695	0.604535919189453	0.17118541870117188	0.51116943359375	-5.207061767578125	-3.37982177734375	9.965265859985351	0.48063598327636714	-0.20949264526367187	2.6397705078125	-4.7149658203125	-1.804351806640625	
17	0.068	0.0	0.0	0.0	0.0	4.635	4.656	4.656	4.62	9.880870251464843	0.11432312927246092	0.025139117431640625	2.62451171875	-3.79180908203125	-0.7781982421875	9.770138424682617	0.6141127258300781	0.15682020874023436	0.698089599609375	-5.130767822265625	-3.475189208984375	9.97184991455078	0.4914098907470703	-0.22026655273437498	2.40325927734375	-4.856109619140625	-1.827239990234375	
18	0.07200000000000001	0.0	0.0	0.0	0.0	4.632	4.656	4.659	4.611	9.875483297729492	0.13467384338378904	0.017357962036132813	2.483367919921875	-3.780364990234375	-0.92315673828125	9.770736975097655	0.6398503936767578	0.1388636962890625	0.5950927734375	-5.31005859375	-3.444671630859375	9.97244846496582	0.5093664031982421	-0.23882161560058593	2.704620361328125	-4.5166015625	-1.76239013671875	
19	0.076	0.0	0.0	0.0	0.0	4.6290000000000004	4.656	4.656	4.614	9.873089096069336	0.15981296081542967	0.017357962036132813	2.41851806640625	-3.917694091796875	-0.888824462890625	9.765948571777344	0.6590040069580078	0.1406593475341797	0.70953369140625	-5.1727294921875	-3.44085693359375	9.96586441040039	0.5339069702148437	-0.2232593048095703	2.5634765625	-4.756927490234375	-1.6326904296875	
20	0.08	0.0	0.0	0.0	0.0	4.638	4.65	4.656	4.626	9.86351228942871	0.181959326171875	0.014963760375976562	2.498626708984375	-3.8299560546875	-0.9613037109375	9.77432827758789	0.6793547210693359	0.14425065002441406	0.2899169921875	-5.10406494140625	-3.3111572265625	9.97903251953125	0.5410895751953124	-0.22565350646972654	2.70843505859375	-4.69207763671875	-1.682281494140625	
21	0.084	0.0	0.0	0.0	0.0	4.632	4.656	4.656	4.626	9.871891995239258	0.19153613281249998	0.00718260498046875	2.55584716796875	-3.917694091796875	-0.881195068359375	9.771934075927733	0.6793547210693359	0.13407529296874998	0.5645751953125	-4.932403564453125	-3.41796875	9.969455712890625	0.5482721801757812	-0.24480711975097655	2.544403076171875	-4.459381103515625	-1.80816650390625	
22	0.088	0.0	0.0	0.0	0.0	4.6290000000000004	4.656	4.656	4.6290000000000004	9.881468801879882	0.19931728820800781	0.008379705810546874	2.655029296875	-3.742218017578125	-0.81634521484375	9.771934075927733	0.699705435180664	0.13347674255371092	0.732421875	-5.06591796875	-3.421783447265625	9.955090502929687	0.5698199951171875	-0.2645592834472656	2.674102783203125	-4.55474853515625	-1.73187255859375	
23	0.092	0.0	0.0	0.0	0.0	4.623	4.6530000000000005	4.6530000000000005	4.6290000000000004	9.868300692749022	0.20350714111328125	0.013168109130859374	2.498626708984375	-3.742218017578125	-0.77056884765625	9.769539874267577	0.7020996368408202	0.12629413757324218	0.579833984375	-5.035400390625	-3.28826904296875	9.964667309570311	0.5883750579833984	-0.26815058593749996	2.7618408203125	-4.627227783203125	-1.811981201171875	
24	0.096	0.0	0.0	0.0	0.0	4.6290000000000004	4.656	4.656	4.617	9.8694977935791	0.1897404815673828	-0.001197100830078125	2.635955810546875	-4.154205322265625	-0.934600830078125	9.770138424682617	0.6949170318603515	0.11731588134765625	0.75531005859375	-5.2337646484375	-3.376007080078125	9.968258612060547	0.5728127471923827	-0.2753331909179687	2.689361572265625	-4.711151123046875	-1.949310302734375	
25	0.1	0.0	0.0	0.0	0.0	4.632	4.656	4.659	4.614	9.865906491088866	0.20051438903808594	-0.0047884033203125	2.43377685546875	-3.604888916015625	-0.84686279296875	9.766547122192382	0.6967126831054687	0.11073182678222655	0.774383544921875	-5.100250244140625	-3.51715087890625	9.970652813720703	0.5644330413818359	-0.27832594299316404	2.471923828125	-4.58526611328125	-1.827239990234375	
26	0.10400000000000001	0.0	0.0	0.0	0.0	4.635	4.656	4.656	4.617	9.872490545654296	0.20171148986816406	0.002992752075195312	2.32696533203125	-3.74603271484375	-0.946044921875	9.770736975097655	0.7056909393310546	0.1227028350830078	0.48065185546875	-5.035400390625	-3.444671630859375	9.961076007080077	0.5722141967773438	-0.26755203552246093	2.758026123046875	-4.547119140625	-1.720428466796875	
27	0.108	0.0	0.0	0.0	0.0	4.632	4.6530000000000005	4.656	4.626	9.866505041503906	0.19393033447265623	0.0053869537353515625	2.658843994140625	-3.787994384765625	-0.99945068359375	9.769539874267577	0.6853402252197265	0.12509703674316405	0.751495361328125	-5.062103271484375	-3.368377685546875	9.97184991455078	0.565031591796875	-0.2561795776367187	2.8228759765625	-4.72259521484375	-1.79290771484375	
28	0.112	0.0	0.0	0.0	0.0	4.6290000000000004	4.656	4.656	4.6290000000000004	9.880271701049804	0.16519991455078123	0.013168109130859374	2.529144287109375	-3.635406494140625	-0.7781982421875	9.77432827758789	0.670975015258789	0.12449848632812499	0.38909912109375	-4.99725341796875	-3.360748291015625	9.979631069946288	0.5303156677246094	-0.25139117431640623	2.62451171875	-4.63104248046875	-1.76239013671875	
29	0.116	0.0	0.0	0.0	0.0	4.6290000000000004	4.656	4.656	4.6290000000000004	9.874884747314452	0.15442600708007811	0.023942016601562498	2.29644775390625	-3.650665283203125	-0.99945068359375	9.775525378417969	0.6631938598632812	0.16220716247558592	0.553131103515625	-4.978179931640625	-3.41796875	9.983820922851562	0.526125814819336	-0.2567781280517578	2.773284912109375	-4.611968994140625	-1.7242431640625	
30	0.12	0.0	0.0	0.0	0.0	4.626	4.6530000000000005	4.6530000000000005	4.6290000000000004	9.859920986938477	0.13946224670410157	0.04967968444824218	2.574920654296875	-3.7841796875	-1.01470947265625	9.776123928833007	0.6434416961669921	0.16759411621093748	0.6256103515625	-5.054473876953125	-3.27301025390625	9.968857162475585	0.5117606048583984	-0.22206220397949217	2.67791748046875	-3.978729248046875	-1.8310546875	
31	0.124	0.0	0.0	0.0	0.0	4.6290000000000004	4.656	4.656	4.623	9.868899243164062	0.11133037719726561	0.05626373901367187	2.50244140625	-3.68499755859375	-0.888824462890625	9.770736975097655	0.6009446166992187	0.16998831787109375	0.453948974609375	-5.07354736328125	-3.39508056640625	9.982623822021484	0.469862075805664	-0.20649989318847656	2.44903564453125	-4.489898681640625	-1.644134521484375	
32	0.128	0.0	0.0	0.0	0.0	4.6290000000000004	4.656	4.656	4.614	9.866505041503906	0.07781155395507812	0.06284779357910156	2.338409423828125	-3.96728515625	-0.70953369140625	9.773729727172851	0.5704185455322265	0.18435352783203124	0.75531005859375	-5.176544189453125	-3.513336181640625	9.981426721191406	0.4387374542236328	-0.19931728820800781	2.6702880859375	-4.547119140625	-1.7547607421875	
33	0.132	0.0	0.0	0.0	0.0	4.632	4.656	4.656	4.614	9.85692823486328	0.047285482788085934	0.06883329772949218	2.3193359375	-3.56292724609375	-0.9307861328125	9.776722479248047	0.5512649322509765	0.20290859069824219	0.7476806640625	-4.985809326171875	-3.261566162109375	9.970652813720703	0.42377369384765623	-0.16879121704101563	2.552032470703125	-4.795074462890625	-1.861572265625	
34	0.136	0.0	0.0	0.0	0.0	4.632	4.6530000000000005	4.656	4.6290000000000004	9.86291373901367	0.020350714111328123	0.07362170104980469	2.513885498046875	-3.57818603515625	-0.827789306640625	9.76894132385254	0.5165490081787109	0.2088940948486328	0.614166259765625	-5.19561767578125	-3.2958984375	9.97783541870117	0.3872621185302734	-0.16160861206054686	2.941131591796875	-4.69970703125	-1.8157958984375	
35	0.14	0.0	0.0	0.0	0.0	4.6290000000000004	4.656	4.659	4.626	9.865906491088866	-0.013168109130859374	0.08738836059570312	2.410888671875	-3.7689208984375	-1.018524169921875	9.7683427734375	0.4848258361816406	0.229843359375	0.476837158203125	-4.7760009765625	-3.452301025390625	9.980229620361328	0.36810850524902344	-0.14544775085449219	2.52532958984375	-4.7149658203125	-1.804351806640625	
36	0.14400000000000002	0.0	0.0	0.0	0.0	4.6290000000000004	4.656	4.656	4.632	9.86351228942871	-0.030526071166992186	0.11073182678222655	2.40325927734375	-3.742218017578125	-0.98419189453125	9.778518130493163	0.47285482788085936	0.24361001892089842	0.67901611328125	-4.85992431640625	-3.231048583984375	9.970652813720703	0.3477577911376953	-0.14006079711914063	2.73895263671875	-4.863739013671875	-1.613616943359375	
37	0.148	0.0	0.0	0.0	0.0	4.623	4.656	4.656	4.632	9.858125335693359	-0.055066638183593745	0.1131260284423828	2.46429443359375	-3.734588623046875	-0.690460205078125	9.785102185058593	0.4513070129394531	0.23702596435546874	0.873565673828125	-5.146026611328125	-3.3416748046875	9.97783541870117	0.33099837951660155	-0.13347674255371092	2.46429443359375	-4.66156005859375	-1.476287841796875	
38	0.152	0.0	0.0	0.0	0.0	4.632	4.656	4.656	4.62	9.872490545654296	-0.07122749938964844	0.11013327636718749	2.574920654296875	-3.841400146484375	-0.812530517578125	9.78629928588867	0.4213794921875	0.22565350646972654	0.553131103515625	-4.8675537109375	-3.421783447265625	9.989806427001952	0.30466216125488277	-0.14006079711914063	2.826690673828125	-4.726409912109375	-1.76239013671875	
39	0.156	0.0	0.0	0.0	0.0	4.6290000000000004	4.656	4.656	4.614	9.864709390258788	-0.07302315063476562	0.11133037719726561	2.498626708984375	-3.662109375	-0.9765625	9.787496386718749	0.4213794921875	0.21607669982910155	0.621795654296875	-4.96673583984375	-3.2196044921875	9.995791931152343	0.29867665710449215	-0.16041151123046873	2.7923583984375	-4.848480224609375	-1.918792724609375	
40	0.16	0.0	0.0	0.0	0.0	4.632	4.656	4.656	4.614	9.86411083984375	-0.07721300354003906	0.12449848632812499	2.490997314453125	-3.444671630859375	-0.8392333984375	9.787496386718749	0.4213794921875	0.21787235107421873	0.74005126953125	-5.229949951171875	-3.4942626953125	9.981426721191406	0.2914940521240234	-0.1466448516845703	2.758026123046875	-4.89044189453125	-1.651763916015625	
41	0.164	0.0	0.0	0.0	0.0	4.632	4.6530000000000005	4.656	4.626	9.87009634399414	-0.08499415893554688	0.11133037719726561	2.38037109375	-3.631591796875	-0.6561279296875	9.781510882568359	0.41419688720703124	0.2262520568847656	0.579833984375	-5.126953125	-3.322601318359375	9.968258612060547	0.29089550170898437	-0.15502455749511718	2.674102783203125	-4.726409912109375	-1.67083740234375	
42	0.168	0.0	0.0	0.0	0.0	4.6290000000000004	4.656	4.656	4.6290000000000004	9.861716638183593	-0.09157821350097656	0.11851298217773437	2.655029296875	-3.963470458984375	-0.89263916015625	9.781510882568359	0.40402153015136716	0.22445640563964842	0.690460205078125	-4.871368408203125	-3.299713134765625	9.987412225341796	0.27952304382324217	-0.16280571289062498	2.7618408203125	-4.58526611328125	-1.621246337890625	
43	0.17200000000000001	0.0	0.0	0.0	0.0	4.6290000000000004	4.656	4.656	4.626	9.864709390258788	-0.08080430603027343	0.10893617553710937	2.34222412109375	-3.948211669921875	-0.885009765625	9.777321029663085	0.42018239135742186	0.2154781494140625	0.865936279296875	-5.2032470703125	-3.3721923828125	9.986215124511718	0.2825157958984375	-0.18734627990722655	2.55584716796875	-4.703521728515625	-1.880645751953125	
44	0.176	0.0	0.0	0.0	0.0	4.623	4.656	4.6530000000000005	4.632	9.860519537353515	-0.06883329772949218	0.10295067138671875	2.51007080078125	-3.650665283203125	-0.942230224609375	9.782707983398437	0.42975919799804685	0.20231004028320312	0.423431396484375	-4.82177734375	-3.200531005859375	9.974842666625976	0.2980781066894531	-0.18136077575683593	2.925872802734375	-4.695892333984375	-1.911163330078125	
45	0.18	0.0	0.0	0.0	0.0	4.632	4.656	4.656	4.623	9.871293444824218	-0.06643909606933593	0.08858546142578125	2.399444580078125	-3.60870361328125	-0.79345703125	9.777919580078125	0.43514615173339843	0.20649989318847656	0.55694580078125	-5.290985107421875	-3.4332275390625	9.981426721191406	0.30406361083984373	-0.19213468322753904	2.777099609375	-4.772186279296875	-1.781463623046875	
46	0.184	0.0	0.0	0.0	0.0	4.632	4.656	4.659	4.611	9.86351228942871	-0.05087678527832031	0.08798691101074219	2.35748291015625	-3.82232666015625	-0.026702880859375	9.780912332153319	0.44592005920410155	0.20231004028320312	0.797271728515625	-5.146026611328125	-3.437042236328125	9.98501802368164	0.3112462158203125	-0.16998831787109375	2.69317626953125	-4.596710205078125	-1.743316650390625	
47	0.188	0.0	0.0	0.0	0.0	4.635	4.656	4.656	4.617	9.860519537353515	-0.03172317199707031	0.08858546142578125	2.399444580078125	-3.7841796875	-0.812530517578125	9.785102185058593	0.4584896179199218	0.19632453613281248	0.492095947265625	-5.077362060546875	-3.47900390625	9.975441217041014	0.33399113159179683	-0.1753752716064453	2.76947021484375	-4.932403564453125	-1.728057861328125	
48	0.192	0.0	0.0	0.0	0.0	4.632	4.6530000000000005	4.656	4.623	9.872490545654296	-0.023343466186523436	0.07481880187988281	2.445220947265625	-3.902435302734375	-0.9307861328125	9.782707983398437	0.47584757995605464	0.18914193115234373	0.75531005859375	-5.062103271484375	-3.56292724609375	9.983820922851562	0.3495534423828125	-0.16819266662597654	2.666473388671875	-4.791259765625	-1.705169677734375	
49	0.196	0.0	0.0	0.0	0.0	4.626	4.656	4.656	4.632	9.865307940673828	0.008379705810546874	0.06703764648437499	2.50244140625	-3.71551513671875	-0.843048095703125	9.78031378173828	0.5003881469726562	0.1849520782470703	0.7781982421875	-5.42449951171875	-3.59344482421875	9.990404977416992	0.3716998077392578	-0.17776947326660156	2.51007080078125	-4.543304443359375	-1.91497802734375	
50	0.2	0.0	0.0	0.0	0.0	4.632	4.656	4.656	4.626	9.85752678527832	0.023942016601562498	0.05566518859863281	2.7008056640625	-3.90625	-1.0223388671875	9.777321029663085	0.5285200164794922	0.19033903198242186	0.396728515625	-5.016326904296875	-3.387451171875	9.97903251953125	0.4052186309814453	-0.17896657409667968	2.719879150390625	-4.688262939453125	-1.9683837890625	
51	0.20400000000000001	0.0	0.0	0.0	0.0	4.623	4.656	4.6530000000000005	4.632	9.860519537353515	0.044891281127929686	0.0526724365234375	2.468109130859375	-3.60107421875	-0.766754150390625	9.770736975097655	0.5524620330810547	0.18315642700195311	0.637054443359375	-5.153656005859375	-3.429412841796875	9.982623822021484	0.42497079467773435	-0.17956512451171874	2.52532958984375	-4.619598388671875	-1.76239013671875	
52	0.20800000000000002	0.0	0.0	0.0	0.0	4.632	4.656	4.656	4.62	9.86291373901367	0.07541735229492187	0.054468087768554684	2.51007080078125	-3.74603271484375	-0.7171630859375	9.76894132385254	0.584185205078125	0.17238251953125	0.6561279296875	-5.035400390625	-3.345489501953125	9.97783541870117	0.4435258575439453	-0.18315642700195311	2.712249755859375	-4.589080810546875	-1.6937255859375	
53	0.212	0.0	0.0	0.0	0.0	4.632	4.656	4.659	4.611	9.864709390258788	0.09756371765136718	0.0430956298828125	2.765655517578125	-3.88336181640625	-0.9307861328125	9.767145672607422	0.6051344696044921	0.16280571289062498	0.476837158203125	-4.901885986328125	-3.414154052734375	9.987412225341796	0.47884033203125	-0.201112939453125	3.08990478515625	-4.57000732421875	-1.99127197265625	
54	0.216	0.0	0.0	0.0	0.0	4.635	4.656	4.6530000000000005	4.611	9.861716638183593	0.12150573425292968	0.037110125732421874	2.4871826171875	-3.597259521484375	-0.89263916015625	9.772532626342773	0.6338648895263671	0.16998831787109375	0.67901611328125	-4.89044189453125	-3.326416015625	9.970054263305663	0.5051765502929687	-0.21009119567871093	2.689361572265625	-4.489898681640625	-1.73187255859375	
55	0.22	0.0	0.0	0.0	0.0	4.632	4.65	4.656	4.623	9.87608184814453	0.1514332550048828	0.028730419921875	2.559661865234375	-3.971099853515625	-0.942230224609375	9.767145672607422	0.661398208618164	0.1562216583251953	0.35858154296875	-4.9285888671875	-3.27301025390625	9.977236868286132	0.5339069702148437	-0.22685060729980466	2.4566650390625	-4.73785400390625	-1.605987548828125	
56	0.224	0.0	0.0	0.0	0.0	4.623	4.656	4.656	4.6290000000000004	9.871891995239258	0.17058686828613281	0.03411737365722656	2.532958984375	-3.849029541015625	-0.9613037109375	9.764152920532226	0.6847416748046875	0.15682020874023436	0.858306884765625	-5.218505859375	-3.383636474609375	9.982623822021484	0.5476736297607422	-0.2292448089599609	2.864837646484375	-4.993438720703125	-1.7547607421875	
57	0.228	0.0	0.0	0.0	0.0	4.6290000000000004	4.656	4.656	4.6290000000000004	9.859322436523437	0.20290859069824219	0.044292730712890624	2.471923828125	-3.71551513671875	-0.911712646484375	9.756371765136718	0.7020996368408202	0.15263035583496093	0.713348388671875	-5.0506591796875	-3.467559814453125	9.968258612060547	0.5817910034179687	-0.2328361114501953	2.81524658203125	-4.49371337890625	-1.796722412109375	
58	0.232	0.0	0.0	0.0	0.0	4.626	4.656	4.6530000000000005	4.632	9.864709390258788	0.2232593048095703	0.02633621826171875	2.471923828125	-3.757476806640625	-0.942230224609375	9.752780462646484	0.7236474517822266	0.1592144104003906	0.461578369140625	-5.05828857421875	-3.44085693359375	9.962871658325195	0.6069301208496093	-0.2454056701660156	2.63214111328125	-4.730224609375	-1.728057861328125	
59	0.23600000000000002	0.0	0.0	0.0	0.0	4.632	4.656	4.656	4.62	9.87608184814453	0.23044190979003906	0.027533319091796873	2.3956298828125	-3.76129150390625	-0.83160400390625	9.757568865966796	0.7439981658935546	0.15263035583496093	0.743865966796875	-4.90570068359375	-3.265380859375	9.967660061645507	0.6021417175292968	-0.25258827514648435	2.780914306640625	-4.581451416015625	-1.796722412109375	
60	0.24	0.0	0.0	0.0	0.0	4.632	4.656	4.659	4.614	9.871891995239258	0.23523031311035156	0.02633621826171875	2.532958984375	-3.665924072265625	-0.84686279296875	9.765948571777344	0.7404068634033203	0.15981296081542967	0.701904296875	-4.848480224609375	-3.2806396484375	9.957484704589843	0.6063315704345703	-0.2519897247314453	2.628326416015625	-4.69207763671875	-1.743316650390625	
61	0.244	0.0	0.0	0.0	0.0	4.632	4.6530000000000005	4.656	4.617	9.871891995239258	0.23882161560058593	0.028131869506835935	2.41851806640625	-3.787994384765625	-1.049041748046875	9.76116016845703	0.7523778717041015	0.1562216583251953	0.5340576171875	-5.031585693359375	-3.444671630859375	9.964667309570311	0.6105214233398437	-0.24361001892089842	2.685546875	-4.791259765625	-1.68609619140625	
62	0.248	0.0	0.0	0.0	0.0	4.626	4.6530000000000005	4.656	4.623	9.86291373901367	0.23582886352539062	0.028730419921875	2.32696533203125	-3.742218017578125	-0.827789306640625	9.76774422302246	0.737414111328125	0.15562310791015624	0.705718994140625	-5.18035888671875	-3.437042236328125	9.958681805419921	0.5979518646240234	-0.23223756103515625	2.74658203125	-4.67681884765625	-1.80816650390625	
63	0.252	0.0	0.0	0.0	0.0	4.626	4.659	4.659	4.626	9.86351228942871	0.2280477081298828	0.0383072265625	2.414703369140625	-3.780364990234375	-0.911712646484375	9.770736975097655	0.7230489013671875	0.17178396911621094	0.362396240234375	-4.917144775390625	-3.467559814453125	9.969455712890625	0.5919663604736328	-0.21966800231933592	2.674102783203125	-4.703521728515625	-1.8310546875	
64	0.256	0.0	0.0	0.0	0.0	4.6290000000000004	4.656	4.656	4.6290000000000004	9.855731134033203	0.2166752502441406	0.05027823486328125	2.414703369140625	-3.86810302734375	-0.87738037109375	9.770736975097655	0.7134720947265625	0.16879121704101563	0.5340576171875	-4.871368408203125	-3.448486328125	9.968258612060547	0.5823895538330078	-0.2166752502441406	2.58636474609375	-4.75311279296875	-1.7547607421875	
65	0.26	0.0	0.0	0.0	0.0	4.623	4.656	4.6530000000000005	4.632	9.868300692749022	0.181959326171875	0.06344634399414062	2.2430419921875	-3.795623779296875	-0.827789306640625	9.7683427734375	0.6931213806152343	0.18435352783203124	0.354766845703125	-4.993438720703125	-3.528594970703125	9.973047015380859	0.5674257934570313	-0.20709844360351562	2.62451171875	-4.871368408203125	-1.800537109375	
66	0.264	0.0	0.0	0.0	0.0	4.632	4.656	4.656	4.62	9.860519537353515	0.15682020874023436	0.06584054565429687	2.34222412109375	-3.5858154296875	-0.579833984375	9.773131176757811	0.6590040069580078	0.20051438903808594	0.732421875	-5.126953125	-3.42559814453125	9.97244846496582	0.5339069702148437	-0.19991583862304688	2.506256103515625	-4.573822021484375	-1.705169677734375	
67	0.268	0.0	0.0	0.0	0.0	4.6290000000000004	4.659	4.656	4.614	9.862315188598632	0.13646949462890623	0.08020575561523437	2.349853515625	-3.51715087890625	-0.797271728515625	9.778518130493163	0.6392518432617187	0.20290859069824219	0.6103515625	-5.126953125	-3.276824951171875	9.968857162475585	0.5093664031982421	-0.18614917907714842	2.66265869140625	-4.76837158203125	-1.873016357421875	
68	0.272	0.0	0.0	0.0	0.0	4.632	4.6530000000000005	4.656	4.611	9.865307940673828	0.11552023010253906	0.08439560852050781	2.67791748046875	-3.734588623046875	-0.87738037109375	9.765948571777344	0.6206967803955078	0.21308394775390624	0.499725341796875	-5.153656005859375	-3.4027099609375	9.958083255004881	0.4908113403320312	-0.17477672119140625	2.655029296875	-4.611968994140625	-1.613616943359375	
69	0.276	0.0	0.0	0.0	0.0	4.6290000000000004	4.6530000000000005	4.656	4.623	9.867103591918944	0.08439560852050781	0.09157821350097656	2.597808837890625	-3.658294677734375	-0.93841552734375	9.770736975097655	0.5805939025878906	0.21248539733886718	0.7781982421875	-4.99725341796875	-3.353118896484375	9.967061511230469	0.4435258575439453	-0.16041151123046873	2.52532958984375	-4.7149658203125	-1.743316650390625	
70	0.28	0.0	0.0	0.0	0.0	4.623	4.656	4.656	4.6290000000000004	9.862315188598632	0.05626373901367187	0.08319850769042968	2.5177001953125	-3.5247802734375	-0.881195068359375	9.770736975097655	0.5542576843261718	0.2214636535644531	0.63323974609375	-4.825592041015625	-3.292083740234375	9.970054263305663	0.4291606475830078	-0.15562310791015624	2.803802490234375	-4.627227783203125	-1.743316650390625	
71	0.28400000000000003	0.0	0.0	0.0	0.0	4.6290000000000004	4.656	4.656	4.626	9.868899243164062	0.022744915771484374	0.08738836059570312	2.475738525390625	-3.749847412109375	-0.766754150390625	9.779116680908203	0.5404910247802734	0.22206220397949217	0.469207763671875	-5.02777099609375	-3.543853759765625	9.974842666625976	0.4112041351318359	-0.15322890625	2.593994140625	-4.657745361328125	-1.552581787109375	
72	0.28800000000000003	0.0	0.0	0.0	0.0	4.623	4.656	4.6530000000000005	4.632	9.867103591918944	0.001197100830078125	0.09995791931152344	2.31170654296875	-3.65447998046875	-0.972747802734375	9.779116680908203	0.49739539489746093	0.21607669982910155	0.568389892578125	-5.04302978515625	-3.231048583984375	9.986813674926758	0.3716998077392578	-0.15382745666503905	2.67791748046875	-4.642486572265625	-1.697540283203125	
73	0.292	0.0	0.0	0.0	0.0	4.632	4.656	4.659	4.626	9.86411083984375	-0.013766659545898436	0.09217676391601562	2.43377685546875	-4.05120849609375	-0.835418701171875	9.78031378173828	0.48183308410644526	0.21787235107421873	0.530242919921875	-4.795074462890625	-3.337860107421875	9.979631069946288	0.3537432952880859	-0.14544775085449219	2.49481201171875	-4.4097900390625	-1.750946044921875	
74	0.296	0.0	0.0	0.0	0.0	4.632	4.656	4.656	4.614	9.867702142333984	-0.03591302490234375	0.10474632263183593	2.3651123046875	-3.6468505859375	-1.02996826171875	9.781510882568359	0.4626794708251953	0.21009119567871093	0.934600830078125	-5.031585693359375	-3.57818603515625	9.980229620361328	0.3333925811767578	-0.15562310791015624	2.76947021484375	-4.627227783203125	-1.834869384765625	
75	0.3	0.0	0.0	0.0	0.0	4.632	4.6530000000000005	4.656	4.614	9.865906491088866	-0.0526724365234375	0.09337386474609374	2.49481201171875	-3.795623779296875	-0.80108642578125	9.780912332153319	0.43454760131835934	0.21308394775390624	0.70953369140625	-4.81414794921875	-3.192901611328125	9.975441217041014	0.31962592163085934	-0.16220716247558592	2.857208251953125	-4.638671875	-1.86920166015625	
76	0.304	0.0	0.0	0.0	0.0	4.632	4.6530000000000005	4.656	4.623	9.864709390258788	-0.07422025146484375	0.09636661682128905	2.574920654296875	-3.742218017578125	-1.0833740234375	9.782707983398437	0.4267664459228515	0.2059013427734375	0.698089599609375	-4.87518310546875	-3.284454345703125	9.980828170776366	0.3058592620849609	-0.17896657409667968	2.4566650390625	-4.581451416015625	-1.79290771484375	
77	0.308	0.0	0.0	0.0	0.0	4.6290000000000004	4.656	4.656	4.632	9.868300692749022	-0.08798691101074219	0.09337386474609374	2.58636474609375	-3.635406494140625	-0.9002685546875	9.782707983398437	0.40940848388671874	0.19572598571777342	0.728607177734375	-5.0048828125	-3.173828125	9.973047015380859	0.28371289672851563	-0.19572598571777342	2.87628173828125	-4.76837158203125	-1.953125	
78	0.312	0.0	0.0	0.0	0.0	4.632	4.656	4.656	4.6290000000000004	9.86351228942871	-0.0939724151611328	0.09038111267089843	2.269744873046875	-4.0130615234375	-0.87738037109375	9.781510882568359	0.40761283264160153	0.20171148986816406	0.560760498046875	-5.08880615234375	-3.360748291015625	9.977236868286132	0.2813186950683594	-0.19812018737792966	2.506256103515625	-4.528045654296875	-1.682281494140625	
79	0.316	0.0	0.0	0.0	0.0	4.62	4.656	4.6530000000000005	4.632	9.861118087768554	-0.0987608184814453	0.08200140686035155	2.506256103515625	-3.871917724609375	-0.804901123046875	9.782707983398437	0.40581718139648437	0.1867477294921875	0.6561279296875	-5.123138427734375	-3.509521484375	9.980828170776366	0.2741360900878906	-0.19991583862304688	2.620697021484375	-4.82177734375	-1.83868408203125	
80	0.32	0.0	0.0	0.0	0.0	4.632	4.656	4.656	4.623	9.86411083984375	-0.09756371765136718	0.0796072052001953	2.460479736328125	-3.753662109375	-0.904083251953125	9.783905084228515	0.3962403747558593	0.19093758239746092	0.553131103515625	-4.96673583984375	-3.33404541015625	9.979631069946288	0.27293898925781246	-0.19393033447265623	2.811431884765625	-4.688262939453125	-1.77764892578125	
81	0.324	0.0	0.0	0.0	0.0	4.6290000000000004	4.656	4.659	4.614	9.868899243164062	-0.09516951599121093	0.06643909606933593	2.3040771484375	-3.795623779296875	-0.79345703125	9.785102185058593	0.4010287780761719	0.18914193115234373	0.732421875	-4.955291748046875	-3.314971923828125	9.973047015380859	0.28431144714355466	-0.19991583862304688	2.574920654296875	-4.66156005859375	-1.617431640625	
82	0.328	0.0	0.0	0.0	0.0	4.632	4.656	4.656	4.614	9.871891995239258	-0.08319850769042968	0.07541735229492187	2.315521240234375	-3.528594970703125	-0.70953369140625	9.780912332153319	0.42018239135742186	0.17238251953125	0.614166259765625	-5.07354736328125	-3.208160400390625	9.98501802368164	0.2980781066894531	-0.2059013427734375	2.7008056640625	-4.627227783203125	-1.82342529296875	
83	0.332	0.0	0.0	0.0	0.0	4.6290000000000004	4.6530000000000005	4.656	4.623	9.86351228942871	-0.08738836059570312	0.05985504150390625	2.532958984375	-3.63922119140625	-0.6256103515625	9.782707983398437	0.42018239135742186	0.17597382202148437	0.5950927734375	-5.22613525390625	-3.37982177734375	9.989207876586914	0.3028665100097656	-0.21068974609375	2.7008056640625	-4.619598388671875	-1.64794921875	
84	0.336	0.0	0.0	0.0	0.0	4.6290000000000004	4.656	4.656	4.626	9.868899243164062	-0.06584054565429687	0.044891281127929686	2.6397705078125	-3.4942626953125	-0.7781982421875	9.780912332153319	0.4387374542236328	0.17776947326660156	0.762939453125	-5.374908447265625	-3.444671630859375	9.992799179077148	0.3142389678955078	-0.20051438903808594	2.727508544921875	-4.711151123046875	-1.651763916015625	
85	0.34	0.0	0.0	0.0	0.0	4.632	4.659	4.656	4.626	9.868899243164062	-0.03172317199707031	0.04189852905273437	2.506256103515625	-3.7841796875	-0.865936279296875	9.769539874267577	0.46148236999511716	0.16280571289062498	0.4119873046875	-5.146026611328125	-3.582000732421875	9.981426721191406	0.3333925811767578	-0.19572598571777342	2.780914306640625	-4.726409912109375	-1.68609619140625	
86	0.34400000000000003	0.0	0.0	0.0	0.0	4.623	4.656	4.6530000000000005	4.632	9.867702142333984	-0.011971008300781249	0.037110125732421874	2.62451171875	-3.86810302734375	-0.96893310546875	9.782707983398437	0.4878185882568359	0.14484920043945312	0.63323974609375	-5.039215087890625	-3.3111572265625	9.982623822021484	0.3489548919677734	-0.20171148986816406	2.6092529296875	-4.57763671875	-1.8310546875	
87	0.34800000000000003	0.0	0.0	0.0	0.0	4.632	4.656	4.656	4.623	9.855731134033203	-0.0017956512451171875	0.02154781494140625	2.460479736328125	-4.009246826171875	-0.98419189453125	9.773131176757811	0.5129577056884765	0.1466448516845703	0.659942626953125	-5.107879638671875	-3.35693359375	9.980229620361328	0.3758896606445312	-0.22266075439453123	2.696990966796875	-4.6539306640625	-1.77764892578125	
88	0.352	0.0	0.0	0.0	0.0	4.6290000000000004	4.656	4.659	4.611	9.864709390258788	0.027533319091796873	0.016160861206054686	2.696990966796875	-3.635406494140625	-0.919342041015625	9.7683427734375	0.5327098693847656	0.14724340209960937	0.850677490234375	-5.096435546875	-3.383636474609375	9.975441217041014	0.41958384094238277	-0.22565350646972654	2.69317626953125	-4.734039306640625	-1.735687255859375	
89	0.356	0.0	0.0	0.0	0.0	4.635	4.656	4.656	4.614	9.858723886108399	0.06045359191894531	0.020350714111328123	2.7618408203125	-4.024505615234375	-1.12152099609375	9.766547122192382	0.5674257934570313	0.1370680450439453	0.37384033203125	-4.92095947265625	-3.345489501953125	9.97903251953125	0.4417302062988281	-0.22385785522460935	2.78472900390625	-4.69970703125	-1.834869384765625	
90	0.36	0.0	0.0	0.0	0.0	4.6290000000000004	4.6530000000000005	4.656	4.623	9.86291373901367	0.08678981018066406	0.027533319091796873	2.6092529296875	-3.73077392578125	-0.8087158203125	9.77432827758789	0.5991489654541016	0.14245499877929688	0.75531005859375	-5.16510009765625	-3.3721923828125	9.976638317871092	0.4644751220703125	-0.24480711975097655	2.87628173828125	-4.634857177734375	-1.773834228515625	
91	0.364	0.0	0.0	0.0	0.0	4.632	4.656	4.656	4.626	9.867103591918944	0.12030863342285156	0.016160861206054686	2.54058837890625	-3.80706787109375	-0.728607177734375	9.77492682800293	0.6194996795654296	0.13407529296874998	0.46539306640625	-4.76837158203125	-3.261566162109375	9.97184991455078	0.5015852478027344	-0.239420166015625	2.811431884765625	-4.390716552734375	-1.86920166015625	
92	0.368	0.0	0.0	0.0	0.0	4.632	4.659	4.656	4.6290000000000004	9.866505041503906	0.15981296081542967	0.022744915771484374	2.4871826171875	-3.833770751953125	-0.91552734375	9.773131176757811	0.6464344482421874	0.1292868896484375	0.736236572265625	-4.93621826171875	-3.322601318359375	9.974244116210937	0.5213374114990235	-0.24779987182617186	2.513885498046875	-4.810333251953125	-1.880645751953125	
93	0.372	0.0	0.0	0.0	0.0	4.626	4.656	4.656	4.632	9.86291373901367	0.18255787658691405	0.025737667846679687	2.712249755859375	-3.8604736328125	-1.003265380859375	9.763554370117188	0.6667851623535156	0.15502455749511718	0.72479248046875	-5.19561767578125	-3.307342529296875	9.97184991455078	0.5380968231201172	-0.25139117431640623	2.685546875	-4.848480224609375	-1.857757568359375	
94	0.376	0.0	0.0	0.0	0.0	4.632	4.656	4.659	4.623	9.865906491088866	0.19393033447265623	0.02633621826171875	2.468109130859375	-3.681182861328125	-0.965118408203125	9.773131176757811	0.6847416748046875	0.16041151123046873	0.743865966796875	-5.08880615234375	-3.391265869140625	9.966462960815429	0.5668272430419922	-0.25258827514648435	2.41851806640625	-4.558563232421875	-1.708984375	
95	0.38	0.0	0.0	0.0	0.0	4.632	4.656	4.659	4.614	9.867702142333984	0.20829554443359374	0.03890577697753906	2.471923828125	-3.94439697265625	-0.81634521484375	9.764751470947266	0.7074865905761718	0.16460136413574217	0.461578369140625	-5.13458251953125	-3.5400390625	9.967061511230469	0.5728127471923827	-0.24480711975097655	2.643585205078125	-4.638671875	-1.74713134765625	
96	0.384	0.0	0.0	0.0	0.0	4.632	4.656	4.656	4.611	9.87069489440918	0.2214636535644531	0.052073886108398436	2.61688232421875	-3.82232666015625	-0.80108642578125	9.763554370117188	0.7254431030273437	0.16460136413574217	0.194549560546875	-5.115509033203125	-3.360748291015625	9.968258612060547	0.5925649108886718	-0.23582886352539062	2.597808837890625	-4.451751708984375	-1.70135498046875	
97	0.388	0.0	0.0	0.0	0.0	4.632	4.6530000000000005	4.656	4.623	9.861716638183593	0.21906945190429686	0.04848258361816406	2.46429443359375	-3.765106201171875	-1.064300537109375	9.759963067626952	0.7302315063476562	0.18076222534179687	0.408172607421875	-4.840850830078125	-3.25775146484375	9.975441217041014	0.5961562133789062	-0.22026655273437498	2.8228759765625	-4.680633544921875	-1.865386962890625	
98	0.392	0.0	0.0	0.0	0.0	4.6290000000000004	4.659	4.659	4.626	9.868300692749022	0.22086510314941404	0.06584054565429687	2.468109130859375	-3.80706787109375	-0.86212158203125	9.758765966796874	0.7254431030273437	0.17836802368164062	0.60272216796875	-4.75311279296875	-3.414154052734375	9.96586441040039	0.594959112548828	-0.20350714111328125	2.57110595703125	-4.82940673828125	-1.86920166015625	
99	0.396	0.0	0.0	0.0	0.0	4.632	4.656	4.656	4.632	9.865307940673828	0.2166752502441406	0.07541735229492187	2.55584716796875	-3.688812255859375	-1.041412353515625	9.763554370117188	0.7206546997070312	0.19213468322753904	0.804901123046875	-5.04302978515625	-3.31878662109375	9.95987890625	0.5967547637939453	-0.18614917907714842	2.57110595703125	-4.69970703125	-1.7242431640625	
100	0.4	0.0	0.0	0.0	0.0	4.623	4.656	4.656	4.632	9.86411083984375	0.21248539733886718	0.07781155395507812	2.674102783203125	-3.826141357421875	-0.865936279296875	9.76235726928711	0.7062894897460937	0.2041056915283203	0.4425048828125	-5.31005859375	-3.19671630859375	9.968857162475585	0.5871779571533203	-0.18614917907714842	2.796173095703125	-4.596710205078125	-1.8463134765625	
101	0.404	0.0	0.0	0.0	0.0	4.632	4.656	4.659	4.623	9.879673150634765	0.1514332550048828	0.06105214233398437	2.277374267578125	-3.8299560546875	-0.8697509765625	9.763554370117188	0.6817489227294922	0.1975216369628906	0.5035400390625	-5.18035888671875	-3.30352783203125	9.964667309570311	0.546476528930664	-0.16819266662597654	2.7008056640625	-4.638671875	-1.7242431640625	
102	0.40800000000000003	0.0	0.0	0.0	0.0	4.6290000000000004	4.659	4.656	4.614	9.861118087768554	0.19093758239746092	0.09337386474609374	2.536773681640625	-3.5858154296875	-1.007080078125	9.779116680908203	0.7248445526123046	0.20051438903808594	0.392913818359375	-4.69970703125	-3.4027099609375	9.976039767456054	0.6123170745849609	-0.16998831787109375	2.506256103515625	-4.5623779296875	-1.735687255859375	
103	0.41200000000000003	0.0	0.0	0.0	0.0	4.632	4.656	4.656	4.614	9.8694977935791	0.1083376251220703	0.06404489440917968	2.55584716796875	-3.74603271484375	-0.751495361328125	9.75517466430664	0.6278793853759765	0.21966800231933592	0.54168701171875	-5.10406494140625	-3.170013427734375	9.964068759155273	0.5632359405517577	-0.12569558715820311	2.74658203125	-4.852294921875	-1.65557861328125	
104	0.41600000000000004	0.0	0.0	0.0	0.0	4.6290000000000004	4.6530000000000005	4.656	4.6290000000000004	9.858125335693359	0.10235212097167969	0.11133037719726561	2.559661865234375	-3.68499755859375	-0.8544921875	9.782109432983399	0.6015431671142578	0.21428104858398436	0.396728515625	-4.7607421875	-3.444671630859375	10.014945544433592	0.40222587890625	-0.1849520782470703	2.941131591796875	-4.4097900390625	-1.67083740234375	
105	0.42	0.0	0.0	0.0	0.0	4.6290000000000004	4.659	4.656	4.626	9.827000714111328	0.20231004028320312	0.16998831787109375	2.590179443359375	-3.814697265625	-0.7781982421875	9.762955819702148	0.7128735443115234	0.28371289672851563	0.5645751953125	-5.0506591796875	-3.398895263671875	9.982025271606444	0.6171054779052734	-0.12868833923339842	2.9144287109375	-4.82940673828125	-1.53350830078125	
106	0.424	0.0	0.0	0.0	0.0	4.6290000000000004	4.656	4.656	4.6290000000000004	9.855132583618163	0.0939724151611328	0.10474632263183593	2.6092529296875	-3.734588623046875	-0.8087158203125	9.77492682800293	0.5817910034179687	0.2232593048095703	0.90789794921875	-4.947662353515625	-3.24249267578125	10.031704956054687	0.42018239135742186	-0.19632453613281248	2.7313232421875	-4.703521728515625	-1.857757568359375	
107	0.428	0.0	0.0	0.0	0.0	4.623	4.656	4.656	4.632	9.813234054565429	0.12090718383789062	0.18914193115234373	2.521514892578125	-3.80706787109375	-0.762939453125	9.747393508911133	0.5608417388916015	0.28371289672851563	0.4119873046875	-4.8828125	-3.437042236328125	9.97903251953125	0.31483751831054685	-0.14544775085449219	2.765655517578125	-4.69970703125	-1.85394287109375	
108	0.432	0.0	0.0	0.0	0.0	4.632	4.656	4.659	4.626	9.878476049804688	-0.03411737365722656	0.08499415893554688	2.0294189453125	-3.391265869140625	-1.018524169921875	9.840168823242188	0.47884033203125	0.16460136413574217	0.80108642578125	-5.100250244140625	-3.276824951171875	10.070012182617187	0.39444472351074217	-0.2346317626953125	2.758026123046875	-4.90570068359375	-1.59454345703125	
109	0.436	0.0	0.0	0.0	0.0	4.632	4.656	4.659	4.614	9.79348189086914	0.12449848632812499	0.23223756103515625	2.635955810546875	-3.719329833984375	-0.598907470703125	9.737218151855469	0.5716156463623047	0.3028665100097656	0.484466552734375	-4.978179931640625	-3.040313720703125	9.962273107910155	0.575206948852539	-0.15382745666503905	2.7008056640625	-4.634857177734375	-1.5716552734375	
110	0.44	0.0	0.0	0.0	0.0	4.638	4.656	4.656	4.614	9.885060104370117	-0.1879448303222656	0.09816226806640624	1.9683837890625	-3.360748291015625	-0.972747802734375	9.8449572265625	0.28490999755859375	0.15263035583496093	0.69427490234375	-5.157470703125	-3.5400390625	10.072406384277343	0.1771709228515625	-0.2867056488037109	2.75421142578125	-4.669189453125	-1.827239990234375	
111	0.444	0.0	0.0	0.0	0.0	4.632	4.6530000000000005	4.656	4.623	9.801861596679688	0.06584054565429687	0.20231004028320312	2.4566650390625	-3.658294677734375	-0.84686279296875	9.758765966796874	0.5817910034179687	0.2232593048095703	0.732421875	-5.168914794921875	-3.5247802734375	9.995791931152343	0.535702621459961	-0.19632453613281248	2.72369384765625	-4.619598388671875	-1.781463623046875	
112	0.448	0.0	0.0	0.0	0.0	4.632	4.656	4.659	4.6290000000000004	9.898826763916015	-0.17417817077636719	0.10414777221679687	1.644134521484375	-3.437042236328125	-0.782012939453125	9.849745629882811	0.35314474487304687	0.13407529296874998	0.461578369140625	-4.92095947265625	-3.28826904296875	10.031704956054687	0.3286041778564453	-0.25139117431640623	2.7008056640625	-4.70733642578125	-1.64031982421875	
113	0.452	0.0	0.0	0.0	0.0	4.632	4.656	4.659	4.626	9.87727894897461	-0.030526071166992186	0.04668693237304687	2.23541259765625	-3.84521484375	-0.84686279296875	9.73602105102539	0.48542438659667964	0.23044190979003906	0.45013427734375	-5.130767822265625	-3.047943115234375	9.97125136413574	0.4339490509033203	-0.19871873779296872	2.593994140625	-4.482269287109375	-1.617431640625	
114	0.456	0.0	0.0	0.0	0.0	4.623	4.656	4.656	4.6290000000000004	9.897031112670899	-0.24061726684570311	0.07122749938964844	1.80816650390625	-3.398895263671875	-1.06048583984375	9.785700735473633	0.31004911499023435	0.1610100616455078	0.63323974609375	-5.107879638671875	-3.36456298828125	10.052654220581054	0.20290859069824219	-0.2693476867675781	2.346038818359375	-4.634857177734375	-1.781463623046875	
115	0.46	0.0	0.0	0.0	0.0	4.6290000000000004	4.656	4.656	4.623	9.881468801879882	-0.013766659545898436	0.013168109130859374	2.28118896484375	-3.662109375	-0.873565673828125	9.751583361816406	0.5458779785156249	0.201112939453125	0.6103515625	-4.863739013671875	-3.04412841796875	9.90840357055664	0.4746504791259765	-0.11611878051757812	2.285003662109375	-4.512786865234375	-1.922607421875	
116	0.464	0.0	0.0	0.0	0.0	4.632	4.656	4.659	4.617	9.880271701049804	-0.2771288421630859	0.07601590270996093	3.101348876953125	-4.344940185546875	-0.690460205078125	9.804255798339844	0.2561795776367187	0.16220716247558592	0.736236572265625	-5.04302978515625	-3.2196044921875	10.028712203979492	0.18136077575683593	-0.28790274963378903	2.593994140625	-4.894256591796875	-1.720428466796875	
117	0.468	0.0	0.0	0.0	0.0	4.638	4.656	4.656	4.614	9.87009634399414	-0.0652419952392578	0.011372457885742187	2.300262451171875	-3.513336181640625	-0.957489013671875	9.726444244384766	0.5057751007080078	0.1801636749267578	0.514984130859375	-5.157470703125	-3.5858154296875	9.898228213500976	0.36152445068359373	-0.12090718383789062	2.391815185546875	-4.58526611328125	-2.178192138671875	
118	0.47200000000000003	0.0	0.0	0.0	0.0	4.6290000000000004	4.6530000000000005	4.656	4.626	9.871293444824218	0.07601590270996093	-0.016160861206054686	3.48663330078125	-4.33349609375	-0.9002685546875	9.828197814941406	0.2885013000488281	0.1227028350830078	0.606536865234375	-5.214691162109375	-3.215789794921875	9.952696301269532	0.30047230834960936	-0.09696516723632811	2.64739990234375	-4.741668701171875	-1.65557861328125	
119	0.47600000000000003	0.0	0.0	0.0	0.0	4.626	4.656	4.656	4.6290000000000004	9.85692823486328	-0.04249707946777344	0.012569558715820313	2.6092529296875	-3.627777099609375	-0.8392333984375	9.703100778198241	0.5793968017578125	0.16759411621093748	0.591278076171875	-5.0811767578125	-3.536224365234375	9.866505041503906	0.411802685546875	-0.11432312927246092	2.4871826171875	-4.78363037109375	-2.1514892578125	
120	0.48	0.0	0.0	0.0	0.0	4.635	4.656	4.656	4.626	9.843161575317382	0.07302315063476562	-0.015562310791015624	3.39508056640625	-4.40216064453125	-0.9613037109375	9.692925421142577	0.5003881469726562	0.19991583862304688	0.8544921875	-5.1727294921875	-3.2958984375	9.904213717651366	0.24899697265624998	-0.07541735229492187	2.25830078125	-4.7607421875	-1.750946044921875	
121	0.484	0.0	0.0	0.0	0.0	4.626	4.656	4.656	4.6290000000000004	9.90181951599121	0.05027823486328125	0.028131869506835935	3.635406494140625	-4.375457763671875	-0.766754150390625	9.738415252685547	0.6464344482421874	0.1274912384033203	0.60272216796875	-4.72259521484375	-3.559112548828125	9.89583401184082	0.46627077331542965	-0.1292868896484375	2.63214111328125	-4.627227783203125	-2.162933349609375	
122	0.488	0.0	0.0	0.0	0.0	4.6290000000000004	4.656	4.65	4.623	9.855731134033203	0.1406593475341797	-0.04848258361816406	3.3721923828125	-4.4097900390625	-0.598907470703125	9.690531219482422	0.59376201171875	0.19512743530273435	0.60272216796875	-4.940032958984375	-3.0975341796875	9.903016616821288	0.31184476623535157	-0.09576806640624999	2.704620361328125	-4.695892333984375	-1.59454345703125	
123	0.492	0.0	0.0	0.0	0.0	4.6290000000000004	4.659	4.659	4.617	9.887454306030273	0.08798691101074219	0.03651157531738281	3.4332275390625	-4.18853759765625	-0.92315673828125	9.712079034423828	0.6512228515624999	0.14963760375976562	0.629425048828125	-5.077362060546875	-3.53240966796875	9.935936889648437	0.19033903198242186	-0.17477672119140625	2.506256103515625	-4.512786865234375	-2.03704833984375	
124	0.496	0.0	0.0	0.0	0.0	4.6290000000000004	4.656	4.656	4.614	9.85752678527832	0.2136824981689453	-0.07242460021972656	3.51715087890625	-4.192352294921875	-0.95367431640625	9.698910925292969	0.6386532928466796	0.19093758239746092	0.606536865234375	-5.237579345703125	-3.360748291015625	9.920374578857421	0.3537432952880859	-0.11731588134765625	2.38800048828125	-4.73785400390625	-1.613616943359375	
125	0.5	0.0	0.0	0.0	0.0	4.626	4.6530000000000005	4.656	0.009000000000000001	9.892841259765625	0.15023615417480468	0.01915361328125	3.574371337890625	-4.5166015625	-0.980377197265625	9.779116680908203	0.6009446166992187	0.13946224670410157	0.5950927734375	-5.222320556640625	-3.82232666015625	9.966462960815429	0.2771288421630859	-0.20829554443359374	2.5787353515625	-4.31060791015625	-2.0294189453125	
126	0.504	0.0	0.0	0.0	0.0	0.006	0.006	0.003	0.009000000000000001	9.888052856445311	0.09756371765136718	0.05985504150390625	2.277374267578125	-3.536224365234375	-0.949859619140625	9.665392102050781	0.6871358764648438	0.20769699401855468	0.820159912109375	-5.2642822265625	-3.398895263671875	9.885658654785155	0.5620388397216797	-0.13946224670410157	2.613067626953125	-4.72259521484375	-1.42669677734375	
127	0.508	0.0	0.0	0.0	0.0	0.003	0.003	0.003	0.003	9.865906491088866	0.23582886352539062	0.03411737365722656	3.51715087890625	-4.436492919921875	-0.995635986328125	9.771934075927733	0.6476315490722656	0.13766659545898435	0.75531005859375	-5.168914794921875	-3.803253173828125	9.97244846496582	0.27832594299316404	-0.21128829650878905	2.43377685546875	-4.276275634765625	-2.00653076171875	
128	0.512	0.0	0.0	0.0	0.0	0.0	0.006	0.006	0.003	9.91558617553711	0.13108254089355467	0.054468087768554684	1.880645751953125	-3.269195556640625	-1.102447509765625	9.785102185058593	0.7140706451416016	0.20470424194335937	0.057220458984375	-5.0506591796875	-3.505706787109375	9.917381826782226	0.6661866119384765	-0.15981296081542967	2.6702880859375	-4.459381103515625	-1.628875732421875	
129	0.516	0.0	0.0	0.0	0.0	0.003	0.006	0.003	0.003	9.841964474487304	0.30346506042480464	0.08678981018066406	0.988006591796875	-2.964019775390625	-1.140594482421875	9.76116016845703	0.6817489227294922	0.16220716247558592	0.507354736328125	-4.82940673828125	-3.77655029296875	10.19570776977539	0.30406361083984373	-0.5895721588134766	2.864837646484375	-4.436492919921875	-1.758575439453125	
130	0.52	0.0	0.0	0.0	0.0	0.006	0.003	0.003	0.003	9.905410818481444	0.15442600708007811	0.10354922180175781	1.758575439453125	-3.490447998046875	-1.02996826171875	9.770138424682617	0.7272387542724609	0.21607669982910155	0.244140625	-4.878997802734375	-3.459930419921875	9.892242709350585	0.7104793426513671	-0.13646949462890623	2.6092529296875	-4.657745361328125	-1.262664794921875	
131	0.524	0.0	0.0	0.0	0.0	0.003	0.006	0.006	0.006	9.967061511230469	-0.19093758239746092	-0.06643909606933593	0.820159912109375	-2.8839111328125	-1.003265380859375	9.942520944213866	0.2813186950683594	-0.016160861206054686	0.301361083984375	-4.78363037109375	-3.3721923828125	10.224438189697265	0.3585316986083984	-0.6081272216796875	3.025054931640625	-4.344940185546875	-1.6632080078125	
132	0.528	0.0	0.0	0.0	0.0	0.003	0.003	0.006	0.006	9.905410818481444	0.17417817077636719	0.1131260284423828	1.880645751953125	-3.360748291015625	-0.86212158203125	9.78031378173828	0.7236474517822266	0.21607669982910155	0.179290771484375	-4.970550537109375	-3.551483154296875	9.881468801879882	0.7655459808349608	-0.1227028350830078	2.872467041015625	-4.52423095703125	-1.38092041015625	
133	0.532	0.0	0.0	0.0	0.0	0.009000000000000001	0.006	0.006	0.003	9.970054263305663	-0.23343466186523437	-0.02633621826171875	0.6866455078125	-2.841949462890625	-1.0528564453125	9.903615167236328	0.26276363220214843	0.017956512451171875	0.621795654296875	-5.306243896484375	-3.314971923828125	10.193313568115233	0.37888241271972656	-0.5704185455322265	2.925872802734375	-4.608154296875	-1.758575439453125	
134	0.536	0.0	0.0	0.0	0.0	0.003	0.003	0.006	0.006	9.772532626342773	0.086191259765625	0.1580173095703125	2.22015380859375	-3.4637451171875	-0.67138671875	9.706093530273437	0.7332242584228515	0.239420166015625	0.69427490234375	-5.14984130859375	-3.055572509765625	10.029310754394531	0.9313444458007812	-0.277727392578125	2.719879150390625	-4.76837158203125	-1.73187255859375	
135	0.54	0.0	0.0	0.0	0.0	0.003	0.003	0.006	0.006	9.999981784057617	-0.28012159423828126	-0.044891281127929686	0.8697509765625	-2.89154052734375	-1.06048583984375	9.932345587158203	0.22445640563964842	0.022744915771484374	0.4425048828125	-4.871368408203125	-3.200531005859375	10.223839639282225	0.39983167724609375	-0.5524620330810547	2.986907958984375	-4.75311279296875	-1.857757568359375	
136	0.544	0.0	0.0	0.0	0.0	0.006	0.006	0.003	0.006	9.765948571777344	0.086191259765625	0.19871873779296872	1.93023681640625	-3.5400390625	-0.75531005859375	9.686939916992188	0.7619546783447265	0.2825157958984375	0.461578369140625	-5.229949951171875	-3.040313720703125	10.018536846923828	0.9469067565917968	-0.23403321228027343	2.93731689453125	-4.87518310546875	-1.65557861328125	
137	0.548	0.0	0.0	0.0	0.0	0.003	0.003	0.003	0.006	10.002375985717773	-0.34117373657226563	-0.015562310791015624	0.736236572265625	-2.61688232421875	-0.942230224609375	9.893439810180663	0.4471171600341797	0.09516951599121093	1.079559326171875	-5.130767822265625	-3.2501220703125	10.083778842163085	0.3184288208007812	-0.24001871643066405	2.685546875	-4.932403564453125	-1.6937255859375	
138	0.552	0.0	0.0	0.0	0.0	0.003	0.006	0.003	0.003	9.78031378173828	0.028131869506835935	0.19692308654785154	2.34222412109375	-3.917694091796875	-0.621795654296875	9.706692080688477	0.7308300567626953	0.2920926025390625	0.576019287109375	-5.168914794921875	-2.8228759765625	10.038289010620117	0.872087954711914	-0.23223756103515625	2.979278564453125	-4.741668701171875	-1.811981201171875	
139	0.556	0.0	0.0	0.0	0.0	0.003	0.003	0.006	0.003	9.867103591918944	0.08319850769042968	0.10414777221679687	2.838134765625	-4.06646728515625	-0.553131103515625	9.889249957275391	0.4495113616943359	0.1131260284423828	0.881195068359375	-5.123138427734375	-3.314971923828125	10.096348400878906	0.2454056701660156	-0.22445640563964842	2.5482177734375	-4.72259521484375	-1.51824951171875	
140	0.56	0.0	0.0	0.0	0.0	0.012	0.003	0.006	0.003	9.785700735473633	0.04608838195800781	0.22206220397949217	2.407073974609375	-3.543853759765625	-0.537872314453125	9.647435589599608	1.1947066284179686	0.31543606872558594	1.03759765625	-4.871368408203125	-3.719329833984375	9.747393508911133	0.5243301635742187	0.13646949462890623	2.28118896484375	-4.573822021484375	-2.231597900390625	
141	0.5640000000000001	0.0	0.0	0.0	0.0	0.003	0.003	0.006	0.006	9.859920986938477	0.10893617553710937	0.09217676391601562	3.30352783203125	-4.184722900390625	-0.354766845703125	9.91438907470703	0.3908534210205078	0.11192892761230468	1.068115234375	-5.2490234375	-3.18145751953125	10.091559997558592	0.12389993591308593	-0.22864625854492185	3.0364990234375	-4.90570068359375	-1.53350830078125	
142	0.5680000000000001	0.0	0.0	0.0	0.0	0.006	0.003	0.003	0.006	9.795876092529296	0.00239420166015625	0.2088940948486328	3.34930419921875	-3.932952880859375	-1.1138916015625	9.668983404541015	1.1552023010253905	0.3172317199707031	1.209259033203125	-4.95147705078125	-3.795623779296875	9.759963067626952	0.42796354675292964	0.12629413757324218	2.422332763671875	-4.375457763671875	-2.330780029296875	
143	0.5720000000000001	0.0	0.0	0.0	0.0	0.006	0.006	0.003	0.006	9.852139831542969	0.21966800231933592	0.11372457885742186	3.54766845703125	-4.08172607421875	-0.255584716796875	9.897031112670899	0.46028526916503903	0.12150573425292968	0.774383544921875	-5.28717041015625	-3.204345703125	10.092757098388672	0.13168109130859373	-0.2507926239013672	2.338409423828125	-5.16510009765625	-1.285552978515625	
144	0.5760000000000001	0.0	0.0	0.0	0.0	0.003	0.006	0.003	0.003	9.809642752075195	0.37289690856933594	0.11372457885742186	3.452301025390625	-4.131317138671875	-1.2054443359375	9.656413845825195	1.0857704528808594	0.31663316955566406	1.163482666015625	-4.772186279296875	-3.574371337890625	9.746196408081055	0.30526071166992186	0.13168109130859373	2.23541259765625	-4.4403076171875	-2.0751953125	
145	0.58	0.0	0.0	0.0	0.0	0.003	0.006	0.006	0.003	9.848548529052733	0.21787235107421873	0.12629413757324218	3.753662109375	-4.405975341796875	-0.415802001953125	9.629479077148437	0.7230489013671875	0.37768531188964843	0.553131103515625	-4.932403564453125	-3.4637451171875	9.843760125732421	0.3920505218505859	-0.006584054565429687	2.3651123046875	-4.8065185546875	-1.62506103515625	
146	0.584	0.0	0.0	0.0	0.0	0.003	0.003	0.003	0.006	9.816226806640625	0.3968389251708984	0.0987608184814453	3.47137451171875	-3.910064697265625	-1.15203857421875	9.67856021118164	1.121683477783203	0.28969840087890625	1.41143798828125	-4.93621826171875	-3.84521484375	9.763554370117188	0.35194764404296874	0.08858546142578125	2.315521240234375	-4.543304443359375	-2.01416015625	
147	0.588	0.0	0.0	0.0	0.0	0.009000000000000001	0.006	0.003	0.003	9.874884747314452	0.47165772705078124	-0.008978256225585938	3.314971923828125	-4.3487548828125	-1.0528564453125	9.629479077148437	0.6434416961669921	0.39444472351074217	0.392913818359375	-5.0201416015625	-3.387451171875	9.801263046264648	0.489015689086914	0.017956512451171875	2.216339111328125	-5.16510009765625	-1.613616943359375	
148	0.592	0.0	0.0	0.0	0.0	0.006	0.003	0.006	0.003	9.826402163696288	0.26336218261718747	0.07781155395507812	3.5552978515625	-4.058837890625	-1.285552978515625	9.733028298950195	0.3950432739257812	0.25797522888183594	0.377655029296875	-4.638671875	-4.03594970703125	9.97184991455078	0.6488286499023437	-0.3082534637451172	2.529144287109375	-4.543304443359375	-2.3345947265625	
149	0.596	0.0	0.0	0.0	0.0	0.003	0.006	0.006	0.003	9.906009368896484	0.30466216125488277	-0.06823474731445311	3.082275390625	-4.08935546875	-1.13677978515625	9.672574707031249	0.5919663604736328	0.3429693878173828	0.640869140625	-5.04302978515625	-3.383636474609375	9.809642752075195	0.5596446380615234	0.002992752075195312	1.880645751953125	-4.825592041015625	-1.651763916015625	
150	0.6	0.0	0.0	0.0	0.0	0.003	0.006	0.003	0.003	9.81862100830078	0.2184709014892578	0.0652419952392578	3.383636474609375	-3.96728515625	-1.04522705078125	9.689932669067382	0.526125814819336	0.2807201446533203	0.08392333984375	-4.802703857421875	-3.742218017578125	9.923965881347655	0.7888894470214843	-0.2567781280517578	2.391815185546875	-4.73785400390625	-2.269744873046875	
151	0.604	0.0	0.0	0.0	0.0	0.006	0.003	0.006	0.003	9.918578927612304	0.2501940734863281	-0.09038111267089843	3.2806396484375	-4.467010498046875	-1.018524169921875	9.73661960144043	0.4273649963378906	0.19512743530273435	0.202178955078125	-5.359649658203125	-3.093719482421875	9.83837317199707	0.824802471923828	0.040102877807617184	2.66265869140625	-4.474639892578125	-1.42669677734375	
152	0.608	0.0	0.0	0.0	0.0	0.003	0.003	0.006	0.006	9.889249957275391	-0.02693476867675781	0.008978256225585938	3.681182861328125	-4.608154296875	-1.071929931640625	9.740809454345703	0.584185205078125	0.15263035583496093	0.35858154296875	-5.001068115234375	-3.9520263671875	9.967061511230469	0.6697779144287109	-0.3507505432128906	2.750396728515625	-4.474639892578125	-2.689361572265625	
153	0.612	0.0	0.0	0.0	0.0	0.003	0.003	0.003	0.006	9.90122096557617	0.2454056701660156	-0.12090718383789062	3.10516357421875	-4.291534423828125	-1.30462646484375	9.76235726928711	0.6003460662841796	0.07841010437011718	0.324249267578125	-5.43212890625	-3.475189208984375	9.873687646484374	0.8062474090576172	-0.011971008300781249	3.204345703125	-4.337310791015625	-1.62506103515625	
154	0.616	0.0	0.0	0.0	0.0	0.006	0.006	0.003	0.003	9.900023864746093	-0.13946224670410157	-0.03232172241210937	3.16619873046875	-4.154205322265625	-1.003265380859375	9.90241806640625	0.2454056701660156	-0.012569558715820313	0.827789306640625	-5.130767822265625	-3.41796875	9.929951385498047	0.5704185455322265	-0.36092590026855464	2.704620361328125	-4.39453125	-1.903533935546875	
155	0.62	0.0	0.0	0.0	0.0	0.003	0.003	0.003	0.003	9.937732540893554	0.14484920043945312	-0.16280571289062498	2.40325927734375	-3.83758544921875	-0.48065185546875	9.764751470947266	0.5225345123291015	0.086191259765625	0.54168701171875	-5.367279052734375	-3.505706787109375	9.929352835083007	0.6979097839355468	-0.19692308654785154	3.3416748046875	-4.57763671875	-1.399993896484375	
156	0.624	0.0	0.0	0.0	0.0	0.003	0.006	0.003	0.006	9.94730934753418	-0.14724340209960937	-0.11133037719726561	3.322601318359375	-4.390716552734375	-0.972747802734375	9.911994873046874	0.30466216125488277	0.0017956512451171875	0.37384033203125	-4.98199462890625	-3.34930419921875	10.198101971435547	-0.06643909606933593	-0.2759317413330078	2.620697021484375	-4.09698486328125	-1.712799072265625	
157	0.628	0.0	0.0	0.0	0.0	0.006	0.003	0.006	0.003	9.750984811401366	-0.006584054565429687	0.36391865234375	2.716064453125	-3.997802734375	-0.461578369140625	9.698910925292969	0.6075286712646484	0.36571430358886714	0.42724609375	-5.146026611328125	-3.002166748046875	9.89583401184082	0.8391676818847655	-0.2346317626953125	3.536224365234375	-4.669189453125	-1.270294189453125	
158	0.632	0.0	0.0	0.0	0.0	0.003	0.006	0.006	0.003	9.929352835083007	-0.3345896820068359	-0.1131260284423828	2.67791748046875	-3.963470458984375	-1.0833740234375	9.963470208740233	0.1927332336425781	-0.1927332336425781	0.6866455078125	-5.18035888671875	-3.36456298828125	10.304643945312499	-0.10654197387695312	-0.6314706878662109	2.780914306640625	-4.8370361328125	-2.044677734375	
159	0.636	0.0	0.0	0.0	0.0	0.003	0.003	0.006	0.006	9.801263046264648	-0.3226186737060547	0.19153613281249998	1.201629638671875	-3.032684326171875	-0.48828125	9.7928833404541	0.7511807708740234	0.14305354919433594	0.682830810546875	-5.176544189453125	-2.819061279296875	10.10712230834961	0.5662286926269531	-0.35194764404296874	2.956390380859375	-4.75311279296875	-1.89208984375	
160	0.64	0.0	0.0	0.0	0.0	0.006	0.006	0.006	0.006	9.983820922851562	-0.6757634185791015	-0.06883329772949218	-0.461578369140625	-2.216339111328125	-0.54931640625	10.041880313110351	0.23523031311035156	-0.08798691101074219	1.163482666015625	-5.11932373046875	-3.15093994140625	10.297461340332031	0.00718260498046875	-0.6494272003173828	2.857208251953125	-4.550933837890625	-2.06756591796875	
161	0.644	0.0	0.0	0.0	0.0	0.006	0.003	0.003	0.003	9.753977563476562	-0.13467384338378904	0.29269115295410153	2.5634765625	-4.1351318359375	-0.530242919921875	9.724050042724608	0.565031591796875	0.296881005859375	0.31280517578125	-4.993438720703125	-3.032684326171875	10.037690460205077	0.565031591796875	-0.32022447204589843	3.383636474609375	-4.718780517578125	-1.392364501953125	
162	0.648	0.0	0.0	0.0	0.0	0.006	0.006	0.006	0.003	9.973047015380859	-0.5847837554931641	0.029328970336914062	0.64849853515625	-2.54058837890625	-0.392913818359375	10.074202035522461	0.1406593475341797	-0.07242460021972656	0.667572021484375	-5.229949951171875	-3.22723388671875	10.22204398803711	-0.08678981018066406	-0.5201403106689453	2.819061279296875	-4.993438720703125	-1.346588134765625	
163	0.652	0.0	0.0	0.0	0.0	0.003	0.006	0.006	0.003	9.759364517211914	-0.2902969512939453	0.2262520568847656	0.843048095703125	-3.017425537109375	-0.7171630859375	9.787496386718749	0.6596025573730468	0.19153613281249998	1.007080078125	-5.06591796875	-3.795623779296875	10.043675964355469	0.565630142211914	-0.22266075439453123	2.956390380859375	-4.547119140625	-1.5869140625	
164	0.656	0.0	0.0	0.0	0.0	0.003	0.003	0.006	0.006	9.926958633422851	-0.6069301208496093	0.031124621582031248	-0.690460205078125	-2.132415771484375	-0.32806396484375	10.019733947753906	0.30406361083984373	-0.0053869537353515625	1.13677978515625	-5.382537841796875	-2.918243408203125	10.120290417480469	0.020949264526367185	-0.35314474487304687	2.788543701171875	-5.084991455078125	-1.2664794921875	
165	0.66	0.0	0.0	0.0	0.0	0.006	0.003	0.003	0.006	9.851541281127929	0.11552023010253906	0.07003039855957031	1.30462646484375	-3.063201904296875	-0.972747802734375	9.672574707031249	0.8678981018066406	0.2705447875976562	1.438140869140625	-4.95147705078125	-3.27301025390625	10.066420880126952	0.5386953735351562	-0.26216508178710934	2.262115478515625	-4.69207763671875	-2.368927001953125	
166	0.664	0.0	0.0	0.0	0.0	0.003	0.003	0.003	0.006	9.925162982177733	-0.5297171173095703	0.06464344482421874	-0.28228759765625	-2.056121826171875	-0.38909912109375	10.06821653137207	0.27174188842773433	-0.06643909606933593	0.38909912109375	-5.153656005859375	-3.376007080078125	10.188525164794921	-0.0939724151611328	-0.4261678955078125	2.8228759765625	-4.825592041015625	-1.495361328125	
167	0.668	0.0	0.0	0.0	0.0	0.0	0.003	0.006	0.006	9.834781869506836	0.33578678283691404	0.0939724151611328	1.19781494140625	-2.880096435546875	-1.018524169921875	9.648034140014648	1.1809399688720703	0.2771288421630859	1.09100341796875	-4.871368408203125	-3.391265869140625	9.7162688873291	0.6338648895263671	0.10714052429199218	2.06756591796875	-4.78363037109375	-2.38037109375	
168	0.672	0.0	0.0	0.0	0.0	0.006	0.006	0.003	0.006	9.883264453125	-0.5123591552734374	0.12330138549804687	4.634857177734375	-5.016326904296875	-0.926971435546875	9.618106619262695	0.6841431243896484	0.4273649963378906	0.5950927734375	-5.092620849609375	-3.2958984375	10.149619387817383	-0.08499415893554688	-0.354341845703125	2.655029296875	-4.95147705078125	-1.499176025390625	
169	0.676	0.0	0.0	0.0	0.0	0.006	0.006	0.006	0.006	9.852139831542969	0.22026655273437498	0.06284779357910156	1.270294189453125	-3.025054931640625	-1.15203857421875	9.70968483276367	0.8906430175781249	0.2693476867675781	1.24359130859375	-5.1422119140625	-3.726959228515625	9.743203656005859	0.3848679168701172	0.12030863342285156	1.941680908203125	-4.680633544921875	-2.62451171875	
170	0.68	0.0	0.0	0.0	0.0	0.006	0.003	0.006	0.006	9.816226806640625	0.967257470703125	-0.008978256225585938	4.852294921875	-4.901885986328125	-0.946044921875	9.625289224243163	0.7918821990966797	0.4560954162597656	0.69427490234375	-4.8980712890625	-3.60107421875	9.802460147094726	0.6428431457519531	-0.03950432739257812	2.361297607421875	-4.6844482421875	-1.91497802734375	
171	0.684	0.0	0.0	0.0	0.0	0.006	0.006	0.006	0.006	9.802460147094726	0.39444472351074217	0.12689268798828124	1.60980224609375	-3.0670166015625	-0.789642333984375	9.600150106811522	0.7733271362304687	0.2885013000488281	0.431060791015625	-4.703521728515625	-3.871917724609375	9.663596450805663	0.6248866333007812	0.18914193115234373	2.197265625	-4.69970703125	-2.35748291015625	
172	0.6880000000000001	0.0	0.0	0.0	0.0	0.006	0.003	0.006	0.003	9.815628256225585	0.8882488159179687	0.0	5.40924072265625	-5.428314208984375	-1.12152099609375	9.675567459106444	0.535702621459961	0.4321533996582031	0.640869140625	-4.95147705078125	-3.6773681640625	9.783905084228515	0.3537432952880859	0.003591302490234375	2.3956298828125	-4.642486572265625	-1.57928466796875	
173	0.6920000000000001	0.0	0.0	0.0	0.0	0.006	0.003	0.003	0.006	9.9078050201416	0.7637503295898437	0.05087678527832031	5.458831787109375	-5.5389404296875	-1.499176025390625	9.643844287109374	0.9427169036865234	0.2657563842773437	0.95367431640625	-4.856109619140625	-3.99017333984375	9.95329485168457	0.6338648895263671	-0.21308394775390624	2.582550048828125	-4.150390625	-2.3956298828125	
174	0.6960000000000001	0.0	0.0	0.0	0.0	0.003	0.006	0.003	0.003	9.796474642944336	0.9175777862548827	-0.0047884033203125	5.489349365234375	-5.2642822265625	-0.87738037109375	9.578003741455078	0.8122329132080077	0.26336218261718747	0.152587890625	-5.2032470703125	-3.0059814453125	9.688137017822266	0.4908113403320312	0.09038111267089843	2.552032470703125	-4.8828125	-1.0528564453125	
175	0.7000000000000001	0.0	0.0	0.0	0.0	0.003	0.006	0.003	0.006	9.882067352294921	0.47105917663574215	0.10654197387695312	5.43975830078125	-5.336761474609375	-1.53350830078125	9.629479077148437	0.45549686584472654	0.27952304382324217	0.5950927734375	-4.69970703125	-4.302978515625	9.912593423461914	0.06105214233398437	-0.15203180541992187	2.49481201171875	-4.467010498046875	-2.429962158203125	
176	0.704	0.0	0.0	0.0	0.0	0.006	0.003	0.006	0.006	9.819818109130859	-0.05686228942871093	-0.007781155395507812	3.780364990234375	-4.428863525390625	-1.445770263671875	9.670180505371093	0.9277531433105468	0.1879448303222656	0.141143798828125	-5.008697509765625	-3.59344482421875	9.828197814941406	0.7044938385009765	0.033518823242187495	2.895355224609375	-4.72259521484375	-1.97601318359375	
177	0.708	0.0	0.0	0.0	0.0	0.003	0.003	0.006	0.006	9.952696301269532	-0.0718260498046875	0.03591302490234375	2.044677734375	-3.25775146484375	-0.507354736328125	9.85752678527832	0.8265981231689452	0.015562310791015624	0.247955322265625	-4.932403564453125	-3.326416015625	9.859322436523437	0.7841010437011718	-0.10474632263183593	2.69317626953125	-4.40216064453125	-1.621246337890625	
178	0.712	0.0	0.0	0.0	0.0	0.006	0.003	0.006	0.006	10.038887561035155	0.6159083770751953	-0.05027823486328125	5.367279052734375	-5.706787109375	-0.270843505859375	9.562441430664062	0.776319888305664	0.2651578338623047	0.629425048828125	-4.82940673828125	-3.368377685546875	9.773131176757811	0.7428010650634765	-0.05566518859863281	2.742767333984375	-4.779815673828125	-0.720977783203125	
179	0.716	0.0	0.0	0.0	0.0	0.006	0.006	0.006	0.003	10.040084661865233	0.814627114868164	-0.12808978881835936	5.68389892578125	-5.5389404296875	-0.614166259765625	9.94012674255371	0.17238251953125	-0.06584054565429687	0.9002685546875	-5.1727294921875	-3.96728515625	9.968857162475585	0.07841010437011718	-0.2262520568847656	2.521514892578125	-4.329681396484375	-2.490997314453125	
180	0.72	0.0	0.0	0.0	0.0	0.003	0.003	0.006	0.006	10.038887561035155	-0.08259995727539061	-0.020350714111328123	4.688262939453125	-5.229949951171875	-0.70953369140625	9.858723886108399	0.5614402893066406	0.20530279235839843	0.614166259765625	-5.306243896484375	-3.536224365234375	9.89463691101074	0.9923965881347656	-0.10714052429199218	2.86102294921875	-4.405975341796875	-1.682281494140625	
181	0.724	0.0	0.0	0.0	0.0	0.003	0.006	0.003	0.006	9.941323843383788	0.13766659545898435	0.031124621582031248	3.261566162109375	-4.35638427734375	-0.91552734375	9.816226806640625	0.4914098907470703	0.06464344482421874	0.354766845703125	-4.940032958984375	-3.536224365234375	10.263942517089843	0.4052186309814453	-0.5536591339111328	3.162384033203125	-4.558563232421875	-0.78582763671875	
182	0.728	0.0	0.0	0.0	0.0	0.006	0.003	0.006	0.003	10.072406384277343	0.1975216369628906	-0.05985504150390625	4.055023193359375	-5.077362060546875	-0.17547607421875	9.858125335693359	0.4686649749755859	0.201112939453125	0.1678466796875	-5.27191162109375	-3.11279296875	9.868899243164062	0.8409633331298828	-0.12988544006347655	2.803802490234375	-4.840850830078125	-1.461029052734375	
183	0.732	0.0	0.0	0.0	0.0	0.003	0.006	0.006	0.003	10.13166287536621	0.06643909606933593	-0.1466448516845703	5.5694580078125	-5.840301513671875	-0.614166259765625	9.907206469726562	0.6416460449218749	-0.1083376251220703	0.988006591796875	-5.31005859375	-2.6702880859375	10.40699606628418	0.04908113403320312	-0.6625953094482422	2.99072265625	-4.40216064453125	-1.434326171875	
184	0.736	0.0	0.0	0.0	0.0	0.003	0.003	0.006	0.006	9.986215124511718	0.19512743530273435	0.028730419921875	6.134033203125	-5.939483642578125	-0.6561279296875	9.79946739501953	0.30346506042480464	0.2501940734863281	0.774383544921875	-4.8980712890625	-3.589630126953125	10.01075569152832	0.5955576629638671	-0.0053869537353515625	2.849578857421875	-4.451751708984375	-1.68609619140625	
185	0.74	0.0	0.0	0.0	0.0	0.006	0.003	0.003	0.006	9.956287603759765	-0.4674678741455078	0.10953472595214843	2.7008056640625	-4.230499267578125	-0.705718994140625	9.961076007080077	0.6200982299804687	0.0796072052001953	0.682830810546875	-5.298614501953125	-2.8228759765625	10.286687432861328	0.4333505004882812	-0.546476528930664	3.2196044921875	-4.573822021484375	-1.4495849609375	
186	0.744	0.0	0.0	0.0	0.0	0.006	0.003	0.003	0.006	9.597157354736327	0.20051438903808594	0.5099649536132812	1.468658447265625	-3.16619873046875	-0.858306884765625	9.847351428222655	0.8792705596923828	0.16759411621093748	0.858306884765625	-5.2337646484375	-3.437042236328125	10.137049829101562	0.40940848388671874	-0.105344873046875	2.81524658203125	-4.795074462890625	-1.689910888671875	
187	0.748	0.0	0.0	0.0	0.0	0.006	0.006	0.006	0.006	9.970652813720703	-0.14006079711914063	0.11611878051757812	2.89154052734375	-3.9825439453125	-0.86212158203125	10.02332525024414	0.1149216796875	0.03411737365722656	0.911712646484375	-5.161285400390625	-3.0059814453125	10.286088882446288	0.3950432739257812	-0.5722141967773438	2.613067626953125	-4.669189453125	-1.804351806640625	
188	0.752	0.0	0.0	0.0	0.0	0.003	0.003	0.006	0.003	9.562441430664062	0.19333178405761717	0.5488707305908203	1.02996826171875	-2.8533935546875	-1.003265380859375	9.592967501831055	1.1809399688720703	0.35613749694824215	1.049041748046875	-4.589080810546875	-3.627777099609375	9.993397729492187	0.5129577056884765	-0.03591302490234375	3.009796142578125	-4.611968994140625	-1.544952392578125	
189	0.756	0.0	0.0	0.0	0.0	0.003	0.006	0.006	0.003	9.900023864746093	-0.4129997863769531	0.19931728820800781	1.949310302734375	-3.4332275390625	-0.95367431640625	10.05504842224121	-0.052073886108398436	0.03531447448730469	1.27410888671875	-5.43975830078125	-3.509521484375	10.216058483886718	0.37828386230468747	-0.46686932373046874	2.712249755859375	-4.955291748046875	-1.720428466796875	
190	0.76	0.0	0.0	0.0	0.0	0.006	0.003	0.003	0.006	9.609128363037108	-0.025139117431640625	0.4070142822265625	-0.61798095703125	-1.59454345703125	-1.1138916015625	9.682151513671874	1.1713631622314453	0.3028665100097656	0.7476806640625	-5.10406494140625	-3.3416748046875	10.132859976196288	0.3597287994384765	-0.10115502014160156	2.681732177734375	-4.8675537109375	-1.842498779296875	
191	0.764	0.0	0.0	0.0	0.0	0.003	0.006	0.006	0.006	9.819818109130859	0.09457096557617187	0.016759411621093748	0.423431396484375	-2.368927001953125	-0.9765625	9.778518130493163	-0.013168109130859374	0.3699041564941406	0.011444091796875	-4.825592041015625	-3.6468505859375	10.105925207519531	0.44532150878906246	-0.4638765716552734	2.74658203125	-4.60052490234375	-1.865386962890625	
192	0.768	0.0	0.0	0.0	0.0	0.006	0.006	0.003	0.003	9.668384854125977	0.24001871643066405	0.3435679382324219	-0.457763671875	-1.79290771484375	-1.384735107421875	9.650428341674804	1.01514150390625	0.32561142578124996	1.003265380859375	-4.92095947265625	-2.895355224609375	9.702502227783203	0.3591302490234375	0.007781155395507812	2.62451171875	-4.75311279296875	-1.9378662109375	
193	0.772	0.0	0.0	0.0	0.0	0.003	0.003	0.003	0.003	9.931747036743163	0.0017956512451171875	-0.13587094421386717	1.16729736328125	-2.66265869140625	-1.129150390625	9.88386300354004	0.17417817077636719	0.22206220397949217	0.339508056640625	-4.852294921875	-3.85284423828125	10.230423693847655	0.4417302062988281	-0.5446808776855468	2.834320068359375	-4.764556884765625	-1.674652099609375	
194	0.776	0.0	0.0	0.0	0.0	0.009000000000000001	0.003	0.006	0.003	9.677363110351562	0.040701428222656245	0.24001871643066405	-0.396728515625	-1.48773193359375	-1.3427734375	9.689334118652344	0.7254431030273437	0.06943184814453125	0.579833984375	-4.9285888671875	-3.23486328125	9.7683427734375	0.22086510314941404	0.037110125732421874	2.498626708984375	-4.543304443359375	-2.071380615234375	
195	0.78	0.0	0.0	0.0	0.0	0.003	0.003	0.006	0.006	9.879673150634765	0.21607669982910155	-0.14963760375976562	2.44903564453125	-3.66973876953125	-1.04522705078125	9.781510882568359	0.5674257934570313	0.2663549346923828	0.25177001953125	-5.092620849609375	-3.833770751953125	9.679158761596678	0.5039794494628906	-0.07721300354003906	2.407073974609375	-5.02777099609375	-1.99127197265625	
196	0.784	0.0	0.0	0.0	0.0	0.003	0.003	0.003	0.003	9.997587582397461	0.33518823242187495	-0.2693476867675781	4.50897216796875	-4.840850830078125	-0.83160400390625	9.74799205932617	0.5255272644042969	-0.04129997863769531	0.179290771484375	-4.9285888671875	-3.093719482421875	9.74799205932617	0.3327940307617187	-0.02693476867675781	2.38800048828125	-4.596710205078125	-1.8157958984375	
197	0.788	0.0	0.0	0.0	0.0	0.003	0.003	0.006	0.006	9.98501802368164	0.2663549346923828	-0.30466216125488277	3.71551513671875	-4.459381103515625	-1.06048583984375	9.718663088989258	0.5422866760253906	-0.12569558715820311	0.385284423828125	-5.275726318359375	-3.223419189453125	9.822810861206055	0.5087678527832031	-0.24600422058105467	2.655029296875	-4.98199462890625	-1.926422119140625	
198	0.792	0.0	0.0	0.0	0.0	0.0	0.003	0.006	0.006	9.911994873046874	0.0796072052001953	-0.15322890625	4.261016845703125	-4.703521728515625	-0.55694580078125	9.675567459106444	0.49021278991699213	0.0526724365234375	0.4730224609375	-4.878997802734375	-3.360748291015625	9.65342109375	0.3142389678955078	0.08559270935058594	2.227783203125	-4.302978515625	-1.51824951171875	
199	0.796	0.0	0.0	0.0	0.0	0.006	0.006	0.003	0.003	9.910797772216796	0.33518823242187495	-0.1897404815673828	3.9215087890625	-4.95147705078125	-0.858306884765625	9.649231240844726	0.5728127471923827	-0.01975216369628906	0.14495849609375	-5.413055419921875	-2.8533935546875	9.758765966796874	0.4112041351318359	-0.12330138549804687	2.437591552734375	-5.001068115234375	-2.08282470703125	
200	0.8	0.0	0.0	0.0	0.0	0.003	0.003	0.003	0.003	9.990404977416992	-0.0005985504150390625	-0.18555062866210936	4.779815673828125	-5.37872314453125	-0.74005126953125	9.85692823486328	0.3854664672851562	0.015562310791015624	0.579833984375	-5.275726318359375	-3.414154052734375	9.980828170776366	0.42377369384765623	-0.2059013427734375	2.4566650390625	-4.314422607421875	-1.74713134765625	
201	0.804	0.0	0.0	0.0	0.0	0.006	0.006	0.006	0.006	9.913191973876952	-0.13826514587402344	-0.05087678527832031	2.50244140625	-4.108428955078125	-0.682830810546875	9.59476315307617	0.5201403106689453	0.04129997863769531	0.431060791015625	-5.16510009765625	-3.21197509765625	9.718064538574218	0.489015689086914	-0.07781155395507812	2.208709716796875	-4.840850830078125	-2.285003662109375	
202	0.808	0.0	0.0	0.0	0.0	0.006	0.003	0.006	0.003	9.85692823486328	-0.017357962036132813	0.011971008300781249	3.856658935546875	-4.72259521484375	-0.9765625	9.710881933593749	0.5159504577636719	0.1514332550048828	0.705718994140625	-5.184173583984375	-3.60107421875	9.82460651245117	0.4590881683349609	-0.06643909606933593	2.6092529296875	-4.268646240234375	-1.79290771484375	
203	0.812	0.0	0.0	0.0	0.0	0.003	0.003	0.003	0.006	9.904812268066406	-0.41539398803710936	0.007781155395507812	0.83160400390625	-3.143310546875	-0.637054443359375	9.695319622802733	0.40761283264160153	0.08319850769042968	0.52642822265625	-5.001068115234375	-3.314971923828125	9.941922393798828	0.40581718139648437	0.001197100830078125	2.655029296875	-4.78363037109375	-1.50299072265625	
204	0.8160000000000001	0.0	0.0	0.0	0.0	0.003	0.003	0.003	0.003	9.871293444824218	0.10474632263183593	0.17956512451171874	2.15911865234375	-3.505706787109375	-0.614166259765625	9.776722479248047	0.51714755859375	0.20530279235839843	0.51116943359375	-4.802703857421875	-3.8299560546875	9.936535440063476	0.30466216125488277	-0.04189852905273437	2.490997314453125	-4.1961669921875	-1.773834228515625	
205	0.8200000000000001	0.0	0.0	0.0	0.0	0.006	0.006	0.003	0.006	9.854534033203125	-0.30047230834960936	0.17477672119140625	0.54931640625	-2.84576416015625	-1.033782958984375	9.707889181518555	0.5470750793457031	0.4381389038085937	0.32806396484375	-5.107879638671875	-3.505706787109375	9.809044201660155	0.4513070129394531	0.09756371765136718	2.544403076171875	-4.608154296875	-1.934051513671875	
206	0.8240000000000001	0.0	0.0	0.0	0.0	0.003	0.003	0.003	0.006	9.917980377197265	0.0796072052001953	0.086191259765625	1.495361328125	-3.3111572265625	-0.637054443359375	9.744999307250977	0.6105214233398437	0.24899697265624998	1.0833740234375	-5.05828857421875	-3.490447998046875	10.352527978515624	0.5458779785156249	-0.785896694946289	2.86102294921875	-4.596710205078125	-1.19781494140625	
207	0.8280000000000001	0.0	0.0	0.0	0.0	0.006	0.003	0.003	0.006	9.967660061645507	-0.09995791931152344	0.03172317199707031	0.38909912109375	-2.452850341796875	-0.74005126953125	9.832986218261718	0.4626794708251953	0.316034619140625	0.476837158203125	-4.9896240234375	-3.4332275390625	9.979631069946288	0.4010287780761719	-0.032920272827148434	2.83050537109375	-4.608154296875	-1.750946044921875	
208	0.8320000000000001	0.0	0.0	0.0	0.0	0.003	0.003	0.006	0.003	9.891644158935547	0.08080430603027343	0.11851298217773437	3.299713134765625	-3.85284423828125	-0.576019287109375	9.92755718383789	0.5434837768554687	0.09337386474609374	0.965118408203125	-4.9896240234375	-3.421783447265625	10.321403356933594	0.42975919799804685	-0.6248866333007812	2.956390380859375	-4.474639892578125	-1.506805419921875	
209	0.836	0.0	0.0	0.0	0.0	0.003	0.003	0.006	0.003	9.73602105102539	0.6596025573730468	0.316034619140625	4.852294921875	-5.062103271484375	-0.553131103515625	9.737816702270507	0.603338818359375	0.3184288208007812	0.66375732421875	-5.28717041015625	-3.452301025390625	9.846154327392577	0.565630142211914	0.0718260498046875	3.093719482421875	-4.871368408203125	-1.682281494140625	
210	0.84	0.0	0.0	0.0	0.0	0.006	0.003	0.006	0.006	10.036493359375	0.3800795135498047	-0.15741875915527342	4.772186279296875	-5.1422119140625	-0.5950927734375	10.034099157714843	0.5746083984375	-0.10295067138671875	1.361846923828125	-4.863739013671875	-3.1585693359375	10.409988818359375	0.5339069702148437	-0.7320271575927734	3.08990478515625	-4.596710205078125	-1.38092041015625	
211	0.844	0.0	0.0	0.0	0.0	0.003	0.006	0.003	0.003	9.71686743774414	0.24181436767578124	0.3459621398925781	5.02777099609375	-5.0048828125	-0.96893310546875	9.685742816162108	0.6883329772949218	0.4177881896972656	0.904083251953125	-5.0048828125	-3.253936767578125	10.128670123291014	0.277727392578125	-0.20709844360351562	3.070831298828125	-4.50897216796875	-1.728057861328125	
212	0.848	0.0	0.0	0.0	0.0	0.006	0.003	0.006	0.006	9.9078050201416	-0.03591302490234375	0.1514332550048828	0.8697509765625	-2.689361572265625	-1.018524169921875	9.874286196899414	0.6087257720947266	0.12629413757324218	1.04522705078125	-5.046844482421875	-3.261566162109375	10.26035121459961	0.6141127258300781	-0.6194996795654296	2.99835205078125	-4.791259765625	-1.499176025390625	
213	0.852	0.0	0.0	0.0	0.0	0.006	0.003	0.003	0.003	9.658209497070311	0.7966706024169922	0.37409400939941406	5.30242919921875	-5.1422119140625	-0.453948974609375	9.686939916992188	0.7080851409912109	0.40761283264160153	0.514984130859375	-5.06591796875	-3.28826904296875	10.110115060424803	0.3435679382324219	-0.19991583862304688	2.79998779296875	-4.688262939453125	-1.74713134765625	
214	0.856	0.0	0.0	0.0	0.0	0.003	0.006	0.003	0.006	9.891045608520507	-0.34057518615722654	0.055066638183593745	0.35858154296875	-2.52532958984375	-1.57928466796875	10.033500607299803	0.5093664031982421	-0.07781155395507812	0.7476806640625	-5.2490234375	-3.376007080078125	10.155006341552733	0.5943605621337891	-0.3794809631347656	2.780914306640625	-4.94384765625	-1.76239013671875	
215	0.86	0.0	0.0	0.0	0.0	0.006	0.003	0.006	0.006	9.60852981262207	0.06823474731445311	0.4836287353515625	2.9754638671875	-3.963470458984375	-0.858306884765625	9.567229833984374	0.7631517791748046	0.6117185241699218	0.244140625	-5.123138427734375	-3.376007080078125	9.963470208740233	0.36750995483398435	-0.1149216796875	2.61688232421875	-4.78363037109375	-1.94549560546875	
216	0.864	0.0	0.0	0.0	0.0	0.006	0.003	0.006	0.003	9.85752678527832	0.143652099609375	0.11013327636718749	0.43487548828125	-2.532958984375	-0.78582763671875	9.917381826782226	0.5386953735351562	0.023343466186523436	0.701904296875	-5.062103271484375	-3.314971923828125	9.97783541870117	0.6817489227294922	-0.2819172454833984	2.9754638671875	-5.138397216796875	-1.60980224609375	
217	0.868	0.0	0.0	0.0	0.0	0.003	0.006	0.006	0.003	9.907206469726562	-0.01915361328125	-0.10354922180175781	1.338958740234375	-2.788543701171875	-1.667022705078125	9.71686743774414	0.6194996795654296	0.31184476623535157	0.5340576171875	-4.962921142578125	-3.4027099609375	9.80066449584961	0.23582886352539062	0.12689268798828124	2.18963623046875	-4.57763671875	-1.922607421875	
218	0.872	0.0	0.0	0.0	0.0	0.003	0.003	0.006	0.003	9.822212310791015	-0.3010708587646484	0.14784195251464843	0.797271728515625	-2.54058837890625	-1.407623291015625	9.95329485168457	0.5530605834960938	-0.0047884033203125	1.094818115234375	-4.970550537109375	-3.826141357421875	10.064625228881836	0.5728127471923827	-0.27353753967285155	2.674102783203125	-4.947662353515625	-1.873016357421875	
219	0.876	0.0	0.0	0.0	0.0	0.003	0.006	0.006	0.003	9.797073193359374	-0.1466448516845703	0.03172317199707031	-0.240325927734375	-2.02178955078125	-0.850677490234375	9.57022258605957	0.6452373474121094	0.4686649749755859	0.003814697265625	-5.14984130859375	-3.39508056640625	9.60194575805664	0.33099837951660155	0.23403321228027343	1.956939697265625	-4.718780517578125	-2.0904541015625	
220	0.88	0.0	0.0	0.0	0.0	0.006	0.006	0.003	0.003	9.886257205200195	0.11911153259277343	0.04249707946777344	0.9307861328125	-2.685546875	-0.545501708984375	9.721057290649414	0.546476528930664	0.15562310791015624	0.96893310546875	-5.352020263671875	-3.02886962890625	10.135852728271484	0.5632359405517577	-0.037110125732421874	2.300262451171875	-4.82940673828125	-2.166748046875	
221	0.884	0.0	0.0	0.0	0.0	0.003	0.006	0.006	0.006	9.817423907470703	0.2615665313720703	-0.009576806640625	2.422332763671875	-3.528594970703125	-1.5869140625	9.665392102050781	0.5542576843261718	0.38307226562499996	0.37384033203125	-4.932403564453125	-3.635406494140625	9.78629928588867	0.21428104858398436	0.11671733093261719	2.22015380859375	-4.57000732421875	-2.269744873046875	
222	0.888	0.0	0.0	0.0	0.0	0.003	0.006	0.006	0.003	9.775525378417969	-0.44412440795898434	-0.011372457885742187	0.37384033203125	-2.70843505859375	-0.91552734375	9.64683703918457	0.5835866546630859	0.21068974609375	0.423431396484375	-5.2490234375	-3.185272216796875	9.71686743774414	0.5764040496826172	0.11671733093261719	2.300262451171875	-4.856109619140625	-2.048492431640625	
223	0.892	0.0	0.0	0.0	0.0	0.006	0.006	0.003	0.006	9.807847100830077	-0.5776011505126952	0.008379705810546874	-1.22833251953125	-1.583099365234375	-0.99945068359375	9.655216744995117	0.4955997436523437	0.43993455505371093	0.102996826171875	-4.92095947265625	-3.452301025390625	9.727641345214844	0.27832594299316404	0.054468087768554684	2.307891845703125	-4.61578369140625	-1.861572265625	
224	0.896	0.0	0.0	0.0	0.0	0.003	0.006	0.003	0.006	9.986215124511718	0.6440402465820312	-0.3651157531738281	2.712249755859375	-3.77655029296875	-0.69427490234375	9.815029705810547	0.5267243652343749	-0.03591302490234375	0.732421875	-5.176544189453125	-3.047943115234375	9.87727894897461	0.5237316131591797	-0.06763619689941405	2.2125244140625	-4.78363037109375	-2.0599365234375	
225	0.9	0.0	0.0	0.0	0.0	0.006	0.003	0.003	0.006	9.811438403320311	0.8038532073974609	-0.029927520751953124	6.34765625	-5.767822265625	-1.220703125	9.66000514831543	0.48243163452148435	0.19213468322753904	0.4425048828125	-4.894256591796875	-3.28826904296875	9.90900212097168	0.3363853332519531	-0.20171148986816406	2.452850341796875	-4.390716552734375	-1.62506103515625	
226	0.904	0.0	0.0	0.0	0.0	0.006	0.006	0.003	0.006	9.798270294189452	-0.17836802368164062	-0.02454056701660156	2.57110595703125	-4.0283203125	-1.461029052734375	9.665990652465819	0.5542576843261718	0.1640028137207031	0.5035400390625	-5.43212890625	-3.154754638671875	9.755773214721678	0.6075286712646484	-0.008978256225585938	2.55584716796875	-4.7149658203125	-1.850128173828125	
227	0.908	0.0	0.0	0.0	0.0	0.003	0.006	0.003	0.003	10.004770187377929	-0.3220201232910156	-0.09337386474609374	2.20489501953125	-3.528594970703125	-0.3204345703125	9.74859060974121	0.5183446594238281	0.17956512451171874	-0.019073486328125	-4.764556884765625	-3.570556640625	10.013748443603514	0.2950853546142578	-0.31004911499023435	2.54058837890625	-4.306793212890625	-1.41143798828125	
228	0.912	0.0	0.0	0.0	0.0	0.003	0.003	0.003	0.003	9.958681805419921	0.047285482788085934	-0.30526071166992186	-0.423431396484375	-2.010345458984375	-0.545501708984375	9.813832604980469	0.4944026428222656	0.029328970336914062	0.835418701171875	-5.4931640625	-3.299713134765625	9.95389340209961	0.4034229797363281	-0.16519991455078123	2.727508544921875	-4.61578369140625	-1.720428466796875	
229	0.916	0.0	0.0	0.0	0.0	0.006	0.006	0.003	0.003	10.004770187377929	0.9253589416503906	-0.18136077575683593	7.51495361328125	-6.77490234375	-0.67901611328125	9.598953005981445	0.5183446594238281	0.28431144714355466	0.202178955078125	-4.6844482421875	-3.54766845703125	9.87727894897461	0.35793314819335936	-0.24301146850585936	2.414703369140625	-4.283905029296875	-1.71661376953125	
230	0.92	0.0	0.0	0.0	0.0	0.006	0.006	0.006	0.003	9.847351428222655	-0.06584054565429687	0.3226186737060547	5.748748779296875	-5.931854248046875	-1.007080078125	9.80724855041504	0.5895721588134766	0.032920272827148434	1.132965087890625	-5.462646484375	-3.543853759765625	9.935936889648437	0.4578910675048828	-0.15203180541992187	2.948760986328125	-4.695892333984375	-1.678466796875	
231	0.924	0.0	0.0	0.0	0.0	0.003	0.003	0.003	0.003	9.961076007080077	-0.36092590026855464	-0.1352723937988281	4.596710205078125	-5.0201416015625	-1.1138916015625	10.013149893188476	0.508169302368164	-0.17776947326660156	0.659942626953125	-4.87518310546875	-3.147125244140625	10.38065984802246	0.46806642456054687	-0.6787561706542968	3.12042236328125	-4.46319580078125	-1.129150390625	
232	0.928	0.0	0.0	0.0	0.0	0.003	0.006	4.557	4.626	9.90122096557617	-0.15981296081542967	0.23702596435546874	2.315521240234375	-3.66973876953125	-0.274658203125	9.763554370117188	0.6757634185791015	0.08738836059570312	0.25177001953125	-5.30242919921875	-3.353118896484375	9.907206469726562	0.5033808990478515	-0.1849520782470703	3.0059814453125	-4.73785400390625	-1.80816650390625	
233	0.932	0.0	0.0	0.0	0.0	4.62	4.65	4.6530000000000005	4.626	9.977236868286132	-0.03651157531738281	-0.16879121704101563	2.788543701171875	-4.001617431640625	-0.31280517578125	9.937732540893554	0.5087678527832031	-0.14604630126953125	0.61798095703125	-4.955291748046875	-3.147125244140625	10.271125122070313	0.5997475158691405	-0.6524199523925781	3.21197509765625	-4.726409912109375	-1.007080078125	
234	0.936	0.0	0.0	0.0	0.0	4.623	4.6530000000000005	4.65	4.632	9.991003527832031	0.546476528930664	0.010773907470703125	6.519317626953125	-6.267547607421875	-0.244140625	9.749189160156249	0.6572083557128906	0.39803602600097654	1.003265380859375	-5.1727294921875	-3.1585693359375	10.011354241943359	0.3794809631347656	-0.19213468322753904	2.0294189453125	-4.810333251953125	-1.7852783203125	
235	0.9400000000000001	0.0	0.0	0.0	0.0	4.632	4.656	4.656	4.62	9.964667309570311	-0.17956512451171874	0.11372457885742186	3.299713134765625	-4.5623779296875	-0.9307861328125	9.94072529296875	0.42975919799804685	-0.1197100830078125	0.89263916015625	-5.008697509765625	-3.25775146484375	10.327388861083984	0.536899722290039	-0.6464344482421874	3.238677978515625	-4.28009033203125	-1.18255615234375	
236	0.9440000000000001	0.0	0.0	0.0	0.0	4.632	4.656	4.656	4.611	9.887454306030273	0.2292448089599609	0.14963760375976562	6.145477294921875	-6.0577392578125	-0.48065185546875	9.672574707031249	0.7673416320800781	0.42377369384765623	0.87738037109375	-5.550384521484375	-2.99072265625	9.9215716796875	0.30705636291503907	-0.09935936889648436	2.826690673828125	-4.7149658203125	-1.941680908203125	
237	0.9480000000000001	0.0	0.0	0.0	0.0	4.6290000000000004	4.656	4.656	4.62	9.957484704589843	-0.1466448516845703	0.16340426330566404	1.99127197265625	-3.528594970703125	-0.91552734375	10.096348400878906	0.39324762268066404	-0.06045359191894531	1.117706298828125	-4.974365234375	-3.27301025390625	10.375272894287109	0.5518634826660156	-0.6823474731445313	3.299713134765625	-4.673004150390625	-1.117706298828125	
238	0.9520000000000001	0.0	0.0	0.0	0.0	4.626	4.65	4.656	4.626	9.834183319091796	0.3507505432128906	0.20709844360351562	0.19073486328125	-2.2735595703125	-1.25885009765625	9.76235726928711	0.7062894897460937	0.35613749694824215	0.60272216796875	-5.245208740234375	-3.086090087890625	10.071209283447265	0.23642741394042968	-0.1406593475341797	2.76947021484375	-4.817962646484375	-1.773834228515625	
239	0.9560000000000001	0.0	0.0	0.0	0.0	4.6290000000000004	4.656	4.656	4.6290000000000004	9.900023864746093	-0.3555389465332031	0.18076222534179687	1.277923583984375	-2.964019775390625	-1.22833251953125	9.998784683227539	0.41838674011230464	0.07781155395507812	0.98419189453125	-5.18798828125	-3.45611572265625	10.01015714111328	0.6607996582031249	-0.14185644836425781	2.74658203125	-4.90570068359375	-1.86920166015625	
240	0.96	0.0	0.0	0.0	0.0	4.626	4.656	4.656	4.6290000000000004	9.745597857666015	-0.3142389678955078	0.24839842224121092	-0.335693359375	-1.926422119140625	-0.995635986328125	9.606734161376952	0.7948749511718749	0.45190556335449217	0.22125244140625	-4.924774169921875	-3.41033935546875	10.027515103149414	0.29448680419921874	-0.1227028350830078	2.90679931640625	-4.5623779296875	-1.617431640625	
241	0.964	0.0	0.0	0.0	0.0	4.626	4.656	4.6530000000000005	4.632	10.058639724731444	-0.46028526916503903	-0.08080430603027343	-0.48065185546875	-2.208709716796875	-0.86212158203125	10.135254177856444	0.45070846252441404	-0.08379705810546874	0.560760498046875	-5.10406494140625	-3.204345703125	10.098742602539062	0.5913678100585937	-0.23044190979003906	2.89154052734375	-4.791259765625	-1.895904541015625	
242	0.968	0.0	0.0	0.0	0.0	4.632	4.656	4.656	4.62	9.81862100830078	0.04608838195800781	0.16220716247558592	1.617431640625	-2.75421142578125	-0.911712646484375	9.586383447265625	0.718260498046875	0.4746504791259765	0.247955322265625	-4.901885986328125	-3.4332275390625	9.623493572998047	0.28730419921875	0.22026655273437498	2.25830078125	-4.405975341796875	-2.17437744140625	
243	0.972	0.0	0.0	0.0	0.0	4.632	4.656	4.659	4.611	9.745597857666015	0.17417817077636719	0.21009119567871093	1.708984375	-3.0670166015625	-0.751495361328125	10.006565838623047	0.4752490295410156	0.2088940948486328	0.682830810546875	-5.2642822265625	-3.566741943359375	10.066420880126952	0.6039373687744141	-0.34536358947753903	2.87628173828125	-4.63104248046875	-1.80816650390625	
244	0.976	0.0	0.0	0.0	0.0	4.6290000000000004	4.656	4.656	4.62	9.849147079467773	-0.16879121704101563	0.07062894897460938	1.926422119140625	-3.25775146484375	-0.865936279296875	9.700108026123047	0.679953271484375	0.3333925811767578	0.423431396484375	-5.28717041015625	-3.28826904296875	9.725247143554688	0.3082534637451172	0.09576806640624999	2.521514892578125	-4.535675048828125	-1.804351806640625	
245	0.98	0.0	0.0	0.0	0.0	4.632	4.65	4.656	4.623	9.77492682800293	0.23702596435546874	0.22565350646972654	1.76239013671875	-3.36456298828125	-0.93841552734375	9.710881933593749	0.48722003784179685	0.296881005859375	0.698089599609375	-5.24139404296875	-3.56292724609375	10.16398459777832	0.6081272216796875	-0.5267243652343749	2.193450927734375	-5.573272705078125	-1.689910888671875	
246	0.984	0.0	0.0	0.0	0.0	4.6290000000000004	4.659	4.659	4.6290000000000004	9.80006594543457	0.001197100830078125	0.18435352783203124	1.552581787109375	-3.238677978515625	-0.942230224609375	9.660603698730467	0.8164227661132812	0.32022447204589843	0.179290771484375	-4.894256591796875	-3.99017333984375	9.65342109375	0.4100070343017578	0.2088940948486328	2.50244140625	-4.6234130859375	-1.71661376953125	
247	0.988	0.0	0.0	0.0	0.0	4.626	4.656	4.656	0.009000000000000001	9.704896429443359	0.08978256225585937	0.33039982910156246	0.690460205078125	-2.407073974609375	-1.430511474609375	9.718064538574218	0.40282442932128903	0.2980781066894531	0.5950927734375	-5.199432373046875	-3.28826904296875	9.868899243164062	0.46507367248535153	-0.18076222534179687	1.89208984375	-4.52423095703125	-2.22015380859375	
248	0.992	0.0	0.0	0.0	0.0	0.003	0.003	0.003	0.003	9.782707983398437	-0.09636661682128905	0.2059013427734375	-0.370025634765625	-1.48773193359375	-1.36566162109375	9.636661682128906	0.5979518646240234	0.2609679809570312	0.35858154296875	-5.023956298828125	-3.932952880859375	9.69831237487793	0.3082534637451172	0.26216508178710934	1.9378662109375	-4.497528076171875	-2.025604248046875	
249	0.996	0.0	0.0	0.0	0.0	0.003	0.003	0.006	0.003	9.713276135253906	0.23044190979003906	0.31004911499023435	0.92315673828125	-2.685546875	-1.12152099609375	9.581595043945311	0.44532150878906246	0.6105214233398437	-0.118255615234375	-4.734039306640625	-3.45611572265625	9.654019644165038	0.354341845703125	0.3860650177001953	1.556396484375	-4.8065185546875	-2.559661865234375	
250	1.0	0.0	0.0	0.0	0.0	0.003	0.006	0.003	0.006	9.842563024902343	0.21009119567871093	0.14544775085449219	1.697540283203125	-2.96783447265625	-0.980377197265625	9.530718258666992	0.6560112548828124	0.4734533782958984	-0.00762939453125	-5.02777099609375	-3.9825439453125	9.880271701049804	0.4722562774658203	-0.19871873779296872	2.628326416015625	-4.337310791015625	-1.529693603515625	
251	1.004	0.0	0.0	0.0	0.0	0.003	0.003	0.006	0.006	9.815029705810547	0.022146365356445312	0.10175357055664062	3.96728515625	-4.863739013671875	-0.78582763671875	9.666589202880859	0.43155484924316406	0.2693476867675781	0.408172607421875	-5.107879638671875	-3.742218017578125	9.777321029663085	0.3495534423828125	0.031124621582031248	1.97601318359375	-4.78363037109375	-2.330780029296875	
252	1.008	0.0	0.0	0.0	0.0	-0.003	0.003	0.006	0.006	9.875483297729492	0.006584054565429687	0.033518823242187495	0.797271728515625	-2.60162353515625	-1.041412353515625	9.624690673828125	0.5781997009277343	0.21068974609375	0.560760498046875	-4.741668701171875	-3.631591796875	9.905410818481444	0.4165910888671875	-0.20769699401855468	2.582550048828125	-4.245758056640625	-1.65557861328125	
253	1.012	0.0	0.0	0.0	0.0	0.003	0.003	0.003	0.006	9.980828170776366	-0.018555062866210937	-0.14484920043945312	2.49481201171875	-4.055023193359375	-0.698089599609375	9.658209497070311	0.517746109008789	0.23642741394042968	0.885009765625	-5.10406494140625	-2.971649169921875	9.865906491088866	0.4255693450927734	-0.015562310791015624	3.02886962890625	-4.596710205078125	-1.56402587890625	
254	1.016	0.0	0.0	0.0	0.0	0.006	0.003	0.006	0.003	9.874286196899414	0.18854338073730467	0.12030863342285156	3.01361083984375	-3.8299560546875	-0.75531005859375	9.87009634399414	0.412401235961914	0.07481880187988281	0.640869140625	-4.79888916015625	-3.215789794921875	10.02332525024414	0.4560954162597656	-0.3806780639648437	2.777099609375	-4.3182373046875	-1.529693603515625	
255	1.02	0.0	0.0	0.0	0.0	0.009000000000000001	0.003	0.006	0.006	9.976638317871092	0.15442600708007811	-0.07721300354003906	4.0130615234375	-4.528045654296875	-1.02996826171875	9.665392102050781	0.5021837982177734	0.1897404815673828	0.499725341796875	-4.985809326171875	-3.337860107421875	10.011354241943359	0.36092590026855464	-0.3058592620849609	3.0975341796875	-4.791259765625	-1.65557861328125	
256	1.024	0.0	0.0	0.0	0.0	0.006	0.006	0.006	0.006	10.031704956054687	0.04908113403320312	-0.20949264526367187	4.985809326171875	-5.2947998046875	-1.018524169921875	9.852139831542969	0.4112041351318359	0.015562310791015624	0.41961669921875	-4.99725341796875	-3.307342529296875	9.8694977935791	0.43035774841308594	-0.12090718383789062	2.979278564453125	-4.459381103515625	-1.39617919921875	
257	1.028	0.0	0.0	0.0	0.0	0.006	0.003	0.003	0.006	10.01015714111328	0.15322890625	-0.17417817077636719	4.589080810546875	-5.11932373046875	-0.843048095703125	9.815628256225585	0.7092822418212891	0.2232593048095703	0.7476806640625	-5.252838134765625	-3.04412841796875	9.957484704589843	0.3447650390625	-0.1640028137207031	2.8076171875	-4.680633544921875	-1.651763916015625	
258	1.032	0.0	0.0	0.0	0.0	0.003	0.006	0.003	0.003	10.077194787597655	-0.1322796417236328	-0.27952304382324217	4.566192626953125	-5.138397216796875	-0.55694580078125	9.87608184814453	0.4513070129394531	-0.04548983154296875	0.469207763671875	-5.07354736328125	-3.2958984375	10.36210478515625	0.5698199951171875	-0.680551821899414	3.18145751953125	-4.459381103515625	-1.41143798828125	
259	1.036	0.0	0.0	0.0	0.0	0.003	0.003	0.003	0.003	10.01075569152832	0.17238251953125	-0.07062894897460938	5.5084228515625	-5.641937255859375	-0.629425048828125	9.783905084228515	0.6578069061279297	0.24660277099609373	0.469207763671875	-5.22613525390625	-2.9754638671875	9.886855755615233	0.3363853332519531	-0.17836802368164062	2.841949462890625	-4.57763671875	-1.583099365234375	
260	1.04	0.0	0.0	0.0	0.0	0.003	0.003	0.006	0.006	10.04247886352539	-0.08020575561523437	-0.12030863342285156	4.604339599609375	-5.14984130859375	-0.70953369140625	10.04846436767578	0.4213794921875	-0.07242460021972656	0.934600830078125	-5.4473876953125	-3.368377685546875	10.267533819580077	0.5835866546630859	-0.6081272216796875	2.826690673828125	-4.31060791015625	-1.316070556640625	
261	1.044	0.0	0.0	0.0	0.0	0.006	0.003	0.003	0.003	9.602544308471678	0.1131260284423828	0.44053310546874996	2.429962158203125	-3.940582275390625	-0.69427490234375	9.83238766784668	0.642244595336914	0.21188684692382811	0.728607177734375	-4.96673583984375	-3.063201904296875	10.111910711669921	0.3794809631347656	-0.1131260284423828	2.64739990234375	-4.680633544921875	-1.720428466796875	
262	1.048	0.0	0.0	0.0	0.0	0.0	0.003	0.003	0.003	9.979631069946288	-0.009576806640625	-0.0652419952392578	4.69970703125	-5.06591796875	-0.774383544921875	9.988010775756836	0.46507367248535153	0.04249707946777344	1.071929931640625	-5.199432373046875	-3.41796875	10.284293231201172	0.5386953735351562	-0.5716156463623047	2.96783447265625	-4.486083984375	-1.59454345703125	
263	1.052	0.0	0.0	0.0	0.0	0.003	0.006	0.003	0.006	9.491812481689452	0.19931728820800781	0.6242880828857421	2.391815185546875	-3.6468505859375	-0.7781982421875	9.63366893005371	0.8463502868652343	0.3507505432128906	0.67138671875	-5.046844482421875	-3.246307373046875	10.029310754394531	0.42377369384765623	-0.05805939025878906	2.899169921875	-4.87518310546875	-1.80816650390625	
264	1.056	0.0	0.0	0.0	0.0	0.006	0.006	0.003	0.006	9.980828170776366	-0.24480711975097655	0.031124621582031248	-0.37384033203125	-1.89208984375	-1.25885009765625	10.011952792358398	0.565031591796875	0.05805939025878906	1.224517822265625	-5.275726318359375	-3.5247802734375	10.128071572875976	0.5392939239501953	-0.44891281127929683	2.552032470703125	-4.756927490234375	-2.086639404296875	
265	1.06	0.0	0.0	0.0	0.0	0.003	0.006	0.003	0.003	9.53790086364746	0.15741875915527342	0.6039373687744141	1.567840576171875	-2.99072265625	-0.705718994140625	9.692326870727538	0.8152256652832031	0.3286041778564453	0.377655029296875	-4.8675537109375	-3.33404541015625	10.110713610839843	0.41419688720703124	-0.14305354919433594	2.9754638671875	-4.8675537109375	-1.79290771484375	
266	1.064	0.0	0.0	0.0	0.0	0.003	0.006	0.003	0.006	9.77432827758789	0.12689268798828124	0.14784195251464843	-0.61798095703125	-1.54876708984375	-1.255035400390625	9.929352835083007	0.5105635040283203	0.16819266662597654	0.263214111328125	-5.046844482421875	-3.60870361328125	10.091559997558592	0.5386953735351562	-0.4375403533935547	2.559661865234375	-4.9285888671875	-1.99127197265625	
267	1.068	0.0	0.0	0.0	0.0	0.006	0.003	0.006	0.006	9.504980590820312	0.22445640563964842	0.6967126831054687	0.141143798828125	-2.02178955078125	-1.0223388671875	9.631274728393555	0.8361749298095703	0.4291606475830078	0.614166259765625	-4.55474853515625	-3.711700439453125	10.072406384277343	0.41419688720703124	-0.11133037719726561	2.3345947265625	-4.741668701171875	-1.861572265625	
268	1.072	0.0	0.0	0.0	0.0	0.006	0.003	0.003	0.006	9.893439810180663	0.1879448303222656	-0.06464344482421874	-0.22125244140625	-1.705169677734375	-1.399993896484375	9.809044201660155	0.5165490081787109	0.1640028137207031	0.3662109375	-4.81414794921875	-3.62396240234375	10.152013589477539	0.5859808563232421	-0.5279214660644531	2.628326416015625	-4.608154296875	-1.895904541015625	
269	1.076	0.0	0.0	0.0	0.0	0.003	0.003	0.006	0.003	9.974842666625976	0.15981296081542967	-0.39923312683105466	2.0294189453125	-3.139495849609375	-1.22833251953125	9.652223992919922	0.7703343841552734	0.39324762268066404	0.560760498046875	-4.75311279296875	-3.2958984375	9.682750064086914	0.38845921936035155	0.08858546142578125	2.147674560546875	-4.7149658203125	-2.002716064453125	
270	1.08	0.0	0.0	0.0	0.0	0.003	0.003	0.006	0.003	9.85692823486328	0.21487959899902342	-0.1304839904785156	0.751495361328125	-2.57110595703125	-1.39617919921875	9.778518130493163	0.4997895965576172	0.1197100830078125	0.23651123046875	-5.077362060546875	-3.3721923828125	10.038289010620117	0.5686228942871093	-0.4578910675048828	2.3956298828125	-4.669189453125	-1.888275146484375	
271	1.084	0.0	0.0	0.0	0.0	0.006	0.006	0.003	0.003	9.970652813720703	0.2280477081298828	-0.3872621185302734	3.60870361328125	-4.520416259765625	-1.026153564453125	9.640851535034178	0.6536170532226562	0.07841010437011718	0.46539306640625	-4.703521728515625	-3.3111572265625	9.675567459106444	0.3806780639648437	0.10953472595214843	2.26593017578125	-4.833221435546875	-1.941680908203125	
272	1.088	0.0	0.0	0.0	0.0	0.006	0.003	0.006	0.003	9.96047745666504	0.23223756103515625	-0.25797522888183594	2.529144287109375	-3.879547119140625	-1.178741455078125	9.891644158935547	0.5452794281005859	-0.09277531433105468	0.26702880859375	-5.096435546875	-3.36456298828125	9.827000714111328	0.5626373901367188	-0.020350714111328123	2.132415771484375	-4.833221435546875	-2.079010009765625	
273	1.092	0.0	0.0	0.0	0.0	0.003	0.006	0.006	0.006	9.86351228942871	0.07541735229492187	-0.20470424194335937	3.154754638671875	-4.268646240234375	-0.95367431640625	9.632471829223633	0.6015431671142578	0.13946224670410157	0.476837158203125	-4.863739013671875	-3.23486328125	9.696516723632811	0.3268085266113281	0.12210428466796874	2.37274169921875	-4.638671875	-2.170562744140625	
274	1.096	0.0	0.0	0.0	0.0	0.003	0.006	0.006	0.003	9.813234054565429	0.10354922180175781	0.001197100830078125	3.604888916015625	-4.871368408203125	-0.751495361328125	9.609128363037108	0.5195417602539062	0.18854338073730467	0.675201416015625	-5.340576171875	-3.238677978515625	9.726444244384766	0.5716156463623047	0.022146365356445312	2.38800048828125	-4.852294921875	-2.02178955078125	
275	1.1	0.0	0.0	0.0	0.0	0.003	0.003	0.003	0.003	9.866505041503906	0.002992752075195312	-0.10175357055664062	3.16619873046875	-4.55474853515625	-1.026153564453125	9.69112976989746	0.5781997009277343	0.1640028137207031	0.392913818359375	-5.0048828125	-3.551483154296875	9.988609326171874	0.42437224426269526	-0.21428104858398436	2.658843994140625	-4.314422607421875	-1.407623291015625	
276	1.104	0.0	0.0	0.0	0.0	-0.003	0.003	0.006	0.003	9.898228213500976	-0.0987608184814453	-0.016160861206054686	2.0904541015625	-3.505706787109375	-0.934600830078125	9.683348614501952	0.5392939239501953	0.21727380065917967	0.66375732421875	-5.214691162109375	-3.5400390625	9.85094273071289	0.5003881469726562	-0.12689268798828124	2.3956298828125	-4.642486572265625	-2.1209716796875	
277	1.108	0.0	0.0	0.0	0.0	0.003	0.006	0.006	0.006	9.737816702270507	-0.018555062866210937	0.14604630126953125	3.566741943359375	-4.093170166015625	-0.598907470703125	9.749787710571288	0.5015852478027344	0.22385785522460935	0.354766845703125	-4.779815673828125	-3.265380859375	9.883264453125	0.4177881896972656	-0.13946224670410157	2.841949462890625	-4.28009033203125	-1.308441162109375	
278	1.112	0.0	0.0	0.0	0.0	0.003	0.003	0.006	0.006	9.974244116210937	-0.003591302490234375	-0.19812018737792966	1.16729736328125	-2.887725830078125	-0.995635986328125	9.715670336914062	0.48123453369140623	0.12808978881835936	0.644683837890625	-5.031585693359375	-3.269195556640625	9.791087689208984	0.5225345123291015	-0.03411737365722656	2.838134765625	-4.73785400390625	-1.689910888671875	
279	1.116	0.0	0.0	0.0	0.0	0.003	0.006	0.006	0.003	10.03050785522461	0.08738836059570312	-0.11372457885742186	4.09698486328125	-4.611968994140625	-0.54168701171875	9.8311905670166	0.5117606048583984	0.14784195251464843	0.5950927734375	-4.772186279296875	-3.36456298828125	10.017938296508788	0.38786066894531246	-0.2609679809570312	2.597808837890625	-4.451751708984375	-1.583099365234375	
280	1.12	0.0	0.0	0.0	0.0	0.003	0.006	0.006	0.003	9.99160207824707	-0.09995791931152344	-0.20949264526367187	1.89971923828125	-3.414154052734375	-0.8392333984375	9.809642752075195	0.46507367248535153	0.33758243408203126	0.507354736328125	-5.33294677734375	-3.276824951171875	9.963470208740233	0.364517202758789	-0.08259995727539061	2.899169921875	-4.497528076171875	-1.720428466796875	
281	1.124	0.0	0.0	0.0	0.0	0.003	0.003	0.006	0.006	9.918578927612304	0.21966800231933592	0.03411737365722656	5.512237548828125	-5.67626953125	-0.244140625	9.715071786499022	0.5207388610839844	0.2136824981689453	0.644683837890625	-5.1116943359375	-3.429412841796875	9.846752877807617	0.4273649963378906	-0.14724340209960937	2.544403076171875	-4.505157470703125	-1.50299072265625	
282	1.1280000000000001	0.0	0.0	0.0	0.0	0.003	0.006	0.006	0.003	9.809044201660155	0.4560954162597656	0.3268085266113281	5.5389404296875	-5.65338134765625	-0.4119873046875	9.913790524291992	0.594959112548828	0.13467384338378904	0.701904296875	-5.298614501953125	-3.22723388671875	10.087968695068358	0.46627077331542965	-0.2262520568847656	2.811431884765625	-4.57763671875	-1.468658447265625	
283	1.1320000000000001	0.0	0.0	0.0	0.0	0.009000000000000001	0.003	0.006	0.006	9.964667309570311	0.09516951599121093	-0.08439560852050781	5.157470703125	-5.344390869140625	-0.621795654296875	10.046668716430663	0.4955997436523437	-0.09457096557617187	1.117706298828125	-4.82177734375	-3.383636474609375	10.371681591796875	0.39803602600097654	-0.6057330200195312	3.11279296875	-4.63104248046875	-1.40380859375	
284	1.1360000000000001	0.0	0.0	0.0	0.0	0.006	0.003	0.006	0.003	9.701305126953125	0.31064766540527344	0.4560954162597656	4.650115966796875	-5.260467529296875	-0.766754150390625	9.713874685668944	0.6003460662841796	0.4070142822265625	0.621795654296875	-5.451202392578125	-3.437042236328125	9.864709390258788	0.4608838195800781	-0.11252747802734374	2.60162353515625	-4.608154296875	-1.476287841796875	
285	1.1400000000000001	0.0	0.0	0.0	0.0	0.003	0.006	0.006	0.003	9.963470208740233	0.059256491088867186	-0.06643909606933593	4.50897216796875	-5.168914794921875	-0.7476806640625	10.036493359375	0.5572504364013672	-0.10414777221679687	1.15966796875	-5.039215087890625	-3.047943115234375	10.363301885986328	0.5578489868164063	-0.7841010437011718	3.02886962890625	-4.4097900390625	-1.224517822265625	
286	1.1440000000000001	0.0	0.0	0.0	0.0	0.006	0.003	0.003	0.003	9.813832604980469	0.21248539733886718	0.24839842224121092	4.21905517578125	-4.69207763671875	-0.804901123046875	9.961076007080077	0.49260699157714843	0.08678981018066406	0.3509521484375	-5.1727294921875	-3.50189208984375	10.13824692993164	0.28969840087890625	-0.20350714111328125	2.819061279296875	-4.52423095703125	-1.621246337890625	
287	1.1480000000000001	0.0	0.0	0.0	0.0	0.006	0.006	0.003	0.006	9.847351428222655	-0.2962824554443359	0.28311434631347654	0.087738037109375	-2.4261474609375	-1.255035400390625	9.885658654785155	0.44113165588378905	0.06404489440917968	1.19781494140625	-4.70733642578125	-3.192901611328125	10.162787496948242	0.36930560607910157	-0.41838674011230464	3.177642822265625	-4.69970703125	-1.514434814453125	
288	1.1520000000000001	0.0	0.0	0.0	0.0	0.0	0.006	0.003	0.006	9.742605105590819	0.10295067138671875	0.28311434631347654	4.161834716796875	-4.871368408203125	-0.469207763671875	9.525929855346678	0.7751227874755859	0.5147533569335937	0.804901123046875	-5.237579345703125	-3.18145751953125	9.853935482788085	0.4291606475830078	0.023343466186523436	2.90679931640625	-4.970550537109375	-1.857757568359375	
289	1.156	0.0	0.0	0.0	0.0	0.003	0.006	0.003	0.006	9.911994873046874	-0.17118541870117188	0.1580173095703125	0.370025634765625	-2.685546875	-0.8697509765625	10.129867224121092	0.39444472351074217	-0.20051438903808594	0.98419189453125	-5.096435546875	-3.475189208984375	10.451887347412109	0.39444472351074217	-0.7146691955566405	2.330780029296875	-4.70733642578125	-1.804351806640625	
290	1.16	0.0	0.0	0.0	0.0	0.003	2.007	4.641	4.626	9.665392102050781	0.07122749938964844	0.40402153015136716	0.1983642578125	-2.05230712890625	-0.507354736328125	9.607332711791992	0.5853823059082031	0.5087678527832031	0.35858154296875	-5.1727294921875	-3.154754638671875	10.04247886352539	0.17776947326660156	-0.1131260284423828	2.58636474609375	-4.2877197265625	-1.895904541015625	
291	1.164	0.0	0.0	0.0	0.0	4.626	4.6530000000000005	4.6530000000000005	4.62	9.783905084228515	-0.10893617553710937	0.3333925811767578	-0.89263916015625	-1.74713134765625	-1.018524169921875	9.782109432983399	0.5704185455322265	0.1693897674560547	0.99945068359375	-5.01251220703125	-3.50189208984375	9.886855755615233	0.7236474517822266	-0.12030863342285156	2.58636474609375	-5.07354736328125	-1.77001953125	
292	1.168	0.0	0.0	0.0	0.0	4.632	4.656	4.656	4.6080000000000005	9.830592016601562	-0.12988544006347655	0.002992752075195312	-0.08392333984375	-2.216339111328125	-1.495361328125	9.686939916992188	0.6380547424316406	0.4267664459228515	0.705718994140625	-5.207061767578125	-3.3111572265625	10.08078609008789	0.3286041778564453	-0.1406593475341797	2.8839111328125	-4.84466552734375	-1.735687255859375	
293	1.172	0.0	0.0	0.0	0.0	4.6290000000000004	4.6530000000000005	4.656	4.617	9.922768780517577	-0.32620997619628905	0.06763619689941405	-0.732421875	-1.7852783203125	-1.312255859375	9.986813674926758	0.3848679168701172	0.010175357055664061	0.751495361328125	-4.680633544921875	-3.452301025390625	10.248380206298828	0.4752490295410156	-0.4542997650146484	2.51007080078125	-4.627227783203125	-1.773834228515625	
294	1.176	0.0	0.0	0.0	0.0	4.6290000000000004	4.6530000000000005	4.6530000000000005	4.626	9.71028338317871	0.010175357055664061	0.19692308654785154	0.03814697265625	-1.987457275390625	-1.39617919921875	9.446322650146485	0.6242880828857421	0.5279214660644531	0.087738037109375	-5.214691162109375	-3.88336181640625	9.445125549316407	0.22864625854492185	0.33039982910156246	2.34222412109375	-4.718780517578125	-2.193450927734375	
295	1.18	0.0	0.0	0.0	0.0	4.6290000000000004	4.656	4.656	4.626	9.773729727172851	0.3537432952880859	0.12090718383789062	1.41143798828125	-3.11279296875	-1.18255615234375	9.910199221801758	0.48063598327636714	-0.0652419952392578	0.9307861328125	-5.359649658203125	-3.162384033203125	10.09993970336914	0.747589468383789	-0.6745663177490234	3.01361083984375	-5.0506591796875	-1.575469970703125	
296	1.184	0.0	0.0	0.0	0.0	4.6290000000000004	4.656	4.656	4.6290000000000004	9.925162982177733	-0.3758896606445312	-0.17118541870117188	-0.32806396484375	-2.017974853515625	-1.445770263671875	9.797671743774414	0.5566518859863281	0.16639701538085935	0.293731689453125	-4.688262939453125	-3.787994384765625	9.853336932373047	0.1406593475341797	0.028131869506835935	2.471923828125	-4.34112548828125	-1.79290771484375	
297	1.188	0.0	0.0	0.0	0.0	4.62	4.656	4.6530000000000005	4.632	9.739612353515625	-0.029927520751953124	0.12330138549804687	0.78582763671875	-2.613067626953125	-1.003265380859375	9.617508068847656	0.3962403747558593	0.20829554443359374	0.57220458984375	-4.50897216796875	-3.22723388671875	9.798270294189452	0.4177881896972656	-0.17417817077636719	1.99127197265625	-4.680633544921875	-2.628326416015625	
298	1.192	0.0	0.0	0.0	0.0	4.632	4.656	4.656	4.62	9.661202249145507	-0.025139117431640625	0.22685060729980466	0.43487548828125	-2.422332763671875	-1.338958740234375	9.449913952636718	0.7978677032470702	0.5303156677246094	0.125885009765625	-4.985809326171875	-3.5552978515625	9.4618849609375	0.5470750793457031	0.21428104858398436	1.82342529296875	-4.96673583984375	-2.414703369140625	
299	1.196	0.0	0.0	0.0	0.0	4.635	4.659	4.656	4.614	9.906009368896484	0.2519897247314453	-0.040701428222656245	1.80816650390625	-3.39508056640625	-0.95367431640625	9.801263046264648	0.37828386230468747	0.12150573425292968	0.461578369140625	-4.9285888671875	-3.520965576171875	9.906607919311522	0.4177881896972656	0.05805939025878906	2.09808349609375	-4.276275634765625	-1.697540283203125	
300	1.2	0.0	0.0	0.0	0.0	4.635	4.656	4.656	4.617	9.937133990478515	0.22385785522460935	-0.023343466186523436	3.9520263671875	-4.428863525390625	-0.789642333984375	9.763554370117188	0.5009866973876953	0.14604630126953125	-0.05340576171875	-4.726409912109375	-3.772735595703125	9.804255798339844	0.39803602600097654	-0.2759317413330078	2.3345947265625	-4.1961669921875	-1.567840576171875	
301	1.204	0.0	0.0	0.0	0.0	4.632	0.003	0.006	0.006	9.735422500610351	0.3268085266113281	0.16998831787109375	0.720977783203125	-2.513885498046875	-1.132965087890625	9.479841473388671	0.6236895324707031	0.5147533569335937	0.576019287109375	-5.16510009765625	-3.37982177734375	9.64025298461914	0.6428431457519531	-0.09995791931152344	2.742767333984375	-4.67681884765625	-1.6937255859375	
302	1.208	0.0	0.0	0.0	0.0	0.003	0.006	0.003	0.003	9.964068759155273	0.20769699401855468	0.032920272827148434	2.54058837890625	-3.963470458984375	-0.80108642578125	9.758167416381836	0.5339069702148437	0.16220716247558592	0.545501708984375	-5.214691162109375	-3.662109375	9.964667309570311	0.5123591552734374	-0.34177228698730466	2.78472900390625	-4.291534423828125	-1.285552978515625	
303	1.212	0.0	0.0	0.0	0.0	0.003	0.006	0.003	0.006	9.905410818481444	-0.10893617553710937	-0.19153613281249998	4.60052490234375	-2.048492431640625	-0.957489013671875	9.982025271606444	0.5087678527832031	-0.16759411621093748	0.736236572265625	-5.214691162109375	-3.322601318359375	9.95329485168457	0.3459621398925781	-0.11252747802734374	2.197265625	-4.764556884765625	-2.223968505859375	
304	1.216	0.0	0.0	0.0	0.0	0.003	0.006	0.003	0.006	9.868899243164062	0.49799394531249996	0.04189852905273437	4.505157470703125	-4.8828125	-0.637054443359375	9.527725506591796	0.6165069274902344	0.38786066894531246	0.431060791015625	-4.711151123046875	-3.589630126953125	9.85094273071289	0.6117185241699218	-0.3363853332519531	2.8839111328125	-4.669189453125	-1.659393310546875	
305	1.22	0.0	0.0	0.0	0.0	0.006	0.006	0.006	0.003	9.944915145874022	0.34835634155273437	0.09157821350097656	5.924224853515625	-5.86700439453125	-0.682830810546875	9.654019644165038	0.7015010864257812	0.22266075439453123	0.522613525390625	-5.19561767578125	-3.292083740234375	9.87608184814453	0.5129577056884765	-0.3393780853271484	2.918243408203125	-4.81414794921875	-1.28173828125	
