	time	dac1	dac2	dac3	dac4	adc1.3	adc2.3	adc3.3	adc4.3	imu1accx	imu1accy	imu1accz	imu1gyrox	imu1gyroy	imu1gyroz	imu2accx	imu2accy	imu2accz	imu2gyrox	imu2gyroy	imu2gyroz	imu3accx	imu3accy	imu3accz	imu3gyrox	imu3gyroy	imu3gyroz	log
0	0.0	0.0	0.0	0.0	0.0	0.006	0.003	0.003	0.003	9.85752678527832	0.062249243164062495	0.07422025146484375	2.3040771484375	-3.787994384765625	-0.812530517578125	9.78031378173828	0.5608417388916015	0.18375497741699218	0.759124755859375	-4.98199462890625	-3.360748291015625	9.973047015380859	0.4171896392822265	-0.20290859069824219	2.765655517578125	-4.596710205078125	-1.6632080078125	Estabizou em 9s, 1962 rpm
1	0.004	0.0	0.0	0.0	0.0	0.003	0.006	0.006	0.006	9.868899243164062	0.05686228942871093	0.07062894897460938	2.50244140625	-3.7384033203125	-0.80108642578125	9.781510882568359	0.5548562347412109	0.19093758239746092	0.6866455078125	-5.0811767578125	-3.45611572265625	9.970054263305663	0.4273649963378906	-0.19871873779296872	2.635955810546875	-4.604339599609375	-1.79290771484375	Started
2	0.008	0.0	0.0	0.0	0.0	0.003	0.003	0.006	0.003	9.868899243164062	0.05686228942871093	0.07541735229492187	2.361297607421875	-3.60107421875	-0.949859619140625	9.780912332153319	0.5608417388916015	0.1801636749267578	0.644683837890625	-5.02777099609375	-3.406524658203125	9.970652813720703	0.42317514343261714	-0.19333178405761717	2.86865234375	-4.749298095703125	-1.5716552734375	IMU1|LSM6DS3|0x6A|I2C-1|±2g (±19,6m/s²)|±125º/s|400Hz
3	0.012	0.0	0.0	0.0	0.0	0.003	0.003	0.003	0.003	9.864709390258788	0.0526724365234375	0.076614453125	2.651214599609375	-3.726959228515625	-0.888824462890625	9.776722479248047	0.5590460876464843	0.18076222534179687	0.8697509765625	-4.8675537109375	-3.398895263671875	9.973047015380859	0.43035774841308594	-0.1927332336425781	2.445220947265625	-4.589080810546875	-1.766204833984375	IMU2|LSM6DS3|0x6B|I2C-1|±2g (±19,6m/s²)|±125º/s|400Hz
4	0.016	0.0	0.0	0.0	0.0	0.003	0.006	0.006	0.006	9.87727894897461	0.06703764648437499	0.07362170104980469	2.376556396484375	-3.662109375	-0.8392333984375	9.778518130493163	0.5620388397216797	0.19033903198242186	0.492095947265625	-4.99725341796875	-3.475189208984375	9.983820922851562	0.4267664459228515	-0.18914193115234373	2.719879150390625	-4.638671875	-2.0751953125	IMU3|LSM6DS3|0x6B|I2C-2|±2g (±19,6m/s²)|±125º/s|400Hz
5	0.02	0.0	0.0	0.0	0.0	0.006	0.006	0.006	0.006	9.86411083984375	0.059256491088867186	0.06643909606933593	2.544403076171875	-3.753662109375	-0.980377197265625	9.776123928833007	0.5686228942871093	0.1945288848876953	0.518798828125	-5.0048828125	-3.330230712890625	9.982623822021484	0.43574470214843747	-0.19093758239746092	2.63214111328125	-4.673004150390625	-1.70135498046875	ADC|ADS1015|0|0|1|0|±6,144 V|2400 SPS
6	0.024	0.0	0.0	0.0	0.0	0.003	0.003	0.003	0.003	9.860519537353515	0.052073886108398436	0.07422025146484375	2.361297607421875	-3.757476806640625	-0.904083251953125	9.779116680908203	0.5530605834960938	0.1879448303222656	0.3814697265625	-4.894256591796875	-3.391265869140625	9.976039767456054	0.43454760131835934	-0.20231004028320312	2.902984619140625	-4.60052490234375	-1.8157958984375	Gen1|Disabled
7	0.028	0.0	0.0	0.0	0.0	0.006	0.006	0.006	0.003	9.861716638183593	0.06045359191894531	0.06943184814453125	2.35748291015625	-3.8604736328125	-0.949859619140625	9.764751470947266	0.5614402893066406	0.19153613281249998	0.78582763671875	-5.168914794921875	-3.299713134765625	9.982623822021484	0.4333505004882812	-0.201112939453125	2.567291259765625	-4.608154296875	-1.800537109375	Gen2|Enabled|Noise|0.0|10.0|1668
8	0.032	0.0	0.0	0.0	0.0	0.009000000000000001	0.003	0.003	0.003	9.872490545654296	0.05746083984375	0.07003039855957031	2.384185791015625	-3.696441650390625	-0.8697509765625	9.770736975097655	0.5602431884765625	0.19333178405761717	0.66375732421875	-5.199432373046875	-3.4027099609375	9.973047015380859	0.44053310546874996	-0.20231004028320312	2.7618408203125	-4.978179931640625	-1.773834228515625	Gen3|Enabled|Noise|0.0|10.0|128
9	0.036000000000000004	0.0	0.0	0.0	0.0	0.003	0.003	0.003	0.003	9.87608184814453	0.058657940673828124	0.06703764648437499	2.67791748046875	-3.688812255859375	-0.9765625	9.77432827758789	0.5578489868164063	0.19572598571777342	0.55694580078125	-5.107879638671875	-3.322601318359375	9.98501802368164	0.43634325256347656	-0.2041056915283203	2.67791748046875	-4.581451416015625	-1.735687255859375	Gen4|Enabled|Noise|0.0|10.0|128
10	0.04	0.0	0.0	0.0	0.0	0.006	0.003	0.003	0.006	9.872490545654296	0.06105214233398437	0.06763619689941405	2.483367919921875	-3.795623779296875	-0.7171630859375	9.779116680908203	0.5644330413818359	0.19512743530273435	0.8697509765625	-5.0811767578125	-3.41796875	9.974842666625976	0.43933600463867184	-0.19632453613281248	3.0059814453125	-4.66156005859375	-1.842498779296875	Ctrl|Disabled
11	0.044	0.0	0.0	0.0	0.0	0.006	0.003	0.006	0.003	9.864709390258788	0.06763619689941405	0.06883329772949218	2.582550048828125	-3.742218017578125	-0.84686279296875	9.776123928833007	0.5686228942871093	0.1897404815673828	0.29754638671875	-4.726409912109375	-3.3416748046875	9.975441217041014	0.43993455505371093	-0.201112939453125	2.7618408203125	-4.75311279296875	-1.949310302734375	
12	0.048	0.0	0.0	0.0	0.0	0.006	0.006	0.003	0.003	9.87727894897461	0.07003039855957031	0.07122749938964844	2.460479736328125	-3.7384033203125	-0.896453857421875	9.775525378417969	0.5799953521728515	0.18914193115234373	0.54168701171875	-4.76837158203125	-3.448486328125	9.973047015380859	0.44113165588378905	-0.20051438903808594	2.696990966796875	-4.64630126953125	-1.857757568359375	
13	0.052000000000000005	0.0	0.0	0.0	0.0	0.0	0.006	0.003	0.003	9.868899243164062	0.06643909606933593	0.076614453125	2.346038818359375	-3.612518310546875	-0.797271728515625	9.78031378173828	0.5781997009277343	0.181959326171875	0.35858154296875	-4.947662353515625	-3.444671630859375	9.981426721191406	0.4375403533935547	-0.18854338073730467	2.55584716796875	-4.52423095703125	-1.617431640625	
14	0.056	0.0	0.0	0.0	0.0	0.006	0.003	0.006	0.003	9.862315188598632	0.06045359191894531	0.07841010437011718	2.422332763671875	-3.742218017578125	-0.89263916015625	9.77432827758789	0.5883750579833984	0.18734627990722655	0.54931640625	-5.321502685546875	-3.509521484375	9.97903251953125	0.4471171600341797	-0.19093758239746092	2.716064453125	-4.772186279296875	-1.97601318359375	
15	0.06	0.0	0.0	0.0	0.0	0.006	0.006	0.006	0.006	9.871293444824218	0.06584054565429687	0.06464344482421874	2.361297607421875	-3.936767578125	-0.8697509765625	9.776123928833007	0.5781997009277343	0.19213468322753904	0.579833984375	-5.31768798828125	-3.50189208984375	9.975441217041014	0.4429273071289062	-0.19812018737792966	2.719879150390625	-4.72259521484375	-2.033233642578125	
16	0.064	0.0	0.0	0.0	0.0	0.006	0.003	0.003	0.003	9.871293444824218	0.07541735229492187	0.06883329772949218	2.38037109375	-3.673553466796875	-0.78582763671875	9.777321029663085	0.5770026000976562	0.181959326171875	0.354766845703125	-4.901885986328125	-3.2196044921875	9.976039767456054	0.4525041137695312	-0.2088940948486328	2.86102294921875	-4.589080810546875	-1.8768310546875	
17	0.068	0.0	0.0	0.0	0.0	-0.003	0.006	0.006	0.006	9.85632968444824	0.07541735229492187	0.06284779357910156	2.2735595703125	-3.910064697265625	-0.812530517578125	9.777919580078125	0.5823895538330078	0.18375497741699218	0.675201416015625	-5.0201416015625	-3.59344482421875	9.97783541870117	0.4465186096191406	-0.20231004028320312	2.64739990234375	-4.669189453125	-1.811981201171875	
18	0.07200000000000001	0.0	0.0	0.0	0.0	0.006	0.006	0.006	0.006	9.861716638183593	0.07122749938964844	0.07302315063476562	2.5634765625	-3.7994384765625	-0.919342041015625	9.782707983398437	0.5781997009277343	0.18734627990722655	0.58746337890625	-4.92095947265625	-3.509521484375	9.970652813720703	0.44891281127929683	-0.19572598571777342	2.643585205078125	-4.711151123046875	-1.811981201171875	
19	0.076	0.0	0.0	0.0	0.0	0.006	0.003	0.006	0.003	9.86411083984375	0.07122749938964844	0.08020575561523437	2.60162353515625	-3.711700439453125	-0.91552734375	9.783905084228515	0.5734112976074218	0.18614917907714842	0.48828125	-5.298614501953125	-3.48663330078125	9.968857162475585	0.44891281127929683	-0.19991583862304688	2.513885498046875	-4.657745361328125	-1.86920166015625	
20	0.08	0.0	0.0	0.0	0.0	0.003	0.003	0.006	0.006	9.859920986938477	0.06883329772949218	0.07900865478515624	2.590179443359375	-3.818511962890625	-0.81634521484375	9.781510882568359	0.5746083984375	0.18315642700195311	0.438690185546875	-5.035400390625	-3.215789794921875	9.973047015380859	0.4560954162597656	-0.20051438903808594	2.64739990234375	-4.673004150390625	-1.834869384765625	
21	0.084	0.0	0.0	0.0	0.0	0.009000000000000001	0.003	0.003	0.003	9.865307940673828	0.06883329772949218	0.07003039855957031	2.513885498046875	-3.742218017578125	-0.946044921875	9.779715231323241	0.5787982513427734	0.18435352783203124	0.560760498046875	-5.1116943359375	-3.406524658203125	9.965265859985351	0.4471171600341797	-0.19512743530273435	2.43377685546875	-4.573822021484375	-1.712799072265625	
22	0.088	0.0	0.0	0.0	0.0	0.006	0.006	0.003	0.006	9.86351228942871	0.06883329772949218	0.06344634399414062	2.292633056640625	-3.77655029296875	-0.90789794921875	9.7683427734375	0.5746083984375	0.1801636749267578	0.43487548828125	-4.924774169921875	-3.41796875	9.984419473266602	0.44891281127929683	-0.20171148986816406	2.7008056640625	-4.878997802734375	-1.682281494140625	
23	0.092	0.0	0.0	0.0	0.0	0.006	0.006	0.006	0.006	9.85752678527832	0.062249243164062495	0.05985504150390625	2.544403076171875	-3.753662109375	-0.926971435546875	9.777919580078125	0.5781997009277343	0.19153613281249998	0.499725341796875	-4.852294921875	-3.284454345703125	9.97184991455078	0.43933600463867184	-0.20290859069824219	2.7618408203125	-4.9591064453125	-1.979827880859375	
24	0.096	0.0	0.0	0.0	0.0	0.006	0.006	0.006	0.003	9.859920986938477	0.06823474731445311	0.05027823486328125	2.651214599609375	-3.9520263671875	-0.705718994140625	9.776722479248047	0.5776011505126952	0.19333178405761717	0.48065185546875	-5.069732666015625	-3.3111572265625	9.981426721191406	0.4435258575439453	-0.19512743530273435	2.93731689453125	-4.749298095703125	-1.873016357421875	
25	0.1	0.0	0.0	0.0	0.0	0.003	0.003	0.003	0.003	9.87608184814453	0.06883329772949218	0.07302315063476562	2.60162353515625	-4.016876220703125	-0.942230224609375	9.78031378173828	0.5728127471923827	0.19333178405761717	0.67138671875	-4.82940673828125	-3.429412841796875	9.976638317871092	0.44113165588378905	-0.20350714111328125	2.75421142578125	-4.642486572265625	-1.842498779296875	
26	0.10400000000000001	0.0	0.0	0.0	0.0	0.006	0.006	0.006	0.006	9.865307940673828	0.0718260498046875	0.07302315063476562	2.67791748046875	-3.6468505859375	-0.9002685546875	9.776722479248047	0.5758054992675781	0.18614917907714842	0.640869140625	-5.0048828125	-3.452301025390625	9.97125136413574	0.44592005920410155	-0.19572598571777342	2.712249755859375	-4.73785400390625	-1.850128173828125	
27	0.108	0.0	0.0	0.0	0.0	0.009000000000000001	0.003	0.006	0.003	9.86411083984375	0.05746083984375	0.06643909606933593	2.23541259765625	-3.60870361328125	-0.66375732421875	9.777919580078125	0.5764040496826172	0.17896657409667968	0.69427490234375	-5.035400390625	-3.50189208984375	9.973645565795898	0.4387374542236328	-0.2059013427734375	2.7313232421875	-4.398345947265625	-1.83868408203125	
28	0.112	0.0	0.0	0.0	0.0	0.003	0.006	0.003	0.003	9.87608184814453	0.06464344482421874	0.04908113403320312	2.57110595703125	-3.787994384765625	-0.804901123046875	9.770138424682617	0.5626373901367188	0.17836802368164062	0.66375732421875	-5.035400390625	-3.4637451171875	9.980229620361328	0.43993455505371093	-0.20231004028320312	2.796173095703125	-4.608154296875	-1.926422119140625	
29	0.116	0.0	0.0	0.0	0.0	0.003	0.006	0.003	0.003	9.86291373901367	0.061650692749023434	0.052073886108398436	2.567291259765625	-3.66973876953125	-0.77056884765625	9.770138424682617	0.5590460876464843	0.18136077575683593	0.453948974609375	-4.871368408203125	-3.269195556640625	9.979631069946288	0.43993455505371093	-0.20171148986816406	2.81524658203125	-4.734039306640625	-1.949310302734375	
30	0.12	0.0	0.0	0.0	0.0	0.003	0.006	0.006	0.009000000000000001	9.860519537353515	0.05686228942871093	0.059256491088867186	2.63214111328125	-3.62396240234375	-0.904083251953125	9.773729727172851	0.5608417388916015	0.17896657409667968	0.54931640625	-5.04302978515625	-3.330230712890625	9.987412225341796	0.4333505004882812	-0.21188684692382811	2.841949462890625	-4.7454833984375	-1.651763916015625	
31	0.124	0.0	0.0	0.0	0.0	0.006	0.006	0.003	0.003	9.859322436523437	0.05626373901367187	0.06045359191894531	2.384185791015625	-3.8604736328125	-0.759124755859375	9.782707983398437	0.565630142211914	0.18136077575683593	0.5645751953125	-5.05828857421875	-3.45611572265625	9.982623822021484	0.42796354675292964	-0.2041056915283203	2.78472900390625	-4.69207763671875	-1.77001953125	
32	0.128	0.0	0.0	0.0	0.0	0.003	0.003	0.006	0.003	9.86291373901367	0.06105214233398437	0.07062894897460938	2.777099609375	-3.7384033203125	-0.89263916015625	9.771934075927733	0.5632359405517577	0.18375497741699218	0.469207763671875	-5.18798828125	-3.429412841796875	9.97903251953125	0.4285620971679687	-0.19812018737792966	2.712249755859375	-4.749298095703125	-1.850128173828125	
33	0.132	0.0	0.0	0.0	0.0	0.003	0.003	0.006	0.006	9.860519537353515	0.058657940673828124	0.07242460021972656	2.38037109375	-3.971099853515625	-0.789642333984375	9.771934075927733	0.5668272430419922	0.19153613281249998	0.396728515625	-4.940032958984375	-3.398895263671875	9.97783541870117	0.4375403533935547	-0.2041056915283203	2.57110595703125	-4.58526611328125	-1.781463623046875	
34	0.136	0.0	0.0	0.0	0.0	0.003	0.006	0.006	0.003	9.87009634399414	0.052073886108398436	0.06464344482421874	2.4566650390625	-3.5858154296875	-0.988006591796875	9.777321029663085	0.565031591796875	0.19393033447265623	0.637054443359375	-4.8980712890625	-3.3111572265625	9.979631069946288	0.4273649963378906	-0.21308394775390624	2.780914306640625	-4.573822021484375	-1.949310302734375	
35	0.14	0.0	0.0	0.0	0.0	0.003	0.003	0.003	0.006	9.873687646484374	0.055066638183593745	0.06943184814453125	2.628326416015625	-3.719329833984375	-0.9002685546875	9.773729727172851	0.556053335571289	0.18734627990722655	0.74005126953125	-5.0201416015625	-3.437042236328125	9.97843396911621	0.42317514343261714	-0.1927332336425781	2.468109130859375	-4.467010498046875	-1.880645751953125	
36	0.14400000000000002	0.0	0.0	0.0	0.0	0.006	0.003	0.003	0.006	9.866505041503906	0.05566518859863281	0.06284779357910156	2.597808837890625	-3.849029541015625	-0.89263916015625	9.777321029663085	0.5530605834960938	0.18914193115234373	0.732421875	-4.974365234375	-3.238677978515625	9.975441217041014	0.421978042602539	-0.19572598571777342	2.532958984375	-4.75311279296875	-1.56402587890625	
37	0.148	0.0	0.0	0.0	0.0	0.003	0.003	0.006	0.006	9.86411083984375	0.054468087768554684	0.06045359191894531	2.521514892578125	-3.757476806640625	-1.033782958984375	9.777919580078125	0.55545478515625	0.1945288848876953	0.4119873046875	-4.947662353515625	-3.406524658203125	9.976638317871092	0.42975919799804685	-0.19333178405761717	2.7618408203125	-4.76837158203125	-2.017974853515625	
38	0.152	0.0	0.0	0.0	0.0	0.003	0.006	0.006	0.006	9.86291373901367	0.0526724365234375	0.07362170104980469	2.468109130859375	-3.597259521484375	-0.77056884765625	9.780912332153319	0.5524620330810547	0.19093758239746092	0.637054443359375	-5.092620849609375	-3.30352783203125	9.97184991455078	0.42975919799804685	-0.1945288848876953	2.590179443359375	-4.604339599609375	-1.651763916015625	
39	0.156	0.0	0.0	0.0	0.0	0.006	0.006	0.006	0.006	9.862315188598632	0.05027823486328125	0.0718260498046875	2.54058837890625	-3.673553466796875	-0.9613037109375	9.779715231323241	0.5584475372314452	0.19512743530273435	0.6866455078125	-5.06591796875	-3.314971923828125	9.975441217041014	0.43035774841308594	-0.20171148986816406	2.704620361328125	-4.6234130859375	-1.8463134765625	
40	0.16	0.0	0.0	0.0	0.0	0.006	0.003	0.006	0.003	9.8694977935791	0.05386953735351562	0.06703764648437499	2.41851806640625	-3.72314453125	-0.87738037109375	9.78031378173828	0.5590460876464843	0.17657237243652343	0.518798828125	-5.096435546875	-3.5400390625	9.977236868286132	0.42377369384765623	-0.20290859069824219	2.712249755859375	-4.848480224609375	-1.850128173828125	
41	0.164	0.0	0.0	0.0	0.0	0.003	0.003	0.003	0.006	9.865307940673828	0.055066638183593745	0.059256491088867186	2.7923583984375	-3.9825439453125	-1.125335693359375	9.773729727172851	0.5548562347412109	0.19393033447265623	0.698089599609375	-5.126953125	-3.238677978515625	9.976638317871092	0.43155484924316406	-0.19512743530273435	2.70843505859375	-4.72259521484375	-1.800537109375	
42	0.168	0.0	0.0	0.0	0.0	0.003	0.006	0.003	0.006	9.85094273071289	0.061650692749023434	0.06584054565429687	2.490997314453125	-3.787994384765625	-0.885009765625	9.772532626342773	0.5572504364013672	0.1849520782470703	0.6103515625	-4.947662353515625	-3.620147705078125	9.982623822021484	0.42796354675292964	-0.19093758239746092	2.87628173828125	-4.909515380859375	-1.735687255859375	
43	0.17200000000000001	0.0	0.0	0.0	0.0	0.006	0.003	0.003	0.003	9.85094273071289	0.05746083984375	0.06284779357910156	2.6092529296875	-3.4637451171875	-0.7476806640625	9.778518130493163	0.5632359405517577	0.18435352783203124	0.396728515625	-5.08880615234375	-3.5552978515625	9.97184991455078	0.41958384094238277	-0.19213468322753904	2.574920654296875	-4.7607421875	-2.00653076171875	
44	0.176	0.0	0.0	0.0	0.0	0.003	0.003	0.003	0.003	9.86411083984375	0.058657940673828124	0.061650692749023434	2.452850341796875	-3.57818603515625	-0.865936279296875	9.783905084228515	0.5644330413818359	0.19333178405761717	0.545501708984375	-5.01251220703125	-3.459930419921875	9.97184991455078	0.4267664459228515	-0.19333178405761717	2.620697021484375	-4.608154296875	-1.949310302734375	
45	0.18	0.0	0.0	0.0	0.0	0.003	0.003	0.003	0.006	9.858125335693359	0.061650692749023434	0.06584054565429687	2.590179443359375	-3.44085693359375	-0.87738037109375	9.781510882568359	0.5668272430419922	0.1867477294921875	0.591278076171875	-5.092620849609375	-3.345489501953125	9.979631069946288	0.43155484924316406	-0.20949264526367187	2.70843505859375	-4.61578369140625	-1.850128173828125	
46	0.184	0.0	0.0	0.0	0.0	0.006	0.003	0.003	0.003	9.867103591918944	0.06284779357910156	0.07062894897460938	2.51007080078125	-3.662109375	-0.86212158203125	9.779116680908203	0.565630142211914	0.19153613281249998	0.579833984375	-5.161285400390625	-3.246307373046875	9.99160207824707	0.4339490509033203	-0.20231004028320312	2.74658203125	-4.8828125	-1.6632080078125	
47	0.188	0.0	0.0	0.0	0.0	0.003	0.006	0.006	0.006	9.859322436523437	0.06823474731445311	0.06823474731445311	2.34222412109375	-3.627777099609375	-0.926971435546875	9.776123928833007	0.5674257934570313	0.19632453613281248	0.637054443359375	-5.16510009765625	-3.60107421875	9.982623822021484	0.43155484924316406	-0.19632453613281248	2.75421142578125	-4.726409912109375	-1.750946044921875	
48	0.192	0.0	0.0	0.0	0.0	0.003	0.006	0.006	0.003	9.861118087768554	0.06584054565429687	0.06284779357910156	2.307891845703125	-3.597259521484375	-0.90789794921875	9.772532626342773	0.5668272430419922	0.1879448303222656	0.640869140625	-5.123138427734375	-3.326416015625	9.979631069946288	0.43933600463867184	-0.20350714111328125	2.86865234375	-4.512786865234375	-1.861572265625	
49	0.196	0.0	0.0	0.0	0.0	0.003	0.006	0.006	0.003	9.865307940673828	0.06344634399414062	0.06883329772949218	2.5177001953125	-3.696441650390625	-0.965118408203125	9.775525378417969	0.575206948852539	0.17238251953125	0.66375732421875	-5.069732666015625	-3.566741943359375	9.976638317871092	0.45070846252441404	-0.20709844360351562	2.597808837890625	-4.718780517578125	-1.667022705078125	
50	0.2	0.0	0.0	0.0	0.0	0.006	0.003	0.006	0.006	9.862315188598632	0.06105214233398437	0.062249243164062495	2.429962158203125	-3.620147705078125	-0.820159912109375	9.782707983398437	0.5835866546630859	0.18255787658691405	0.60272216796875	-5.11932373046875	-3.421783447265625	9.975441217041014	0.4525041137695312	-0.20290859069824219	2.597808837890625	-4.52423095703125	-1.64031982421875	
51	0.20400000000000001	0.0	0.0	0.0	0.0	0.003	0.003	0.003	0.006	9.858723886108399	0.07242460021972656	0.05386953735351562	2.490997314453125	-3.849029541015625	-0.81634521484375	9.777919580078125	0.5907692596435546	0.1771709228515625	0.629425048828125	-5.28717041015625	-3.322601318359375	9.970054263305663	0.4477157104492187	-0.19572598571777342	2.735137939453125	-4.787445068359375	-2.0599365234375	
52	0.20800000000000002	0.0	0.0	0.0	0.0	0.006	0.006	0.006	0.006	9.862315188598632	0.06823474731445311	0.05805939025878906	2.574920654296875	-3.814697265625	-1.0223388671875	9.78031378173828	0.5805939025878906	0.19093758239746092	0.568389892578125	-5.08880615234375	-3.4027099609375	9.97783541870117	0.4417302062988281	-0.19153613281249998	2.38037109375	-4.45556640625	-1.617431640625	
53	0.212	0.0	0.0	0.0	0.0	0.0	0.003	0.003	0.006	9.864709390258788	0.07481880187988281	0.062249243164062495	2.57110595703125	-3.803253173828125	-0.8697509765625	9.777919580078125	0.5781997009277343	0.19093758239746092	0.743865966796875	-5.062103271484375	-3.4027099609375	9.974244116210937	0.44113165588378905	-0.19991583862304688	2.696990966796875	-4.913330078125	-1.708984375	
54	0.216	0.0	0.0	0.0	0.0	0.006	0.003	0.003	0.003	9.859920986938477	0.07900865478515624	0.06284779357910156	2.50244140625	-3.948211669921875	-0.96893310546875	9.776722479248047	0.5776011505126952	0.18435352783203124	0.43487548828125	-5.01251220703125	-3.33404541015625	9.964667309570311	0.4447229583740234	-0.19632453613281248	2.742767333984375	-3.910064697265625	-2.101898193359375	
55	0.22	0.0	0.0	0.0	0.0	0.006	0.006	0.003	0.006	9.859322436523437	0.07781155395507812	0.06284779357910156	2.239227294921875	-3.60107421875	-0.762939453125	9.776123928833007	0.5907692596435546	0.18315642700195311	0.732421875	-4.9896240234375	-3.444671630859375	9.965265859985351	0.4531026641845703	-0.1927332336425781	2.666473388671875	-4.85992431640625	-1.71661376953125	
56	0.224	0.0	0.0	0.0	0.0	0.0	0.006	0.006	0.003	9.865906491088866	0.07601590270996093	0.06763619689941405	2.66265869140625	-3.635406494140625	-1.07574462890625	9.769539874267577	0.5817910034179687	0.17956512451171874	0.827789306640625	-4.974365234375	-3.3721923828125	9.97125136413574	0.4495113616943359	-0.20350714111328125	2.773284912109375	-4.90570068359375	-1.750946044921875	
57	0.228	0.0	0.0	0.0	0.0	0.006	0.006	0.003	0.009000000000000001	9.865906491088866	0.07601590270996093	0.05626373901367187	2.685546875	-3.6468505859375	-0.77056884765625	9.779116680908203	0.5799953521728515	0.1753752716064453	0.6103515625	-4.741668701171875	-3.391265869140625	9.97184991455078	0.45190556335449217	-0.19991583862304688	2.64739990234375	-4.7149658203125	-1.720428466796875	
58	0.232	0.0	0.0	0.0	0.0	0.006	0.003	0.006	0.003	9.86291373901367	0.06703764648437499	0.0652419952392578	2.60162353515625	-3.7841796875	-0.865936279296875	9.779116680908203	0.5793968017578125	0.17298106994628906	0.48065185546875	-4.8065185546875	-3.4332275390625	9.979631069946288	0.45010991210937495	-0.19812018737792966	2.55584716796875	-4.619598388671875	-1.544952392578125	
59	0.23600000000000002	0.0	0.0	0.0	0.0	0.003	0.003	0.006	0.003	9.86291373901367	0.0652419952392578	0.06643909606933593	2.4871826171875	-3.7384033203125	-0.812530517578125	9.782707983398437	0.5776011505126952	0.17118541870117188	0.507354736328125	-5.13458251953125	-3.24249267578125	9.97783541870117	0.4483142608642578	-0.201112939453125	2.597808837890625	-4.718780517578125	-1.827239990234375	
60	0.24	0.0	0.0	0.0	0.0	0.006	0.006	0.003	0.003	9.859322436523437	0.07541735229492187	0.06284779357910156	2.5482177734375	-3.8604736328125	-0.9765625	9.772532626342773	0.5799953521728515	0.18136077575683593	0.774383544921875	-5.096435546875	-3.54766845703125	9.974842666625976	0.4477157104492187	-0.19572598571777342	2.567291259765625	-4.93621826171875	-1.79290771484375	
61	0.244	0.0	0.0	0.0	0.0	0.003	0.003	0.006	0.006	9.858723886108399	0.06883329772949218	0.0652419952392578	2.593994140625	-3.62396240234375	-0.95367431640625	9.773729727172851	0.5823895538330078	0.18375497741699218	0.576019287109375	-4.833221435546875	-3.34930419921875	9.982623822021484	0.4537012145996093	-0.19213468322753904	2.765655517578125	-4.825592041015625	-1.7547607421875	
62	0.248	0.0	0.0	0.0	0.0	0.003	0.006	0.006	0.003	9.866505041503906	0.07422025146484375	0.06643909606933593	2.593994140625	-3.77655029296875	-0.980377197265625	9.765350021362304	0.5728127471923827	0.17597382202148437	0.64849853515625	-5.290985107421875	-3.360748291015625	9.975441217041014	0.4542997650146484	-0.19093758239746092	2.727508544921875	-4.57763671875	-1.773834228515625	
63	0.252	0.0	0.0	0.0	0.0	0.006	0.006	0.006	0.003	9.87009634399414	0.076614453125	0.07362170104980469	2.513885498046875	-3.59344482421875	-0.84686279296875	9.767145672607422	0.575206948852539	0.18914193115234373	0.759124755859375	-4.970550537109375	-3.3416748046875	9.97843396911621	0.45010991210937495	-0.20649989318847656	2.49481201171875	-4.802703857421875	-1.73187255859375	
64	0.256	0.0	0.0	0.0	0.0	0.003	0.006	0.006	0.003	9.87608184814453	0.076614453125	0.06883329772949218	2.513885498046875	-3.627777099609375	-0.720977783203125	9.776722479248047	0.5698199951171875	0.20231004028320312	0.606536865234375	-4.99725341796875	-3.452301025390625	9.97244846496582	0.44592005920410155	-0.1927332336425781	2.60162353515625	-4.619598388671875	-1.5411376953125	
65	0.26	0.0	0.0	0.0	0.0	0.003	0.006	0.006	0.0	9.873687646484374	0.06643909606933593	0.06763619689941405	2.536773681640625	-3.742218017578125	-0.81634521484375	9.776123928833007	0.5698199951171875	0.1897404815673828	0.530242919921875	-5.14984130859375	-3.459930419921875	9.980229620361328	0.4375403533935547	-0.19213468322753904	2.796173095703125	-4.840850830078125	-1.865386962890625	
66	0.264	0.0	0.0	0.0	0.0	0.003	0.006	0.003	0.006	9.86411083984375	0.062249243164062495	0.07422025146484375	2.3956298828125	-3.658294677734375	-0.823974609375	9.779715231323241	0.5698199951171875	0.19033903198242186	0.415802001953125	-5.100250244140625	-3.15093994140625	9.976638317871092	0.4429273071289062	-0.19033903198242186	2.407073974609375	-4.44793701171875	-1.739501953125	
67	0.268	0.0	0.0	0.0	0.0	0.0	0.006	0.006	0.003	9.866505041503906	0.06943184814453125	0.07302315063476562	2.2735595703125	-3.88336181640625	-0.957489013671875	9.76774422302246	0.5584475372314452	0.18255787658691405	0.789642333984375	-5.153656005859375	-3.566741943359375	9.97903251953125	0.43933600463867184	-0.1897404815673828	2.72369384765625	-4.611968994140625	-1.720428466796875	
68	0.272	0.0	0.0	0.0	0.0	0.003	0.006	0.006	0.003	9.859322436523437	0.06404489440917968	0.07302315063476562	2.5787353515625	-3.787994384765625	-0.86212158203125	9.781510882568359	0.5602431884765625	0.1879448303222656	0.640869140625	-5.100250244140625	-3.429412841796875	9.96586441040039	0.43574470214843747	-0.19213468322753904	2.79998779296875	-4.718780517578125	-1.8310546875	
69	0.276	0.0	0.0	0.0	0.0	0.009000000000000001	0.003	0.006	0.003	9.864709390258788	0.05985504150390625	0.07003039855957031	2.643585205078125	-3.89862060546875	-0.835418701171875	9.772532626342773	0.5632359405517577	0.18136077575683593	0.64849853515625	-5.054473876953125	-3.3111572265625	9.965265859985351	0.42975919799804685	-0.20051438903808594	2.437591552734375	-4.79888916015625	-1.956939697265625	
70	0.28	0.0	0.0	0.0	0.0	0.003	0.003	0.003	0.006	9.86291373901367	0.052073886108398436	0.0796072052001953	2.338409423828125	-3.85284423828125	-0.949859619140625	9.769539874267577	0.5578489868164063	0.18136077575683593	0.400543212890625	-4.825592041015625	-3.2501220703125	9.970054263305663	0.4267664459228515	-0.181959326171875	2.7618408203125	-4.917144775390625	-1.77764892578125	
71	0.28400000000000003	0.0	0.0	0.0	0.0	0.003	0.006	0.003	0.006	9.853336932373047	0.0430956298828125	0.06643909606933593	2.685546875	-3.89862060546875	-0.804901123046875	9.777919580078125	0.55545478515625	0.1879448303222656	0.652313232421875	-5.0506591796875	-3.421783447265625	9.993397729492187	0.4285620971679687	-0.19333178405761717	2.655029296875	-4.5928955078125	-1.720428466796875	
72	0.28800000000000003	0.0	0.0	0.0	0.0	0.009000000000000001	0.006	0.006	0.003	9.860519537353515	0.0430956298828125	0.08020575561523437	2.41851806640625	-3.62396240234375	-1.01470947265625	9.78031378173828	0.546476528930664	0.18914193115234373	0.598907470703125	-5.14984130859375	-3.467559814453125	9.983820922851562	0.4207809417724609	-0.1897404815673828	2.941131591796875	-4.657745361328125	-1.739501953125	
73	0.292	0.0	0.0	0.0	0.0	0.003	0.006	0.006	0.003	9.87009634399414	0.047285482788085934	0.06943184814453125	2.689361572265625	-3.7078857421875	-0.8087158203125	9.777919580078125	0.5524620330810547	0.1771709228515625	0.621795654296875	-5.115509033203125	-3.376007080078125	9.97125136413574	0.42437224426269526	-0.19632453613281248	2.796173095703125	-4.978179931640625	-1.735687255859375	
74	0.296	0.0	0.0	0.0	0.0	0.006	0.003	0.006	0.006	9.8694977935791	0.04967968444824218	0.08319850769042968	2.361297607421875	-3.47137451171875	-0.8544921875	9.783905084228515	0.5500678314208984	0.18375497741699218	0.5645751953125	-5.084991455078125	-3.54766845703125	9.967061511230469	0.41898529052734373	-0.18734627990722655	2.64739990234375	-4.82177734375	-1.819610595703125	
75	0.3	0.0	0.0	0.0	0.0	0.006	0.006	0.003	0.006	9.864709390258788	0.04189852905273437	0.0718260498046875	2.391815185546875	-3.65447998046875	-0.8544921875	9.779116680908203	0.5458779785156249	0.18854338073730467	0.457763671875	-4.978179931640625	-3.173828125	9.974244116210937	0.4261678955078125	-0.1879448303222656	2.5177001953125	-4.57000732421875	-1.842498779296875	
76	0.304	0.0	0.0	0.0	0.0	0.006	0.006	0.003	0.003	9.86291373901367	0.04129997863769531	0.07003039855957031	2.513885498046875	-3.83758544921875	-0.949859619140625	9.778518130493163	0.5494692810058593	0.19333178405761717	0.732421875	-5.077362060546875	-3.47900390625	9.97903251953125	0.4213794921875	-0.19632453613281248	2.902984619140625	-4.75311279296875	-1.697540283203125	
77	0.308	0.0	0.0	0.0	0.0	0.003	0.003	0.006	0.006	9.866505041503906	0.052073886108398436	0.08439560852050781	2.44903564453125	-3.76129150390625	-0.934600830078125	9.776722479248047	0.546476528930664	0.19033903198242186	0.690460205078125	-5.016326904296875	-3.42559814453125	9.976638317871092	0.40880993347167965	-0.1975216369628906	2.67791748046875	-4.558563232421875	-1.71661376953125	
78	0.312	0.0	0.0	0.0	0.0	0.006	0.006	0.003	0.0	9.859322436523437	0.04189852905273437	0.07362170104980469	2.66265869140625	-3.8909912109375	-0.843048095703125	9.76894132385254	0.5530605834960938	0.19512743530273435	0.63323974609375	-5.466461181640625	-3.6163330078125	9.976638317871092	0.4165910888671875	-0.19991583862304688	2.593994140625	-4.72259521484375	-1.796722412109375	
79	0.316	0.0	0.0	0.0	0.0	0.003	0.003	0.003	0.003	9.867702142333984	0.058657940673828124	0.07781155395507812	2.22015380859375	-3.604888916015625	-1.056671142578125	9.782109432983399	0.5548562347412109	0.201112939453125	0.54168701171875	-5.031585693359375	-3.3416748046875	9.969455712890625	0.42317514343261714	-0.1945288848876953	2.758026123046875	-4.528045654296875	-2.02178955078125	
80	0.32	0.0	0.0	0.0	0.0	0.003	0.006	0.006	0.003	9.861716638183593	0.06584054565429687	0.05805939025878906	2.544403076171875	-3.814697265625	-0.774383544921875	9.77492682800293	0.5584475372314452	0.1867477294921875	0.606536865234375	-5.0201416015625	-3.108978271484375	9.967660061645507	0.43634325256347656	-0.19333178405761717	2.90679931640625	-4.608154296875	-1.8463134765625	
81	0.324	0.0	0.0	0.0	0.0	0.006	0.003	0.003	0.006	9.867702142333984	0.06344634399414062	0.055066638183593745	2.384185791015625	-3.704071044921875	-0.858306884765625	9.777919580078125	0.5644330413818359	0.18136077575683593	0.530242919921875	-4.985809326171875	-3.360748291015625	9.967061511230469	0.4375403533935547	-0.19931728820800781	2.658843994140625	-4.730224609375	-1.811981201171875	
82	0.328	0.0	0.0	0.0	0.0	0.006	0.003	0.006	0.003	9.852139831542969	0.08020575561523437	0.04608838195800781	2.376556396484375	-3.68499755859375	-0.74005126953125	9.7683427734375	0.5799953521728515	0.17776947326660156	0.522613525390625	-5.367279052734375	-3.528594970703125	9.961674557495117	0.4626794708251953	-0.2041056915283203	2.689361572265625	-4.67681884765625	-1.77001953125	
83	0.332	0.0	0.0	0.0	0.0	0.003	0.006	0.003	0.003	9.885658654785155	0.07422025146484375	0.061650692749023434	2.43377685546875	-3.795623779296875	-0.782012939453125	9.78031378173828	0.5991489654541016	0.15502455749511718	0.553131103515625	-5.062103271484375	-3.4332275390625	9.964068759155273	0.469862075805664	-0.23582886352539062	2.750396728515625	-4.5318603515625	-1.667022705078125	
84	0.336	0.0	0.0	0.0	0.0	0.006	0.006	0.003	0.003	9.912593423461914	0.08379705810546874	0.0909796630859375	2.414703369140625	-3.360748291015625	-0.90789794921875	9.78629928588867	0.5907692596435546	0.1927332336425781	0.60272216796875	-4.833221435546875	-3.265380859375	9.98561657409668	0.46686932373046874	-0.23822306518554687	2.628326416015625	-4.756927490234375	-1.697540283203125	
85	0.34	0.0	0.0	0.0	0.0	0.003	0.006	0.006	0.009000000000000001	9.86291373901367	0.037708676147460936	0.105344873046875	2.384185791015625	-3.62396240234375	-0.919342041015625	9.782707983398437	0.565031591796875	0.2184709014892578	0.804901123046875	-4.940032958984375	-3.307342529296875	9.980229620361328	0.4525041137695312	-0.14903905334472656	2.54058837890625	-4.673004150390625	-1.8157958984375	
86	0.34400000000000003	0.0	0.0	0.0	0.0	0.012	0.003	0.006	0.006	9.880271701049804	-0.020949264526367185	0.0526724365234375	2.3651123046875	-3.72314453125	-0.743865966796875	9.817423907470703	0.4734533782958984	0.1801636749267578	0.560760498046875	-5.18035888671875	-3.53240966796875	10.034099157714843	0.3525461944580078	-0.19333178405761717	2.727508544921875	-4.66156005859375	-1.8768310546875	
87	0.34800000000000003	0.0	0.0	0.0	0.0	0.006	0.003	0.003	0.003	9.83897172241211	0.058657940673828124	0.05327098693847656	2.651214599609375	-3.673553466796875	-0.972747802734375	9.755773214721678	0.5620388397216797	0.18076222534179687	0.60272216796875	-5.153656005859375	-3.48663330078125	9.943119494628906	0.4327519500732422	-0.19692308654785154	2.58636474609375	-4.6539306640625	-1.96075439453125	
88	0.352	0.0	0.0	0.0	0.0	0.003	0.003	0.006	0.006	9.787496386718749	0.08858546142578125	0.06464344482421874	2.685546875	-3.77655029296875	-0.91552734375	9.695319622802733	0.6159083770751953	0.20949264526367187	0.797271728515625	-4.909515380859375	-3.41033935546875	9.885658654785155	0.5027823486328125	-0.1484405029296875	2.69317626953125	-4.8675537109375	-1.895904541015625	
89	0.356	0.0	0.0	0.0	0.0	0.006	0.003	0.003	0.003	9.843760125732421	0.034715924072265626	0.029927520751953124	2.971649169921875	-3.787994384765625	-0.766754150390625	9.765948571777344	0.5351040710449219	0.15382745666503905	0.553131103515625	-5.36346435546875	-3.322601318359375	9.968857162475585	0.4010287780761719	-0.22445640563964842	2.758026123046875	-4.512786865234375	-1.605987548828125	
90	0.36	0.0	0.0	0.0	0.0	0.003	0.003	0.003	0.003	9.849147079467773	0.04848258361816406	0.04369418029785156	2.552032470703125	-3.48663330078125	-0.881195068359375	9.76175871887207	0.5392939239501953	0.17836802368164062	0.530242919921875	-5.153656005859375	-3.662109375	9.983820922851562	0.4064157318115234	-0.19812018737792966	2.655029296875	-4.428863525390625	-1.953125	
91	0.364	0.0	0.0	0.0	0.0	0.003	0.006	0.006	0.003	9.8694977935791	0.10414777221679687	0.07242460021972656	2.50244140625	-3.658294677734375	-1.01470947265625	9.771335525512695	0.6380547424316406	0.19393033447265623	0.690460205078125	-4.810333251953125	-3.34930419921875	9.975441217041014	0.5093664031982421	-0.2059013427734375	2.838134765625	-4.50897216796875	-1.819610595703125	
92	0.368	0.0	0.0	0.0	0.0	0.006	0.006	0.006	0.003	9.928754284667969	0.12988544006347655	0.047884033203124995	2.593994140625	-3.704071044921875	-0.843048095703125	9.958681805419921	0.6494272003173828	0.1640028137207031	0.701904296875	-4.894256591796875	-3.276824951171875	10.007164389038085	0.5117606048583984	-0.24779987182617186	2.620697021484375	-4.772186279296875	-1.739501953125	
93	0.372	0.0	0.0	0.0	0.0	0.006	0.003	0.003	0.006	9.916184725952148	0.11192892761230468	0.05027823486328125	2.399444580078125	-3.662109375	-0.92315673828125	9.805452899169921	0.6272808349609375	0.13766659545898435	0.35858154296875	-5.19561767578125	-3.360748291015625	10.003573086547851	0.4961982940673828	-0.26396073303222656	2.704620361328125	-4.802703857421875	-1.96075439453125	
94	0.376	0.0	0.0	0.0	0.0	0.006	0.003	0.006	0.003	9.868300692749022	0.12808978881835936	0.07781155395507812	2.25830078125	-3.63922119140625	-0.865936279296875	9.763554370117188	0.6380547424316406	0.1753752716064453	0.545501708984375	-5.069732666015625	-3.398895263671875	9.969455712890625	0.5045779998779296	-0.2184709014892578	2.696990966796875	-4.58526611328125	-1.873016357421875	
95	0.38	0.0	0.0	0.0	0.0	0.003	0.003	0.006	0.006	9.858125335693359	0.08379705810546874	0.07302315063476562	2.38037109375	-3.8604736328125	-0.9765625	9.770736975097655	0.5859808563232421	0.1771709228515625	0.537872314453125	-5.0201416015625	-3.15093994140625	9.965265859985351	0.4656722229003906	-0.18854338073730467	2.811431884765625	-4.627227783203125	-1.689910888671875	
96	0.384	0.0	0.0	0.0	0.0	0.006	0.006	0.003	0.003	9.87009634399414	0.08020575561523437	0.037708676147460936	2.49481201171875	-3.7384033203125	-0.8544921875	9.776722479248047	0.5644330413818359	0.15861585998535155	0.728607177734375	-5.069732666015625	-3.48663330078125	9.99160207824707	0.430956298828125	-0.20649989318847656	2.716064453125	-4.90570068359375	-1.7852783203125	
97	0.388	0.0	0.0	0.0	0.0	0.006	0.006	0.003	0.003	9.86351228942871	0.07841010437011718	0.040701428222656245	2.471923828125	-3.665924072265625	-0.9765625	9.753977563476562	0.5979518646240234	0.17357962036132812	0.579833984375	-4.993438720703125	-3.314971923828125	9.968258612060547	0.46208092041015625	-0.1927332336425781	2.773284912109375	-4.825592041015625	-2.0294189453125	
98	0.392	0.0	0.0	0.0	0.0	0.003	0.006	0.003	0.003	9.859322436523437	0.09457096557617187	0.04608838195800781	2.590179443359375	-3.6773681640625	-0.835418701171875	9.76774422302246	0.5883750579833984	0.18614917907714842	0.362396240234375	-4.962921142578125	-3.292083740234375	9.967061511230469	0.45968671875	-0.17238251953125	2.750396728515625	-4.756927490234375	-1.82342529296875	
99	0.396	0.0	0.0	0.0	0.0	0.006	0.003	0.003	0.006	9.848548529052733	0.06045359191894531	0.04249707946777344	2.719879150390625	-3.620147705078125	-0.827789306640625	9.77432827758789	0.5536591339111328	0.18375497741699218	0.5035400390625	-4.894256591796875	-3.39508056640625	9.964667309570311	0.42437224426269526	-0.16879121704101563	2.925872802734375	-4.90570068359375	-1.7242431640625	
100	0.4	0.0	0.0	0.0	0.0	0.0	0.006	0.003	0.006	9.852738381958007	0.058657940673828124	0.03890577697753906	2.79998779296875	-3.753662109375	-0.881195068359375	9.769539874267577	0.5524620330810547	0.17776947326660156	0.629425048828125	-5.077362060546875	-3.4332275390625	9.983820922851562	0.421978042602539	-0.18914193115234373	2.74658203125	-4.55474853515625	-1.76239013671875	
101	0.404	0.0	0.0	0.0	0.0	0.006	0.003	0.003	0.006	9.853336932373047	0.10893617553710937	0.06105214233398437	2.58636474609375	-3.849029541015625	-0.81634521484375	9.757568865966796	0.63206923828125	0.17657237243652343	0.61798095703125	-5.199432373046875	-3.444671630859375	9.957484704589843	0.4836287353515625	-0.19033903198242186	2.658843994140625	-4.673004150390625	-1.819610595703125	
102	0.40800000000000003	0.0	0.0	0.0	0.0	0.006	0.006	0.003	0.003	9.867702142333984	0.11911153259277343	0.052073886108398436	2.51007080078125	-3.68499755859375	-0.823974609375	9.764751470947266	0.6380547424316406	0.16879121704101563	0.67901611328125	-5.2642822265625	-3.330230712890625	9.95987890625	0.5159504577636719	-0.20949264526367187	2.7313232421875	-4.730224609375	-1.888275146484375	
103	0.41200000000000003	0.0	0.0	0.0	0.0	0.003	0.006	0.003	0.006	9.888651406860351	0.11133037719726561	0.032920272827148434	2.7008056640625	-3.818511962890625	-1.186370849609375	9.78031378173828	0.6189011291503906	0.14903905334472656	0.92315673828125	-5.10406494140625	-3.4637451171875	9.996989031982421	0.5003881469726562	-0.24301146850585936	2.86102294921875	-4.688262939453125	-1.865386962890625	
104	0.41600000000000004	0.0	0.0	0.0	0.0	0.006	0.003	0.003	0.006	9.883264453125	0.1131260284423828	0.0652419952392578	2.54058837890625	-3.80706787109375	-0.89263916015625	9.78031378173828	0.6386532928466796	0.1771709228515625	0.6103515625	-4.8065185546875	-3.482818603515625	9.982025271606444	0.5015852478027344	-0.22266075439453123	2.796173095703125	-4.75311279296875	-1.76239013671875	
105	0.42	0.0	0.0	0.0	0.0	0.009000000000000001	0.006	0.003	0.003	9.881468801879882	0.12569558715820311	0.09157821350097656	2.50244140625	-3.856658935546875	-0.843048095703125	9.783905084228515	0.6446387969970703	0.18555062866210936	0.499725341796875	-5.0048828125	-3.391265869140625	9.989207876586914	0.5147533569335937	-0.24660277099609373	2.635955810546875	-4.69207763671875	-1.804351806640625	
106	0.424	0.0	0.0	0.0	0.0	0.003	0.006	0.006	0.0	9.897629663085937	0.10893617553710937	0.05805939025878906	2.681732177734375	-3.841400146484375	-0.728607177734375	9.788094937133788	0.6105214233398437	0.15981296081542967	0.720977783203125	-5.229949951171875	-3.45611572265625	9.995791931152343	0.469862075805664	-0.2561795776367187	2.60162353515625	-4.7760009765625	-1.9073486328125	
107	0.428	0.0	0.0	0.0	0.0	0.006	0.006	0.006	0.006	9.883264453125	0.09157821350097656	0.062249243164062495	2.532958984375	-3.74603271484375	-1.026153564453125	9.765350021362304	0.5829881042480468	0.18136077575683593	0.274658203125	-4.894256591796875	-3.238677978515625	9.968258612060547	0.4531026641845703	-0.24839842224121092	2.529144287109375	-4.772186279296875	-1.895904541015625	
108	0.432	0.0	0.0	0.0	0.0	0.0	0.006	0.006	0.003	9.829394915771484	0.07481880187988281	0.10175357055664062	2.353668212890625	-3.803253173828125	-0.934600830078125	9.744999307250977	0.5781997009277343	0.21308394775390624	0.54931640625	-4.787445068359375	-3.30352783203125	9.94072529296875	0.45968671875	-0.19033903198242186	2.57110595703125	-4.63104248046875	-1.7547607421875	
109	0.436	0.0	0.0	0.0	0.0	0.006	0.003	0.006	0.006	9.847949978637695	0.0053869537353515625	0.0939724151611328	2.6092529296875	-3.894805908203125	-0.77056884765625	9.765948571777344	0.5141548065185546	0.20769699401855468	0.537872314453125	-5.001068115234375	-3.131866455078125	9.97903251953125	0.3651157531738281	-0.17357962036132812	2.9449462890625	-4.756927490234375	-1.74713134765625	
110	0.44	0.0	0.0	0.0	0.0	0.006	0.006	0.006	0.006	9.873687646484374	-0.022146365356445312	0.08918401184082031	2.3956298828125	-3.7841796875	-1.007080078125	9.787496386718749	0.4704606262207031	0.2041056915283203	0.598907470703125	-5.11932373046875	-3.56292724609375	9.995193380737303	0.3447650390625	-0.16639701538085935	2.559661865234375	-4.634857177734375	-2.08282470703125	
111	0.444	0.0	0.0	0.0	0.0	0.003	0.003	0.006	0.006	9.848548529052733	-0.011971008300781249	0.10175357055664062	2.46429443359375	-3.368377685546875	-0.881195068359375	9.769539874267577	0.517746109008789	0.24361001892089842	0.484466552734375	-4.8980712890625	-3.42559814453125	9.976039767456054	0.39264907226562495	-0.13766659545898435	2.681732177734375	-4.974365234375	-2.048492431640625	
112	0.448	0.0	0.0	0.0	0.0	0.003	0.006	0.006	0.003	9.865307940673828	-0.015562310791015624	0.10354922180175781	2.338409423828125	-3.681182861328125	-0.90789794921875	9.775525378417969	0.49679684448242184	0.2537853759765625	0.720977783203125	-5.30242919921875	-3.3111572265625	9.976638317871092	0.364517202758789	-0.11851298217773437	2.777099609375	-4.787445068359375	-1.64031982421875	
113	0.452	0.0	0.0	0.0	0.0	0.006	0.006	0.006	0.006	9.85692823486328	-0.062249243164062495	0.10414777221679687	2.3345947265625	-3.704071044921875	-0.934600830078125	9.776722479248047	0.42975919799804685	0.2501940734863281	0.74005126953125	-5.260467529296875	-3.4332275390625	9.993397729492187	0.3022679595947265	-0.12210428466796874	2.64739990234375	-4.665374755859375	-1.964569091796875	
114	0.456	0.0	0.0	0.0	0.0	0.003	0.003	0.006	0.006	9.847351428222655	-0.04369418029785156	0.12449848632812499	2.468109130859375	-3.879547119140625	-0.9307861328125	9.763554370117188	0.44592005920410155	0.26216508178710934	0.396728515625	-4.73785400390625	-3.30352783203125	9.97184991455078	0.32022447204589843	-0.1197100830078125	2.651214599609375	-4.634857177734375	-1.7547607421875	
115	0.46	0.0	0.0	0.0	0.0	0.006	0.003	0.003	0.003	9.872490545654296	-0.012569558715820313	0.11851298217773437	2.5177001953125	-3.8909912109375	-0.946044921875	9.777321029663085	0.4944026428222656	0.2472013214111328	0.49591064453125	-5.054473876953125	-3.30352783203125	9.964667309570311	0.36930560607910157	-0.11552023010253906	2.54058837890625	-4.749298095703125	-1.77764892578125	
116	0.464	0.0	0.0	0.0	0.0	0.003	0.006	0.003	0.003	9.893439810180663	-0.020350714111328123	0.09457096557617187	2.704620361328125	-3.90625	-0.8544921875	9.798868844604492	0.4740519287109375	0.22864625854492185	0.701904296875	-4.680633544921875	-3.330230712890625	9.986215124511718	0.3525461944580078	-0.1580173095703125	2.5787353515625	-4.802703857421875	-1.7852783203125	
117	0.468	0.0	0.0	0.0	0.0	0.003	0.003	0.003	0.006	9.89583401184082	-0.02633621826171875	0.10773907470703124	2.4566650390625	-3.6163330078125	-0.812530517578125	9.805452899169921	0.46507367248535153	0.22206220397949217	0.7171630859375	-5.237579345703125	-3.41033935546875	10.002974536132811	0.3393780853271484	-0.16220716247558592	2.941131591796875	-4.634857177734375	-1.708984375	
118	0.47200000000000003	0.0	0.0	0.0	0.0	0.006	0.006	0.006	0.006	9.85752678527832	-0.02693476867675781	0.13108254089355467	2.64739990234375	-3.841400146484375	-0.72479248046875	9.782707983398437	0.47704468078613277	0.2501940734863281	0.949859619140625	-5.2032470703125	-3.200531005859375	9.983820922851562	0.34715924072265625	-0.15502455749511718	2.55584716796875	-4.5623779296875	-1.667022705078125	
119	0.47600000000000003	0.0	0.0	0.0	0.0	0.003	0.003	0.003	0.006	9.854534033203125	-0.0143652099609375	0.12210428466796874	2.777099609375	-3.85284423828125	-1.129150390625	9.781510882568359	0.4842272857666015	0.21428104858398436	0.79345703125	-5.06591796875	-3.41796875	9.981426721191406	0.35613749694824215	-0.16460136413574217	2.70843505859375	-4.82177734375	-1.82342529296875	
120	0.48	0.0	0.0	0.0	0.0	0.003	0.003	0.003	0.006	9.86291373901367	-0.011971008300781249	0.08200140686035155	2.6092529296875	-3.673553466796875	-0.87738037109375	9.775525378417969	0.4896142395019531	0.1849520782470703	0.728607177734375	-5.397796630859375	-3.25775146484375	9.979631069946288	0.36272155151367186	-0.18375497741699218	2.63214111328125	-4.6844482421875	-1.7547607421875	
121	0.484	0.0	0.0	0.0	0.0	0.003	0.006	0.003	0.009000000000000001	9.867103591918944	0.02693476867675781	0.06883329772949218	2.61688232421875	-3.589630126953125	-0.812530517578125	9.76235726928711	0.5315127685546874	0.1801636749267578	0.78582763671875	-4.913330078125	-3.47137451171875	9.958681805419921	0.3890577697753906	-0.21487959899902342	2.658843994140625	-4.604339599609375	-1.850128173828125	
122	0.488	0.0	0.0	0.0	0.0	0.0	0.006	0.006	0.003	9.852139831542969	0.028131869506835935	0.08918401184082031	2.620697021484375	-3.902435302734375	-0.812530517578125	9.760561618041992	0.5476736297607422	0.18076222534179687	0.52642822265625	-4.89044189453125	-3.200531005859375	9.956287603759765	0.40940848388671874	-0.20530279235839843	2.70843505859375	-4.497528076171875	-1.89208984375	
123	0.492	0.0	0.0	0.0	0.0	0.003	0.006	0.006	0.003	9.864709390258788	0.022146365356445312	0.07062894897460938	2.26593017578125	-3.742218017578125	-0.86212158203125	9.771934075927733	0.5303156677246094	0.17118541870117188	0.713348388671875	-5.069732666015625	-3.570556640625	9.994594830322265	0.39324762268066404	-0.22026655273437498	2.498626708984375	-4.7454833984375	-1.758575439453125	
124	0.496	0.0	0.0	0.0	0.0	0.003	0.006	0.006	0.003	9.860519537353515	0.0430956298828125	0.06045359191894531	2.277374267578125	-3.76129150390625	-0.850677490234375	9.779715231323241	0.5542576843261718	0.17357962036132812	0.652313232421875	-4.909515380859375	-3.47900390625	9.988609326171874	0.411802685546875	-0.22864625854492185	2.5787353515625	-4.650115966796875	-1.728057861328125	
125	0.5	0.0	0.0	0.0	0.0	0.003	0.006	0.006	0.003	9.855132583618163	0.086191259765625	0.06105214233398437	2.399444580078125	-3.6468505859375	-1.255035400390625	9.763554370117188	0.6063315704345703	0.1771709228515625	0.606536865234375	-5.4168701171875	-3.5247802734375	9.962273107910155	0.4626794708251953	-0.2214636535644531	2.60162353515625	-5.02777099609375	-1.91497802734375	
126	0.504	0.0	0.0	0.0	0.0	0.003	0.003	0.003	0.006	9.8694977935791	0.11611878051757812	0.04848258361816406	2.544403076171875	-3.826141357421875	-0.80108642578125	9.77432827758789	0.6194996795654296	0.16699556579589842	0.2288818359375	-5.0201416015625	-3.292083740234375	9.961076007080077	0.479438882446289	-0.239420166015625	2.55584716796875	-4.6844482421875	-1.77764892578125	
127	0.508	0.0	0.0	0.0	0.0	0.006	0.003	0.003	0.003	9.879673150634765	0.10115502014160156	0.04249707946777344	2.544403076171875	-3.559112548828125	-0.79345703125	9.785102185058593	0.6015431671142578	0.1484405029296875	0.682830810546875	-5.062103271484375	-3.459930419921875	9.989207876586914	0.46686932373046874	-0.24181436767578124	2.63214111328125	-4.756927490234375	-2.03704833984375	
128	0.512	0.0	0.0	0.0	0.0	0.003	0.003	0.003	0.003	9.87009634399414	0.11911153259277343	0.05386953735351562	2.422332763671875	-3.99017333984375	-0.9765625	9.783905084228515	0.6117185241699218	0.16460136413574217	0.858306884765625	-5.10406494140625	-3.60107421875	9.982623822021484	0.48183308410644526	-0.22026655273437498	2.529144287109375	-4.772186279296875	-1.8463134765625	
129	0.516	0.0	0.0	0.0	0.0	0.006	0.006	0.003	0.009000000000000001	9.858125335693359	0.14006079711914063	0.047285482788085934	2.3193359375	-3.765106201171875	-0.789642333984375	9.7683427734375	0.6362590911865234	0.1771709228515625	0.3509521484375	-5.245208740234375	-3.59344482421875	9.974244116210937	0.5183446594238281	-0.19333178405761717	2.445220947265625	-4.550933837890625	-1.583099365234375	
130	0.52	0.0	0.0	0.0	0.0	0.006	0.003	0.006	0.006	9.871293444824218	0.14006079711914063	0.037110125732421874	2.44140625	-3.875732421875	-0.713348388671875	9.770138424682617	0.63206923828125	0.16819266662597654	0.438690185546875	-5.096435546875	-3.368377685546875	9.983820922851562	0.49859249572753905	-0.20649989318847656	2.43377685546875	-4.5928955078125	-1.850128173828125	
131	0.524	0.0	0.0	0.0	0.0	0.006	0.006	0.003	0.003	9.858125335693359	0.1370680450439453	0.022744915771484374	2.1820068359375	-3.73077392578125	-0.988006591796875	9.766547122192382	0.6314706878662109	0.17357962036132812	0.3509521484375	-4.90570068359375	-3.337860107421875	9.986813674926758	0.4944026428222656	-0.2041056915283203	2.60162353515625	-4.680633544921875	-1.811981201171875	
132	0.528	0.0	0.0	0.0	0.0	0.003	0.003	0.003	0.003	9.8449572265625	0.1562216583251953	0.02633621826171875	2.422332763671875	-3.91387939453125	-0.957489013671875	9.750386260986328	0.6476315490722656	0.16759411621093748	0.7476806640625	-5.001068115234375	-3.368377685546875	9.95329485168457	0.5135562561035156	-0.21068974609375	2.910614013671875	-4.604339599609375	-1.743316650390625	
133	0.532	0.0	0.0	0.0	0.0	0.006	0.003	0.003	0.003	9.843161575317382	0.1580173095703125	0.02154781494140625	2.51007080078125	-3.902435302734375	-1.033782958984375	9.755773214721678	0.6530185028076172	0.17417817077636719	0.6561279296875	-5.298614501953125	-3.589630126953125	9.956287603759765	0.5249287139892578	-0.21009119567871093	2.681732177734375	-4.87518310546875	-1.64031982421875	
134	0.536	0.0	0.0	0.0	0.0	0.0	0.006	0.003	0.003	9.86351228942871	0.1657984649658203	0.022146365356445312	2.613067626953125	-3.73077392578125	-1.026153564453125	9.763554370117188	0.6631938598632812	0.15741875915527342	0.843048095703125	-4.7760009765625	-3.475189208984375	9.973047015380859	0.5327098693847656	-0.2184709014892578	2.712249755859375	-4.802703857421875	-1.8310546875	
135	0.54	0.0	0.0	0.0	0.0	0.003	0.003	0.006	0.0	9.8694977935791	0.18914193115234373	0.012569558715820313	2.490997314453125	-3.72314453125	-0.70953369140625	9.76235726928711	0.6961141326904297	0.15083470458984374	0.392913818359375	-5.046844482421875	-3.505706787109375	9.974244116210937	0.5518634826660156	-0.22744915771484372	2.727508544921875	-4.741668701171875	-1.861572265625	
136	0.544	0.0	0.0	0.0	0.0	0.003	0.006	0.006	0.003	9.879673150634765	0.19871873779296872	0.03890577697753906	2.651214599609375	-3.704071044921875	-0.9002685546875	9.778518130493163	0.7050923889160156	0.15741875915527342	0.804901123046875	-5.115509033203125	-3.353118896484375	9.983222372436522	0.5680243438720702	-0.24839842224121092	2.620697021484375	-4.547119140625	-1.7852783203125	
137	0.548	0.0	0.0	0.0	0.0	0.006	0.003	0.006	0.003	9.87668039855957	0.17956512451171874	0.03531447448730469	2.4566650390625	-3.826141357421875	-1.033782958984375	9.782707983398437	0.6889315277099609	0.14724340209960937	0.63323974609375	-5.07354736328125	-3.387451171875	9.984419473266602	0.5536591339111328	-0.25917232971191406	2.887725830078125	-4.7760009765625	-1.64031982421875	
138	0.552	0.0	0.0	0.0	0.0	0.003	0.003	0.006	0.006	9.87727894897461	0.18136077575683593	0.025139117431640625	2.376556396484375	-3.86810302734375	-0.850677490234375	9.782109432983399	0.6775590698242188	0.13467384338378904	0.762939453125	-5.4779052734375	-3.604888916015625	9.980229620361328	0.5440823272705078	-0.2723404388427734	2.773284912109375	-4.67681884765625	-1.91497802734375	
139	0.556	0.0	0.0	0.0	0.0	0.003	0.003	0.003	0.003	9.86411083984375	0.18435352783203124	0.037708676147460936	2.6092529296875	-3.6468505859375	-0.80108642578125	9.765948571777344	0.6859387756347656	0.15083470458984374	0.782012939453125	-4.78363037109375	-3.265380859375	9.962871658325195	0.5614402893066406	-0.2699462371826172	2.674102783203125	-4.63104248046875	-1.766204833984375	
140	0.56	0.0	0.0	0.0	0.0	-0.003	0.003	0.006	0.003	9.843760125732421	0.15263035583496093	0.044891281127929686	2.3956298828125	-3.7078857421875	-0.95367431640625	9.755773214721678	0.6584054565429687	0.15023615417480468	0.667572021484375	-4.9896240234375	-3.36456298828125	9.961076007080077	0.5303156677246094	-0.24061726684570311	2.7313232421875	-4.657745361328125	-1.575469970703125	
141	0.5640000000000001	0.0	0.0	0.0	0.0	0.009000000000000001	0.006	0.006	0.003	9.855731134033203	0.11911153259277343	0.0430956298828125	2.471923828125	-4.047393798828125	-0.79345703125	9.78031378173828	0.5985504150390625	0.13826514587402344	0.476837158203125	-5.0506591796875	-3.41033935546875	9.980229620361328	0.4842272857666015	-0.2454056701660156	2.811431884765625	-4.67681884765625	-1.880645751953125	
142	0.5680000000000001	0.0	0.0	0.0	0.0	0.006	0.003	0.006	0.003	9.859322436523437	0.10414777221679687	0.04189852905273437	2.57110595703125	-3.482818603515625	-1.04522705078125	9.773729727172851	0.6123170745849609	0.1562216583251953	0.66375732421875	-5.0811767578125	-3.536224365234375	9.965265859985351	0.47165772705078124	-0.23882161560058593	2.3651123046875	-4.5013427734375	-1.781463623046875	
143	0.5720000000000001	0.0	0.0	0.0	0.0	0.003	0.006	0.003	0.003	9.849147079467773	0.09516951599121093	0.06105214233398437	2.475738525390625	-3.73077392578125	-0.698089599609375	9.767145672607422	0.6015431671142578	0.16879121704101563	0.904083251953125	-4.848480224609375	-3.21197509765625	9.959280355834961	0.4740519287109375	-0.21009119567871093	2.719879150390625	-4.4708251953125	-1.712799072265625	
144	0.5760000000000001	0.0	0.0	0.0	0.0	0.006	0.006	0.003	0.006	9.861118087768554	0.06045359191894531	0.058657940673828124	2.239227294921875	-3.551483154296875	-1.04522705078125	9.777919580078125	0.5578489868164063	0.1753752716064453	0.698089599609375	-5.035400390625	-3.314971923828125	9.982623822021484	0.4273649963378906	-0.20231004028320312	2.735137939453125	-4.7149658203125	-1.712799072265625	
145	0.58	0.0	0.0	0.0	0.0	0.006	0.003	0.006	0.006	9.868899243164062	0.03591302490234375	0.07541735229492187	2.414703369140625	-3.5552978515625	-0.885009765625	9.777919580078125	0.5386953735351562	0.19393033447265623	0.728607177734375	-4.993438720703125	-3.39508056640625	9.987412225341796	0.4004302276611328	-0.17597382202148437	2.620697021484375	-4.5166015625	-1.7242431640625	
146	0.584	0.0	0.0	0.0	0.0	0.006	0.003	0.006	0.006	9.864709390258788	0.018555062866210937	0.08200140686035155	2.5482177734375	-3.4332275390625	-0.698089599609375	9.773131176757811	0.5225345123291015	0.20350714111328125	0.621795654296875	-4.9285888671875	-3.31878662109375	9.976039767456054	0.38845921936035155	-0.15981296081542967	2.62451171875	-4.550933837890625	-1.682281494140625	
147	0.588	0.0	0.0	0.0	0.0	0.006	0.003	0.003	0.003	9.874884747314452	-0.011971008300781249	0.08379705810546874	2.5177001953125	-3.73077392578125	-0.93841552734375	9.78629928588867	0.48662148742675776	0.21068974609375	0.67138671875	-5.1422119140625	-3.3416748046875	9.970054263305663	0.3758896606445312	-0.1610100616455078	2.55584716796875	-4.497528076171875	-1.766204833984375	
148	0.592	0.0	0.0	0.0	0.0	0.003	0.006	0.006	0.006	9.888651406860351	-0.028131869506835935	0.086191259765625	2.532958984375	-3.810882568359375	-0.675201416015625	9.789890588378906	0.4674678741455078	0.19871873779296872	0.6103515625	-4.913330078125	-3.253936767578125	9.991003527832031	0.35134909362792965	-0.15322890625	2.872467041015625	-4.680633544921875	-1.811981201171875	
149	0.596	0.0	0.0	0.0	0.0	0.006	0.006	0.006	0.003	9.86351228942871	-0.05386953735351562	0.09995791931152344	2.6702880859375	-3.620147705078125	-0.72479248046875	9.779116680908203	0.45070846252441404	0.21428104858398436	0.736236572265625	-5.0201416015625	-3.543853759765625	9.982025271606444	0.32022447204589843	-0.1352723937988281	2.51007080078125	-4.5166015625	-1.819610595703125	
150	0.6	0.0	0.0	0.0	0.0	0.006	0.006	0.006	0.003	9.85094273071289	-0.06763619689941405	0.10474632263183593	2.445220947265625	-3.643035888671875	-0.90789794921875	9.769539874267577	0.4261678955078125	0.22505495605468748	0.873565673828125	-4.962921142578125	-3.215789794921875	9.987412225341796	0.29448680419921874	-0.1322796417236328	2.735137939453125	-4.55474853515625	-1.79290771484375	
151	0.604	0.0	0.0	0.0	0.0	0.003	0.003	0.006	0.003	9.858125335693359	-0.08080430603027343	0.0939724151611328	2.76947021484375	-3.780364990234375	-0.66375732421875	9.767145672607422	0.4177881896972656	0.20470424194335937	0.55694580078125	-5.100250244140625	-3.398895263671875	9.98561657409668	0.29568390502929687	-0.14305354919433594	2.826690673828125	-4.756927490234375	-1.659393310546875	
152	0.608	0.0	0.0	0.0	0.0	0.003	0.003	0.003	0.003	9.866505041503906	-0.08439560852050781	0.08020575561523437	2.532958984375	-3.7841796875	-0.9002685546875	9.780912332153319	0.42018239135742186	0.2136824981689453	0.843048095703125	-4.94384765625	-3.513336181640625	9.982025271606444	0.28909985046386716	-0.16340426330566404	2.70843505859375	-4.35638427734375	-1.766204833984375	
153	0.612	0.0	0.0	0.0	0.0	0.003	0.006	0.003	0.006	9.867702142333984	-0.055066638183593745	0.08798691101074219	2.73895263671875	-3.673553466796875	-0.823974609375	9.782707983398437	0.4369418029785156	0.2088940948486328	0.77056884765625	-4.825592041015625	-3.1890869140625	9.975441217041014	0.31004911499023435	-0.16041151123046873	2.83050537109375	-4.75311279296875	-1.89208984375	
154	0.616	0.0	0.0	0.0	0.0	0.003	0.006	0.003	0.006	9.868899243164062	-0.0652419952392578	0.09457096557617187	2.40325927734375	-3.376007080078125	-0.812530517578125	9.781510882568359	0.43155484924316406	0.20231004028320312	0.247955322265625	-4.962921142578125	-3.44085693359375	9.982623822021484	0.3064578125	-0.17357962036132812	2.95257568359375	-4.596710205078125	-1.79290771484375	
155	0.62	0.0	0.0	0.0	0.0	0.006	0.003	0.006	0.006	9.867702142333984	-0.06703764648437499	0.08858546142578125	2.460479736328125	-3.63922119140625	-0.86212158203125	9.783905084228515	0.4285620971679687	0.19572598571777342	0.57220458984375	-5.08880615234375	-3.276824951171875	9.997587582397461	0.296881005859375	-0.18315642700195311	2.716064453125	-4.718780517578125	-1.74713134765625	
156	0.624	0.0	0.0	0.0	0.0	0.006	0.003	0.006	0.003	9.859322436523437	-0.05087678527832031	0.07781155395507812	2.445220947265625	-3.810882568359375	-0.823974609375	9.782109432983399	0.44891281127929683	0.18555062866210936	0.698089599609375	-4.974365234375	-3.482818603515625	9.983820922851562	0.32022447204589843	-0.2088940948486328	2.712249755859375	-4.764556884765625	-1.873016357421875	
157	0.628	0.0	0.0	0.0	0.0	0.006	0.003	0.006	0.006	9.874286196899414	-0.023343466186523436	0.07781155395507812	2.613067626953125	-3.749847412109375	-0.8087158203125	9.782707983398437	0.47584757995605464	0.181959326171875	0.9613037109375	-4.8675537109375	-3.42559814453125	9.980229620361328	0.35194764404296874	-0.2166752502441406	2.506256103515625	-4.611968994140625	-1.651763916015625	
158	0.632	0.0	0.0	0.0	0.0	0.009000000000000001	0.006	0.006	0.003	9.87727894897461	-0.022146365356445312	0.07781155395507812	2.593994140625	-3.96728515625	-0.858306884765625	9.79408044128418	0.48243163452148435	0.17776947326660156	0.45013427734375	-5.016326904296875	-3.53240966796875	9.986813674926758	0.35194764404296874	-0.21248539733886718	2.727508544921875	-4.730224609375	-1.743316650390625	
159	0.636	0.0	0.0	0.0	0.0	0.003	0.003	0.006	0.003	9.87668039855957	-0.016759411621093748	0.07481880187988281	2.410888671875	-3.4942626953125	-0.8544921875	9.783905084228515	0.4878185882568359	0.18555062866210936	0.70953369140625	-5.04302978515625	-3.41033935546875	9.988010775756836	0.3603273498535156	-0.20829554443359374	2.704620361328125	-4.5166015625	-1.9073486328125	
160	0.64	0.0	0.0	0.0	0.0	0.009000000000000001	0.003	0.006	0.003	9.862315188598632	0.013168109130859374	0.08499415893554688	2.227783203125	-3.662109375	-1.0223388671875	9.779116680908203	0.5111620544433594	0.1927332336425781	0.461578369140625	-5.157470703125	-3.314971923828125	9.97783541870117	0.38367081604003905	-0.1945288848876953	2.67791748046875	-4.7607421875	-1.781463623046875	
161	0.644	0.0	0.0	0.0	0.0	0.006	0.003	0.003	0.003	9.866505041503906	0.01915361328125	0.07841010437011718	2.384185791015625	-3.7841796875	-0.949859619140625	9.779116680908203	0.5351040710449219	0.1801636749267578	0.217437744140625	-4.81414794921875	-3.360748291015625	9.981426721191406	0.3968389251708984	-0.19033903198242186	2.475738525390625	-4.76837158203125	-1.979827880859375	
162	0.648	0.0	0.0	0.0	0.0	0.003	0.003	0.003	0.006	9.86411083984375	0.03950432739257812	0.06045359191894531	2.506256103515625	-3.66973876953125	-0.8697509765625	9.775525378417969	0.5374982727050781	0.17597382202148437	0.324249267578125	-4.8370361328125	-3.31878662109375	9.975441217041014	0.412401235961914	-0.20231004028320312	2.658843994140625	-4.497528076171875	-1.804351806640625	
163	0.652	0.0	0.0	0.0	0.0	0.006	0.003	0.006	0.003	9.859920986938477	0.05805939025878906	0.06464344482421874	2.483367919921875	-3.726959228515625	-0.946044921875	9.76235726928711	0.5674257934570313	0.17956512451171874	0.457763671875	-4.970550537109375	-3.520965576171875	9.96586441040039	0.43933600463867184	-0.19153613281249998	2.704620361328125	-4.66156005859375	-1.750946044921875	
164	0.656	0.0	0.0	0.0	0.0	0.003	0.003	0.006	0.009000000000000001	9.859322436523437	0.07601590270996093	0.05566518859863281	2.643585205078125	-3.814697265625	-0.926971435546875	9.76774422302246	0.5883750579833984	0.19632453613281248	0.560760498046875	-4.87518310546875	-3.22723388671875	9.974244116210937	0.45549686584472654	-0.18255787658691405	2.79998779296875	-4.7454833984375	-1.796722412109375	
165	0.66	0.0	0.0	0.0	0.0	0.003	0.003	0.003	0.0	9.862315188598632	0.10175357055664062	0.05805939025878906	2.40325927734375	-3.73077392578125	-0.789642333984375	9.770736975097655	0.5979518646240234	0.18555062866210936	0.5645751953125	-4.993438720703125	-3.3111572265625	9.979631069946288	0.46627077331542965	-0.18255787658691405	2.880096435546875	-4.817962646484375	-1.68609619140625	
166	0.664	0.0	0.0	0.0	0.0	0.0	0.006	0.006	0.003	9.865307940673828	0.13407529296874998	0.05805939025878906	2.353668212890625	-3.92913818359375	-1.041412353515625	9.770736975097655	0.6272808349609375	0.18435352783203124	0.6256103515625	-5.14984130859375	-3.360748291015625	9.976638317871092	0.5009866973876953	-0.17357962036132812	2.86102294921875	-4.734039306640625	-1.804351806640625	
167	0.668	0.0	0.0	0.0	0.0	0.003	0.006	0.006	0.003	9.875483297729492	0.1562216583251953	0.05027823486328125	2.696990966796875	-3.704071044921875	-0.92315673828125	9.771335525512695	0.6536170532226562	0.17956512451171874	0.77056884765625	-5.100250244140625	-3.45611572265625	9.961076007080077	0.5434837768554687	-0.17956512451171874	2.788543701171875	-4.8828125	-1.758575439453125	
168	0.672	0.0	0.0	0.0	0.0	0.003	0.003	0.006	0.006	9.871293444824218	0.17597382202148437	0.04548983154296875	2.445220947265625	-3.566741943359375	-0.77056884765625	9.770736975097655	0.6655880615234374	0.18614917907714842	0.530242919921875	-5.153656005859375	-3.2958984375	9.962273107910155	0.5339069702148437	-0.17836802368164062	2.758026123046875	-4.863739013671875	-1.7547607421875	
169	0.676	0.0	0.0	0.0	0.0	0.003	0.006	0.003	0.003	9.86291373901367	0.17836802368164062	0.04249707946777344	2.52532958984375	-3.65447998046875	-1.068115234375	9.779116680908203	0.6757634185791015	0.1867477294921875	0.629425048828125	-5.054473876953125	-3.528594970703125	9.975441217041014	0.5482721801757812	-0.19991583862304688	2.76947021484375	-4.730224609375	-2.11334228515625	
170	0.68	0.0	0.0	0.0	0.0	0.006	0.006	0.003	0.003	9.862315188598632	0.2059013427734375	0.05686228942871093	2.47955322265625	-3.643035888671875	-0.86212158203125	9.764751470947266	0.709880792236328	0.1801636749267578	0.682830810546875	-4.99725341796875	-3.101348876953125	9.968258612060547	0.5722141967773438	-0.2166752502441406	2.716064453125	-4.680633544921875	-1.739501953125	
171	0.684	0.0	0.0	0.0	0.0	0.006	0.003	0.006	0.006	9.858723886108399	0.21128829650878905	0.05686228942871093	2.52532958984375	-3.543853759765625	-0.774383544921875	9.760561618041992	0.7248445526123046	0.1693897674560547	0.347137451171875	-4.94384765625	-3.2958984375	9.95987890625	0.5847837554931641	-0.22206220397949217	2.7923583984375	-4.611968994140625	-1.922607421875	
172	0.6880000000000001	0.0	0.0	0.0	0.0	0.006	0.006	0.006	0.006	9.866505041503906	0.21188684692382811	0.051475335693359374	2.5634765625	-3.79180908203125	-1.04522705078125	9.767145672607422	0.7158662963867187	0.17896657409667968	0.614166259765625	-5.21087646484375	-3.21197509765625	9.975441217041014	0.5865794067382812	-0.23403321228027343	2.58636474609375	-4.6234130859375	-1.64794921875	
173	0.6920000000000001	0.0	0.0	0.0	0.0	0.006	0.006	0.006	0.006	9.866505041503906	0.21727380065917967	0.05686228942871093	2.605438232421875	-3.696441650390625	-1.125335693359375	9.767145672607422	0.7146691955566405	0.1657984649658203	0.743865966796875	-5.24139404296875	-3.429412841796875	9.97783541870117	0.5787982513427734	-0.2346317626953125	2.597808837890625	-4.58526611328125	-1.678466796875	
174	0.6960000000000001	0.0	0.0	0.0	0.0	0.003	0.006	0.003	0.003	9.86351228942871	0.21727380065917967	0.04668693237304687	2.529144287109375	-3.696441650390625	-0.90789794921875	9.771934075927733	0.7188590484619141	0.16519991455078123	0.415802001953125	-5.161285400390625	-3.448486328125	9.961674557495117	0.584185205078125	-0.23044190979003906	2.689361572265625	-4.749298095703125	-1.926422119140625	
175	0.7000000000000001	0.0	0.0	0.0	0.0	0.006	0.003	0.006	0.006	9.8694977935791	0.20350714111328125	0.054468087768554684	2.429962158203125	-3.570556640625	-0.881195068359375	9.773729727172851	0.7074865905761718	0.16759411621093748	0.507354736328125	-5.168914794921875	-3.421783447265625	9.956287603759765	0.5889736083984375	-0.23104046020507812	2.758026123046875	-4.871368408203125	-1.773834228515625	
176	0.704	0.0	0.0	0.0	0.0	0.003	0.003	0.006	0.006	9.874286196899414	0.19931728820800781	0.06584054565429687	2.460479736328125	-3.68499755859375	-0.858306884765625	9.759364517211914	0.6973112335205077	0.17597382202148437	0.446319580078125	-5.084991455078125	-3.23486328125	9.958681805419921	0.565630142211914	-0.22505495605468748	2.64739990234375	-4.5013427734375	-1.91497802734375	
177	0.708	0.0	0.0	0.0	0.0	0.006	0.006	0.006	0.003	9.871891995239258	0.18315642700195311	0.0718260498046875	2.674102783203125	-3.8909912109375	-0.7171630859375	9.76175871887207	0.6829460235595702	0.17896657409667968	0.87738037109375	-5.218505859375	-3.467559814453125	9.97783541870117	0.5470750793457031	-0.2136824981689453	2.857208251953125	-4.84466552734375	-1.74713134765625	
178	0.712	0.0	0.0	0.0	0.0	0.003	0.003	0.003	0.003	9.868300692749022	0.15263035583496093	0.061650692749023434	2.399444580078125	-4.001617431640625	-0.9613037109375	9.77432827758789	0.6512228515624999	0.18076222534179687	0.492095947265625	-5.16510009765625	-3.398895263671875	9.980229620361328	0.5165490081787109	-0.19333178405761717	2.468109130859375	-4.638671875	-1.819610595703125	
179	0.716	0.0	0.0	0.0	0.0	0.009000000000000001	0.006	0.006	0.003	9.87727894897461	0.1322796417236328	0.07003039855957031	2.353668212890625	-3.72314453125	-0.63323974609375	9.775525378417969	0.6272808349609375	0.19393033447265623	0.3204345703125	-4.993438720703125	-3.4637451171875	9.97903251953125	0.5009866973876953	-0.17776947326660156	2.643585205078125	-4.55474853515625	-1.796722412109375	
180	0.72	0.0	0.0	0.0	0.0	0.003	0.003	0.003	0.006	9.87608184814453	0.10414777221679687	0.07601590270996093	2.567291259765625	-3.8909912109375	-0.850677490234375	9.773131176757811	0.6039373687744141	0.20171148986816406	0.7476806640625	-5.405426025390625	-3.345489501953125	9.965265859985351	0.47644613037109373	-0.1801636749267578	2.605438232421875	-4.665374755859375	-1.720428466796875	
181	0.724	0.0	0.0	0.0	0.0	0.003	0.003	0.006	0.003	9.868899243164062	0.0796072052001953	0.076614453125	2.346038818359375	-3.9520263671875	-0.579833984375	9.759963067626952	0.5692214447021484	0.22206220397949217	0.377655029296875	-4.69207763671875	-3.185272216796875	9.974244116210937	0.44891281127929683	-0.15981296081542967	2.765655517578125	-4.657745361328125	-1.743316650390625	
182	0.728	0.0	0.0	0.0	0.0	0.003	0.006	0.003	0.003	9.86291373901367	0.05027823486328125	0.07302315063476562	2.536773681640625	-3.818511962890625	-0.885009765625	9.7683427734375	0.5404910247802734	0.21009119567871093	0.4730224609375	-4.90570068359375	-3.25775146484375	9.97903251953125	0.4112041351318359	-0.1693897674560547	2.74658203125	-4.680633544921875	-1.67083740234375	
183	0.732	0.0	0.0	0.0	0.0	0.0	0.003	0.006	0.003	9.85692823486328	0.020350714111328123	0.08319850769042968	2.593994140625	-3.662109375	-0.797271728515625	9.779116680908203	0.5255272644042969	0.2166752502441406	0.640869140625	-5.062103271484375	-3.2958984375	9.97783541870117	0.39803602600097654	-0.1580173095703125	2.704620361328125	-4.482269287109375	-1.800537109375	
184	0.736	0.0	0.0	0.0	0.0	0.003	0.003	0.003	0.003	9.866505041503906	-0.011971008300781249	0.07062894897460938	2.4566650390625	-3.7689208984375	-0.70953369140625	9.771934075927733	0.49799394531249996	0.21248539733886718	0.789642333984375	-5.27191162109375	-3.265380859375	9.97184991455078	0.37768531188964843	-0.15442600708007811	2.8076171875	-4.7454833984375	-1.7242431640625	
185	0.74	0.0	0.0	0.0	0.0	0.006	0.006	0.003	0.006	9.872490545654296	-0.025139117431640625	0.06464344482421874	2.3956298828125	-3.35693359375	-0.827789306640625	9.781510882568359	0.48542438659667964	0.20829554443359374	0.9002685546875	-4.98199462890625	-3.360748291015625	9.974842666625976	0.36750995483398435	-0.1592144104003906	2.597808837890625	-4.772186279296875	-1.8463134765625	
186	0.744	0.0	0.0	0.0	0.0	0.006	0.003	0.006	0.006	9.865906491088866	-0.040102877807617184	0.07242460021972656	2.593994140625	-3.74603271484375	-0.865936279296875	9.77492682800293	0.46627077331542965	0.20470424194335937	0.713348388671875	-5.2642822265625	-3.22723388671875	9.986215124511718	0.33578678283691404	-0.1693897674560547	2.918243408203125	-4.7454833984375	-1.880645751953125	
187	0.748	0.0	0.0	0.0	0.0	0.006	0.006	0.003	0.006	9.867103591918944	-0.04668693237304687	0.07781155395507812	2.7313232421875	-3.681182861328125	-0.995635986328125	9.776722479248047	0.4542997650146484	0.20231004028320312	0.667572021484375	-5.1422119140625	-3.299713134765625	9.984419473266602	0.32022447204589843	-0.19632453613281248	2.67791748046875	-4.642486572265625	-1.857757568359375	
188	0.752	0.0	0.0	0.0	0.0	0.003	0.003	0.006	0.006	9.859920986938477	-0.05626373901367187	0.0652419952392578	2.5634765625	-3.833770751953125	-0.690460205078125	9.780912332153319	0.45549686584472654	0.1897404815673828	0.885009765625	-5.161285400390625	-3.337860107421875	9.981426721191406	0.31004911499023435	-0.19512743530273435	2.681732177734375	-4.444122314453125	-1.766204833984375	
189	0.756	0.0	0.0	0.0	0.0	0.006	0.006	0.003	0.006	9.872490545654296	-0.06105214233398437	0.07242460021972656	2.567291259765625	-3.72314453125	-0.751495361328125	9.783306533813477	0.4495113616943359	0.1753752716064453	0.560760498046875	-4.894256591796875	-3.15093994140625	9.983820922851562	0.3082534637451172	-0.20829554443359374	2.73895263671875	-4.7149658203125	-1.71661376953125	
190	0.76	0.0	0.0	0.0	0.0	0.006	0.006	0.006	0.006	9.867103591918944	-0.06823474731445311	0.06105214233398437	2.593994140625	-3.749847412109375	-0.80108642578125	9.781510882568359	0.4375403533935547	0.17118541870117188	0.652313232421875	-5.100250244140625	-3.387451171875	9.976039767456054	0.30406361083984373	-0.2166752502441406	2.8228759765625	-4.749298095703125	-1.781463623046875	
191	0.764	0.0	0.0	0.0	0.0	0.003	0.003	0.006	0.006	9.859322436523437	-0.07242460021972656	0.05327098693847656	2.452850341796875	-3.509521484375	-0.980377197265625	9.782707983398437	0.4327519500732422	0.18136077575683593	0.70953369140625	-5.237579345703125	-3.543853759765625	9.97843396911621	0.30466216125488277	-0.229843359375	2.948760986328125	-4.726409912109375	-1.674652099609375	
192	0.768	0.0	0.0	0.0	0.0	0.006	0.003	0.006	0.003	9.868899243164062	-0.07481880187988281	0.06344634399414062	2.704620361328125	-3.932952880859375	-0.972747802734375	9.791686239624022	0.43035774841308594	0.16280571289062498	0.732421875	-5.279541015625	-3.33404541015625	9.989806427001952	0.2902969512939453	-0.2214636535644531	2.910614013671875	-4.779815673828125	-1.9378662109375	
193	0.772	0.0	0.0	0.0	0.0	0.006	0.003	0.006	0.003	9.867702142333984	-0.07721300354003906	0.06404489440917968	2.3345947265625	-3.6468505859375	-0.762939453125	9.78629928588867	0.4327519500732422	0.1580173095703125	0.431060791015625	-5.04302978515625	-3.2958984375	9.98501802368164	0.29388825378417965	-0.2214636535644531	2.72369384765625	-4.69207763671875	-1.83868408203125	
194	0.776	0.0	0.0	0.0	0.0	0.003	0.006	0.003	0.003	9.868899243164062	-0.054468087768554684	0.0526724365234375	2.414703369140625	-3.8299560546875	-0.7476806640625	9.785700735473633	0.44592005920410155	0.14724340209960937	0.446319580078125	-5.08880615234375	-3.265380859375	9.97843396911621	0.30406361083984373	-0.2316390106201172	2.6092529296875	-4.673004150390625	-1.903533935546875	
195	0.78	0.0	0.0	0.0	0.0	0.003	0.006	0.006	0.006	9.86351228942871	-0.04908113403320312	0.04668693237304687	2.590179443359375	-3.742218017578125	-0.92315673828125	9.777919580078125	0.46208092041015625	0.15981296081542967	0.77056884765625	-5.077362060546875	-3.376007080078125	9.980229620361328	0.32022447204589843	-0.2136824981689453	2.819061279296875	-4.82940673828125	-1.7547607421875	
196	0.784	0.0	0.0	0.0	0.0	0.003	0.006	0.006	0.003	9.866505041503906	-0.040701428222656245	0.04848258361816406	2.4871826171875	-3.60870361328125	-0.827789306640625	9.781510882568359	0.46148236999511716	0.1640028137207031	0.6256103515625	-5.008697509765625	-3.253936767578125	9.98501802368164	0.3274070770263672	-0.2232593048095703	2.69317626953125	-4.66156005859375	-1.51824951171875	
197	0.788	0.0	0.0	0.0	0.0	0.003	0.006	0.006	0.003	9.865307940673828	-0.023343466186523436	0.04369418029785156	2.73895263671875	-3.66973876953125	-0.720977783203125	9.787496386718749	0.4722562774658203	0.16639701538085935	0.255584716796875	-4.871368408203125	-3.223419189453125	9.988609326171874	0.3393780853271484	-0.2136824981689453	2.51007080078125	-4.673004150390625	-1.651763916015625	
198	0.792	0.0	0.0	0.0	0.0	0.006	0.006	0.003	0.003	9.868300692749022	-0.017956512451171875	0.04848258361816406	2.597808837890625	-3.60870361328125	-0.827789306640625	9.782109432983399	0.5021837982177734	0.1610100616455078	0.583648681640625	-4.932403564453125	-3.4027099609375	9.995791931152343	0.36810850524902344	-0.20231004028320312	2.574920654296875	-4.573822021484375	-1.743316650390625	
199	0.796	0.0	0.0	0.0	0.0	0.006	0.006	0.003	0.003	9.87009634399414	0.017357962036132813	0.04908113403320312	2.414703369140625	-3.92913818359375	-0.789642333984375	9.782707983398437	0.5135562561035156	0.17896657409667968	0.6561279296875	-5.16510009765625	-3.536224365234375	9.98501802368164	0.3794809631347656	-0.2059013427734375	2.81524658203125	-4.787445068359375	-1.750946044921875	
200	0.8	0.0	0.0	0.0	0.0	0.003	0.006	0.006	0.006	9.864709390258788	0.03172317199707031	0.047884033203124995	2.361297607421875	-3.688812255859375	-0.720977783203125	9.781510882568359	0.5380968231201172	0.17896657409667968	0.682830810546875	-5.138397216796875	-3.62396240234375	9.974842666625976	0.3950432739257812	-0.20530279235839843	2.60162353515625	-4.779815673828125	-1.64794921875	
201	0.804	0.0	0.0	0.0	0.0	0.006	0.003	0.006	0.003	9.852139831542969	0.051475335693359374	0.0430956298828125	2.552032470703125	-3.849029541015625	-0.9613037109375	9.776722479248047	0.5698199951171875	0.18315642700195311	0.423431396484375	-4.96673583984375	-3.22723388671875	9.980229620361328	0.42377369384765623	-0.20769699401855468	2.597808837890625	-4.604339599609375	-1.956939697265625	
202	0.808	0.0	0.0	0.0	0.0	0.003	0.006	0.006	0.006	9.859322436523437	0.08259995727539061	0.03890577697753906	2.66265869140625	-3.50189208984375	-0.9765625	9.765948571777344	0.5907692596435546	0.17896657409667968	0.659942626953125	-4.9591064453125	-3.322601318359375	9.98501802368164	0.4483142608642578	-0.20769699401855468	2.7313232421875	-4.5166015625	-1.766204833984375	
203	0.812	0.0	0.0	0.0	0.0	0.003	0.003	0.003	0.003	9.85692823486328	0.10714052429199218	0.04548983154296875	2.64739990234375	-3.7078857421875	-0.87738037109375	9.777321029663085	0.6117185241699218	0.17776947326660156	0.827789306640625	-5.084991455078125	-3.353118896484375	9.986813674926758	0.4848258361816406	-0.21009119567871093	2.582550048828125	-4.535675048828125	-1.705169677734375	
204	0.8160000000000001	0.0	0.0	0.0	0.0	0.009000000000000001	0.003	0.003	0.006	9.859322436523437	0.13407529296874998	0.04848258361816406	2.410888671875	-3.742218017578125	-0.87738037109375	9.76774422302246	0.6398503936767578	0.17477672119140625	0.514984130859375	-5.123138427734375	-3.41796875	9.96586441040039	0.5015852478027344	-0.20829554443359374	2.689361572265625	-4.642486572265625	-1.682281494140625	
205	0.8200000000000001	0.0	0.0	0.0	0.0	0.003	0.006	0.003	0.006	9.874286196899414	0.15023615417480468	0.05087678527832031	2.552032470703125	-3.68499755859375	-0.858306884765625	9.770736975097655	0.6416460449218749	0.18435352783203124	0.91552734375	-5.18035888671875	-3.4332275390625	9.969455712890625	0.5195417602539062	-0.2280477081298828	2.674102783203125	-4.718780517578125	-1.83868408203125	
206	0.8240000000000001	0.0	0.0	0.0	0.0	0.003	0.003	0.006	0.006	9.865307940673828	0.20290859069824219	0.05566518859863281	2.712249755859375	-3.76129150390625	-1.079559326171875	9.781510882568359	0.6739677673339843	0.17657237243652343	0.35858154296875	-5.035400390625	-3.5247802734375	9.99220062866211	0.5584475372314452	-0.24839842224121092	2.689361572265625	-4.66156005859375	-1.804351806640625	
207	0.8280000000000001	0.0	0.0	0.0	0.0	0.003	0.003	0.003	0.006	9.85752678527832	0.24061726684570311	0.09217676391601562	2.643585205078125	-3.971099853515625	-0.91552734375	9.752181912231444	0.7386112121582031	0.20829554443359374	0.789642333984375	-4.89044189453125	-3.3111572265625	9.955090502929687	0.6500257507324219	-0.20769699401855468	2.704620361328125	-4.82940673828125	-1.827239990234375	
208	0.8320000000000001	0.0	0.0	0.0	0.0	0.006	0.006	0.006	0.006	9.865307940673828	0.18315642700195311	0.07302315063476562	2.67791748046875	-3.749847412109375	-0.81634521484375	9.791087689208984	0.6105214233398437	0.15741875915527342	0.64849853515625	-5.24139404296875	-3.56292724609375	9.968258612060547	0.47644613037109373	-0.23104046020507812	2.506256103515625	-4.84466552734375	-1.979827880859375	
209	0.836	0.0	0.0	0.0	0.0	0.006	0.003	0.006	0.003	9.86351228942871	0.28909985046386716	0.05805939025878906	2.64739990234375	-3.631591796875	-0.823974609375	9.733626849365233	0.8002619049072265	0.16879121704101563	0.762939453125	-4.962921142578125	-3.330230712890625	9.937133990478515	0.690128628540039	-0.19153613281249998	2.72369384765625	-4.703521728515625	-2.025604248046875	
210	0.84	0.0	0.0	0.0	0.0	0.003	0.006	0.003	0.003	9.847351428222655	0.2088940948486328	0.1005564697265625	3.021240234375	-3.734588623046875	-0.86212158203125	9.788693487548828	0.651821401977539	0.16879121704101563	0.64849853515625	-5.10406494140625	-3.53240966796875	9.964068759155273	0.5704185455322265	-0.19393033447265623	2.7923583984375	-4.8065185546875	-1.67083740234375	
211	0.844	0.0	0.0	0.0	0.0	0.0	0.003	0.006	0.003	9.852738381958007	0.19033903198242186	0.07541735229492187	2.155303955078125	-3.696441650390625	-0.888824462890625	9.74859060974121	0.74699091796875	0.19033903198242186	0.621795654296875	-5.306243896484375	-3.498077392578125	9.926360083007811	0.632667788696289	-0.1592144104003906	2.57110595703125	-4.611968994140625	-1.720428466796875	
212	0.848	0.0	0.0	0.0	0.0	0.0	0.003	0.006	0.003	9.8449572265625	0.18255787658691405	0.12030863342285156	2.735137939453125	-3.864288330078125	-0.705718994140625	9.74799205932617	0.6865373260498047	0.19572598571777342	0.4425048828125	-5.222320556640625	-3.307342529296875	9.97783541870117	0.5147533569335937	-0.18734627990722655	2.613067626953125	-4.512786865234375	-1.964569091796875	
213	0.852	0.0	0.0	0.0	0.0	0.003	0.006	0.006	0.006	9.855731134033203	0.19093758239746092	0.08918401184082031	2.193450927734375	-3.5858154296875	-0.835418701171875	9.734823950195311	0.8002619049072265	0.20769699401855468	0.32806396484375	-5.001068115234375	-3.50189208984375	9.94072529296875	0.6272808349609375	-0.1352723937988281	2.6092529296875	-4.81414794921875	-1.964569091796875	
214	0.856	0.0	0.0	0.0	0.0	0.003	0.006	0.006	0.003	9.83178911743164	0.15442600708007811	0.14125789794921875	2.040863037109375	-3.368377685546875	-0.988006591796875	9.751583361816406	0.6452373474121094	0.21787235107421873	0.576019287109375	-5.146026611328125	-3.1585693359375	9.97783541870117	0.4531026641845703	-0.16160861206054686	2.74658203125	-4.6539306640625	-1.64794921875	
215	0.86	0.0	0.0	0.0	0.0	0.003	0.006	0.006	0.0	9.85692823486328	0.16220716247558592	0.09157821350097656	2.475738525390625	-3.505706787109375	-0.885009765625	9.743203656005859	0.7439981658935546	0.22685060729980466	0.32806396484375	-5.168914794921875	-3.498077392578125	9.931148486328125	0.5404910247802734	-0.09516951599121093	2.468109130859375	-4.581451416015625	-1.865386962890625	
216	0.864	0.0	0.0	0.0	0.0	0.006	0.003	0.003	0.0	9.904812268066406	0.09337386474609374	0.00718260498046875	2.017974853515625	-3.452301025390625	-0.789642333984375	9.751583361816406	0.6572083557128906	0.22206220397949217	0.514984130859375	-5.18798828125	-3.223419189453125	9.91558617553711	0.5596446380615234	-0.020350714111328123	2.361297607421875	-4.505157470703125	-1.712799072265625	
217	0.868	0.0	0.0	0.0	0.0	0.006	0.003	0.003	0.006	9.860519537353515	0.12389993591308593	0.09935936889648436	2.57110595703125	-3.841400146484375	-0.911712646484375	9.759364517211914	0.632667788696289	0.24839842224121092	0.6561279296875	-5.001068115234375	-3.528594970703125	9.913790524291992	0.5069722015380859	-0.08439560852050781	2.61688232421875	-4.53948974609375	-1.93023681640625	
218	0.872	0.0	0.0	0.0	0.0	0.003	0.003	0.003	0.003	9.920374578857421	0.03591302490234375	0.005985504150390624	1.934051513671875	-3.414154052734375	-0.743865966796875	9.74859060974121	0.5817910034179687	0.22505495605468748	0.67138671875	-5.19561767578125	-3.387451171875	9.900023864746093	0.4740519287109375	0.003591302490234375	2.651214599609375	-4.741668701171875	-1.682281494140625	
219	0.876	0.0	0.0	0.0	0.0	0.003	0.006	0.003	0.003	9.889249957275391	0.09696516723632811	0.08020575561523437	3.1280517578125	-4.03594970703125	-0.9613037109375	9.776123928833007	0.6194996795654296	0.2280477081298828	0.75531005859375	-5.0048828125	-3.772735595703125	10.041281762695311	0.34536358947753903	-0.17058686828613281	2.60162353515625	-4.67681884765625	-1.97601318359375	
220	0.88	0.0	0.0	0.0	0.0	0.006	0.006	0.006	0.006	9.89523546142578	-0.011971008300781249	0.0047884033203125	2.12860107421875	-3.34930419921875	-0.873565673828125	9.777321029663085	0.6476315490722656	0.22864625854492185	0.579833984375	-5.21087646484375	-3.284454345703125	9.886257205200195	0.4465186096191406	0.0143652099609375	2.773284912109375	-4.955291748046875	-1.682281494140625	
221	0.884	0.0	0.0	0.0	0.0	0.003	0.006	0.003	0.003	9.885658654785155	0.020949264526367185	0.09217676391601562	3.208160400390625	-4.039764404296875	-0.766754150390625	9.771335525512695	0.5536591339111328	0.22744915771484372	0.591278076171875	-4.940032958984375	-3.513336181640625	10.04906291809082	0.2561795776367187	-0.1879448303222656	2.7313232421875	-4.535675048828125	-1.728057861328125	
222	0.888	0.0	0.0	0.0	0.0	0.003	0.006	0.006	0.003	9.919177478027343	-0.034715924072265626	-0.03651157531738281	2.044677734375	-3.490447998046875	-0.911712646484375	9.781510882568359	0.6362590911865234	0.21428104858398436	0.545501708984375	-5.0201416015625	-3.45611572265625	9.889249957275391	0.4333505004882812	0.002992752075195312	2.777099609375	-4.49371337890625	-1.552581787109375	
223	0.892	0.0	0.0	0.0	0.0	0.003	0.003	0.006	0.006	9.885658654785155	-0.013766659545898436	0.06703764648437499	3.505706787109375	-4.306793212890625	-1.07574462890625	9.846154327392577	0.4052186309814453	0.11552023010253906	0.659942626953125	-5.077362060546875	-3.37982177734375	10.047865817260742	0.21128829650878905	-0.1975216369628906	2.811431884765625	-4.72259521484375	-1.88446044921875	
224	0.896	0.0	0.0	0.0	0.0	0.006	0.006	0.003	0.003	9.789292037963866	0.1514332550048828	0.2424129180908203	2.925872802734375	-3.978729248046875	-0.69427490234375	9.746794958496093	0.5901707092285156	0.1879448303222656	0.63323974609375	-5.123138427734375	-3.22723388671875	9.970054263305663	0.4674678741455078	-0.19153613281249998	2.7313232421875	-4.505157470703125	-1.54876708984375	
225	0.9	0.0	0.0	0.0	0.0	0.003	0.003	0.003	0.006	9.90122096557617	-0.04967968444824218	0.04189852905273437	3.27301025390625	-4.039764404296875	-0.812530517578125	9.855731134033203	0.3752911102294922	0.08559270935058594	0.7171630859375	-4.940032958984375	-3.459930419921875	10.066420880126952	0.18255787658691405	-0.22206220397949217	2.651214599609375	-4.268646240234375	-1.96075439453125	
226	0.904	0.0	0.0	0.0	0.0	0.009000000000000001	0.006	0.003	0.003	9.788094937133788	0.12988544006347655	0.23104046020507812	2.9754638671875	-3.940582275390625	-0.789642333984375	9.727641345214844	0.6063315704345703	0.2693476867675781	0.438690185546875	-5.245208740234375	-3.19671630859375	9.987412225341796	0.4746504791259765	-0.21009119567871093	2.689361572265625	-4.47845458984375	-1.682281494140625	
227	0.908	0.0	0.0	0.0	0.0	0.006	0.003	0.003	0.006	9.906009368896484	-0.09696516723632811	0.028730419921875	1.232147216796875	-3.0059814453125	-0.865936279296875	9.85752678527832	0.33399113159179683	0.08319850769042968	0.37384033203125	-5.0506591796875	-3.63922119140625	10.134655627441406	0.11432312927246092	-0.4273649963378906	2.803802490234375	-4.833221435546875	-1.911163330078125	
228	0.912	0.0	0.0	0.0	0.0	0.003	0.006	0.003	0.003	9.765948571777344	0.13168109130859373	0.24600422058105467	2.895355224609375	-3.849029541015625	-0.705718994140625	9.752780462646484	0.6063315704345703	0.27892449340820313	0.186920166015625	-5.107879638671875	-3.231048583984375	9.988609326171874	0.48662148742675776	-0.24121581726074218	2.956390380859375	-4.7760009765625	-1.46484375	
229	0.916	0.0	0.0	0.0	0.0	0.003	0.006	0.003	0.006	9.906009368896484	-0.30406361083984373	0.016759411621093748	1.308441162109375	-3.25775146484375	-0.965118408203125	9.896432562255859	0.2059013427734375	0.06703764648437499	0.67138671875	-5.069732666015625	-3.2501220703125	10.144232434082031	0.11791443176269531	-0.4471171600341797	2.742767333984375	-4.63104248046875	-1.720428466796875	
230	0.92	0.0	0.0	0.0	0.0	0.003	0.003	0.003	0.009000000000000001	9.75517466430664	0.12389993591308593	0.2609679809570312	3.009796142578125	-4.1961669921875	-0.911712646484375	9.740210903930663	0.5799953521728515	0.30406361083984373	0.70953369140625	-4.955291748046875	-3.265380859375	9.950302099609374	0.536899722290039	-0.21188684692382811	2.78472900390625	-4.627227783203125	-1.949310302734375	
231	0.924	0.0	0.0	0.0	0.0	0.003	0.006	0.003	0.006	9.886257205200195	-0.3136404174804687	0.022744915771484374	1.33514404296875	-3.047943115234375	-0.820159912109375	9.891644158935547	0.2232593048095703	0.06643909606933593	0.6866455078125	-5.04302978515625	-3.37982177734375	10.146626635742187	0.12868833923339842	-0.4531026641845703	2.81524658203125	-4.5166015625	-1.621246337890625	
232	0.928	0.0	0.0	0.0	0.0	0.0	0.006	0.006	0.006	9.868899243164062	-0.008379705810546874	-0.012569558715820313	1.735687255859375	-3.42559814453125	-0.96893310546875	9.74200655517578	0.5758054992675781	0.20769699401855468	0.640869140625	-5.30242919921875	-3.360748291015625	9.944316595458984	0.612915625	-0.2154781494140625	2.773284912109375	-4.82177734375	-1.956939697265625	
233	0.932	0.0	0.0	0.0	0.0	0.006	0.003	0.006	0.006	9.88386300354004	-0.32441432495117184	0.047884033203124995	1.102447509765625	-2.887725830078125	-1.007080078125	9.90241806640625	0.17477672119140625	0.05626373901367187	0.507354736328125	-4.99725341796875	-3.322601318359375	10.174159954833984	0.062249243164062495	-0.5596446380615234	2.66265869140625	-4.67681884765625	-1.617431640625	
234	0.936	0.0	0.0	0.0	0.0	0.003	0.003	0.006	0.006	9.85094273071289	0.013766659545898436	-0.0430956298828125	1.77001953125	-3.021240234375	-1.1444091796875	9.721655841064452	0.5847837554931641	0.22385785522460935	0.423431396484375	-4.718780517578125	-3.528594970703125	9.943119494628906	0.6350619903564453	-0.2088940948486328	2.880096435546875	-4.9591064453125	-1.97601318359375	
235	0.9400000000000001	0.0	0.0	0.0	0.0	0.003	0.003	0.006	0.003	9.883264453125	-0.2885013000488281	0.06464344482421874	1.07574462890625	-2.819061279296875	-0.77056884765625	9.919177478027343	0.22744915771484372	0.022146365356445312	0.5340576171875	-5.062103271484375	-3.0975341796875	9.983820922851562	0.277727392578125	-0.2645592834472656	2.880096435546875	-5.0201416015625	-1.827239990234375	
236	0.9440000000000001	0.0	0.0	0.0	0.0	0.003	0.006	0.003	0.009000000000000001	9.871293444824218	0.040701428222656245	-0.04668693237304687	1.880645751953125	-3.35693359375	-1.1749267578125	9.737816702270507	0.6093243225097655	0.22385785522460935	0.55694580078125	-4.9285888671875	-3.459930419921875	9.9461122467041	0.6584054565429687	-0.22026655273437498	2.960205078125	-4.741668701171875	-1.88446044921875	
237	0.9480000000000001	0.0	0.0	0.0	0.0	0.006	0.006	0.003	0.006	9.797073193359374	0.21428104858398436	0.02633621826171875	3.215789794921875	-3.948211669921875	-0.63323974609375	9.7545761138916	0.40462008056640625	0.16699556579589842	0.576019287109375	-4.924774169921875	-3.116607666015625	9.982623822021484	0.26815058593749996	-0.277727392578125	2.6702880859375	-4.932403564453125	-1.88446044921875	
238	0.9520000000000001	0.0	0.0	0.0	0.0	0.006	0.003	0.003	0.003	9.868899243164062	0.11372457885742186	-0.06284779357910156	1.89208984375	-3.292083740234375	-1.125335693359375	9.720458740234374	0.6841431243896484	0.23882161560058593	0.171661376953125	-4.7149658203125	-3.50189208984375	9.874884747314452	0.44592005920410155	-0.08259995727539061	2.5482177734375	-4.550933837890625	-2.3345947265625	
239	0.9560000000000001	0.0	0.0	0.0	0.0	0.006	0.003	0.006	0.006	9.804854348754882	0.2807201446533203	0.008379705810546874	3.28826904296875	-4.421234130859375	-0.7781982421875	9.76235726928711	0.41898529052734373	0.13766659545898435	0.469207763671875	-5.161285400390625	-3.0670166015625	9.97903251953125	0.31004911499023435	-0.2819172454833984	2.742767333984375	-4.7760009765625	-1.819610595703125	
240	0.96	0.0	0.0	0.0	0.0	0.006	0.006	0.006	0.003	9.877877499389648	0.15562310791015624	-0.07122749938964844	3.692626953125	-3.45611572265625	-1.033782958984375	9.726444244384766	0.6159083770751953	0.15562310791015624	0.60272216796875	-4.749298095703125	-3.692626953125	9.864709390258788	0.44532150878906246	-0.08140285644531249	2.658843994140625	-4.6234130859375	-2.246856689453125	
241	0.964	0.0	0.0	0.0	0.0	0.003	0.003	0.006	0.006	9.811438403320311	0.3327940307617187	-0.00239420166015625	3.42559814453125	-4.150390625	-0.591278076171875	9.767145672607422	0.4447229583740234	0.12569558715820311	0.637054443359375	-5.191802978515625	-3.040313720703125	9.792284790039062	0.46208092041015625	0.037110125732421874	2.64739990234375	-4.856109619140625	-1.323699951171875	
242	0.968	0.0	0.0	0.0	0.0	0.006	0.003	0.006	0.003	9.924564431762695	0.15382745666503905	0.03232172241210937	3.627777099609375	-4.375457763671875	-1.0528564453125	9.712079034423828	0.6673837127685547	0.14724340209960937	0.22125244140625	-4.901885986328125	-3.7689208984375	9.848548529052733	0.49679684448242184	-0.08140285644531249	2.246856689453125	-4.49371337890625	-2.269744873046875	
243	0.972	0.0	0.0	0.0	0.0	0.003	0.006	0.003	0.006	9.808445651245117	0.3537432952880859	-0.0047884033203125	3.376007080078125	-4.352569580078125	-0.942230224609375	9.696516723632811	0.7996633544921875	0.1610100616455078	1.0528564453125	-5.30242919921875	-3.265380859375	9.792284790039062	0.5003881469726562	0.06464344482421874	2.620697021484375	-4.734039306640625	-1.48773193359375	
244	0.976	0.0	0.0	0.0	0.0	0.006	0.006	0.006	0.003	9.916184725952148	0.18435352783203124	0.06344634399414062	3.6163330078125	-4.673004150390625	-0.865936279296875	9.693523971557617	0.6823474731445313	0.16639701538085935	0.40435791015625	-5.001068115234375	-3.543853759765625	9.947907897949218	0.3064578125	-0.31064766540527344	2.643585205078125	-4.32586669921875	-1.911163330078125	
245	0.98	0.0	0.0	0.0	0.0	0.003	0.003	0.006	0.003	9.931148486328125	-0.006584054565429687	0.07242460021972656	1.712799072265625	-3.337860107421875	-0.67901611328125	9.695918173217773	0.814627114868164	0.17776947326660156	0.530242919921875	-5.37872314453125	-3.192901611328125	9.782707983398437	0.5063736511230469	0.086191259765625	2.60162353515625	-4.718780517578125	-1.636505126953125	
246	0.984	0.0	0.0	0.0	0.0	0.003	0.006	0.003	0.006	9.9078050201416	0.19213468322753904	0.105344873046875	3.910064697265625	-4.657745361328125	-1.010894775390625	9.829394915771484	0.6482300994873047	0.0939724151611328	0.77056884765625	-5.001068115234375	-3.856658935546875	10.109516510009765	0.2980781066894531	-0.2902969512939453	2.613067626953125	-4.680633544921875	-2.01416015625	
247	0.988	0.0	0.0	0.0	0.0	0.003	0.003	0.006	0.003	9.920374578857421	0.04908113403320312	0.1274912384033203	1.613616943359375	-3.31878662109375	-0.820159912109375	9.676166009521484	0.8637082489013671	0.20470424194335937	0.5340576171875	-5.2032470703125	-3.2501220703125	9.78031378173828	0.5488707305908203	0.12210428466796874	2.43377685546875	-4.78363037109375	-1.499176025390625	
248	0.992	0.0	0.0	0.0	0.0	0.003	0.006	0.006	0.006	9.888052856445311	0.17597382202148437	0.1484405029296875	3.871917724609375	-4.58526611328125	-0.995635986328125	9.837176071166992	0.6296750366210937	0.10893617553710937	0.499725341796875	-4.85992431640625	-3.65447998046875	10.116699114990233	0.27293898925781246	-0.27892449340820313	2.803802490234375	-4.486083984375	-2.079010009765625	
249	0.996	0.0	0.0	0.0	0.0	0.003	0.003	0.003	0.003	9.905410818481444	0.09576806640624999	0.17896657409667968	1.605987548828125	-3.56292724609375	-0.87738037109375	9.737218151855469	0.9337386474609375	0.3938461730957031	0.652313232421875	-5.031585693359375	-3.429412841796875	10.000580334472655	0.9014169250488281	-0.19692308654785154	2.79998779296875	-4.8370361328125	-1.47247314453125	
250	1.0	0.0	0.0	0.0	0.0	0.003	0.003	0.003	0.006	9.973047015380859	-0.21487959899902342	-0.027533319091796873	1.42669677734375	-3.01361083984375	-0.980377197265625	9.824007962036132	0.6919242797851562	0.12449848632812499	0.74005126953125	-4.840850830078125	-3.74603271484375	10.098742602539062	0.354341845703125	-0.2519897247314453	2.635955810546875	-4.21142578125	-2.079010009765625	
251	1.004	0.0	0.0	0.0	0.0	0.006	0.006	0.006	0.003	9.893439810180663	0.1867477294921875	0.2316390106201172	2.13623046875	-3.53240966796875	-0.644683837890625	9.728838446044922	0.9283516937255859	0.40581718139648437	0.591278076171875	-5.046844482421875	-3.253936767578125	9.999981784057617	0.9002198242187499	-0.18435352783203124	2.704620361328125	-4.82177734375	-1.56402587890625	
252	1.008	0.0	0.0	0.0	0.0	0.003	0.006	0.006	0.006	9.982623822021484	-0.2693476867675781	-0.01915361328125	1.41143798828125	-2.9449462890625	-0.946044921875	9.988609326171874	0.2759317413330078	0.01975216369628906	0.78582763671875	-4.974365234375	-3.345489501953125	10.257957012939453	0.13587094421386717	-0.5374982727050781	3.078460693359375	-4.63104248046875	-1.773834228515625	
253	1.012	0.0	0.0	0.0	0.0	0.006	0.006	0.003	0.006	9.855731134033203	0.26695348510742184	0.2932897033691406	1.21307373046875	-3.276824951171875	-0.583648681640625	9.725247143554688	0.9953893402099608	0.40880993347167965	0.43487548828125	-5.04302978515625	-3.322601318359375	10.001777435302733	0.9546879119873046	-0.17477672119140625	2.880096435546875	-4.7760009765625	-1.468658447265625	
254	1.016	0.0	0.0	0.0	0.0	-0.003	0.003	0.006	0.003	9.956287603759765	-0.28431144714355466	0.0053869537353515625	1.338958740234375	-2.956390380859375	-0.926971435546875	9.983222372436522	0.28371289672851563	0.015562310791015624	0.99945068359375	-4.802703857421875	-3.467559814453125	10.25316860961914	0.12509703674316405	-0.5249287139892578	3.1890869140625	-4.703521728515625	-1.5869140625	
255	1.02	0.0	0.0	0.0	0.0	0.003	0.003	0.006	0.003	9.80066449584961	0.30406361083984373	0.13646949462890623	2.841949462890625	-3.875732421875	-0.9613037109375	9.751583361816406	1.0720037933349609	0.39803602600097654	0.67138671875	-4.993438720703125	-3.3111572265625	9.923965881347655	0.7930792999267577	-0.08738836059570312	2.735137939453125	-4.66156005859375	-1.73187255859375	
256	1.024	0.0	0.0	0.0	0.0	0.006	0.006	0.003	0.003	9.963470208740233	-0.25258827514648435	-0.002992752075195312	0.9918212890625	-2.704620361328125	-1.026153564453125	9.99160207824707	0.3321954803466797	-0.025737667846679687	0.850677490234375	-5.33294677734375	-3.631591796875	10.263942517089843	0.16759411621093748	-0.5237316131591797	3.253936767578125	-4.66156005859375	-1.804351806640625	
257	1.028	0.0	0.0	0.0	0.0	0.003	0.006	0.006	0.003	9.819818109130859	0.2747346405029297	0.08319850769042968	2.6702880859375	-3.88336181640625	-0.823974609375	9.679158761596678	0.7835024932861328	0.4016273284912109	0.518798828125	-5.2642822265625	-3.307342529296875	9.913790524291992	0.7942764007568359	-0.08259995727539061	2.5482177734375	-4.741668701171875	-1.85394287109375	
258	1.032	0.0	0.0	0.0	0.0	0.003	0.003	0.003	0.003	9.83178911743164	-0.4129997863769531	0.21308394775390624	3.45611572265625	-4.2724609375	-0.530242919921875	9.999981784057617	0.2292448089599609	-0.061650692749023434	0.67901611328125	-5.374908447265625	-3.032684326171875	10.262146865844725	0.059256491088867186	-0.55545478515625	3.543853759765625	-4.589080810546875	-1.60980224609375	
259	1.036	0.0	0.0	0.0	0.0	0.006	0.003	0.003	0.003	9.850344180297851	0.24899697265624998	0.03411737365722656	2.69317626953125	-3.742218017578125	-0.759124755859375	9.673173257446289	0.8858546142578124	0.3758896606445312	0.48065185546875	-4.901885986328125	-3.31878662109375	9.93952819213867	0.8038532073974609	-0.11252747802734374	2.811431884765625	-4.802703857421875	-2.197265625	
260	1.04	0.0	0.0	0.0	0.0	0.003	0.006	0.006	0.006	9.827000714111328	0.09636661682128905	0.20290859069824219	3.5552978515625	-4.32586669921875	-0.720977783203125	9.828197814941406	0.2932897033691406	0.16041151123046873	0.507354736328125	-5.115509033203125	-3.139495849609375	9.957484704589843	0.20949264526367187	-0.17417817077636719	2.58636474609375	-4.9285888671875	-1.79290771484375	
261	1.044	0.0	0.0	0.0	0.0	0.006	0.006	0.003	0.006	9.853336932373047	0.20829554443359374	-0.006584054565429687	2.43377685546875	-3.726959228515625	-0.957489013671875	9.657012396240233	0.8481459381103515	0.3705027069091797	0.499725341796875	-4.779815673828125	-3.063201904296875	9.910797772216796	0.7583633758544921	-0.11432312927246092	2.70843505859375	-4.772186279296875	-1.74713134765625	
262	1.048	0.0	0.0	0.0	0.0	0.006	0.003	0.006	0.003	9.828796365356444	0.08918401184082031	0.17776947326660156	3.8299560546875	-4.306793212890625	-0.446319580078125	9.8694977935791	0.25438392639160157	0.11731588134765625	0.46539306640625	-4.98199462890625	-3.39508056640625	9.97184991455078	0.23343466186523437	-0.22086510314941404	2.582550048828125	-5.054473876953125	-1.728057861328125	
263	1.052	0.0	0.0	0.0	0.0	0.003	0.003	0.006	0.006	9.841365924072266	0.06763619689941405	0.04548983154296875	3.509521484375	-4.199981689453125	-1.0986328125	9.63366893005371	0.7044938385009765	0.23702596435546874	0.28228759765625	-5.01251220703125	-3.509521484375	9.823409411621093	0.3848679168701172	-0.07302315063476562	2.498626708984375	-4.497528076171875	-2.28118896484375	
264	1.056	0.0	0.0	0.0	0.0	0.006	0.003	0.006	0.006	9.822212310791015	0.13407529296874998	0.18375497741699218	3.444671630859375	-4.161834716796875	-0.583648681640625	9.843760125732421	0.38845921936035155	0.12330138549804687	0.83160400390625	-4.81414794921875	-3.292083740234375	9.950900650024414	0.24301146850585936	-0.18914193115234373	2.61688232421875	-5.02777099609375	-1.7852783203125	
265	1.06	0.0	0.0	0.0	0.0	0.006	0.006	0.003	0.003	9.87069489440918	0.076614453125	0.044891281127929686	3.505706787109375	-4.35638427734375	-1.02996826171875	9.643844287109374	0.546476528930664	0.25258827514648435	0.06866455078125	-4.970550537109375	-3.42559814453125	9.804854348754882	0.32620997619628905	-0.06045359191894531	2.529144287109375	-4.703521728515625	-2.223968505859375	
266	1.064	0.0	0.0	0.0	0.0	0.003	0.006	0.003	0.006	9.816825357055663	0.143652099609375	0.12988544006347655	2.93731689453125	-4.41741943359375	-0.54931640625	9.688137017822266	0.3758896606445312	0.12689268798828124	0.45013427734375	-5.43975830078125	-3.47900390625	9.771335525512695	0.4560954162597656	0.08200140686035155	2.5787353515625	-4.69207763671875	-1.53350830078125	
267	1.068	0.0	0.0	0.0	0.0	0.003	0.006	0.006	0.003	9.861716638183593	0.1693897674560547	0.05626373901367187	4.38690185546875	-4.638671875	-1.50299072265625	9.642647186279296	0.4159925384521484	0.24600422058105467	0.06103515625	-5.0048828125	-3.452301025390625	9.809044201660155	0.2166752502441406	-0.047884033203124995	2.2430419921875	-4.46319580078125	-2.269744873046875	
268	1.072	0.0	0.0	0.0	0.0	0.003	0.003	0.003	0.003	9.930549935913085	0.047285482788085934	-0.16699556579589842	2.323150634765625	-3.60870361328125	-0.8697509765625	9.680954412841796	0.47165772705078124	0.12629413757324218	0.644683837890625	-5.18798828125	-3.261566162109375	9.764152920532226	0.5578489868164063	0.07900865478515624	2.529144287109375	-4.535675048828125	-1.644134521484375	
269	1.076	0.0	0.0	0.0	0.0	0.006	0.003	0.006	0.003	9.86411083984375	0.06584054565429687	0.06284779357910156	4.405975341796875	-4.78363037109375	-0.988006591796875	9.827000714111328	0.41060558471679687	0.06404489440917968	0.560760498046875	-5.035400390625	-3.326416015625	9.79946739501953	0.08738836059570312	-0.08080430603027343	2.81524658203125	-4.547119140625	-2.368927001953125	
270	1.08	0.0	0.0	0.0	0.0	0.003	0.003	0.006	0.006	9.94671079711914	-0.09457096557617187	-0.12389993591308593	2.582550048828125	-4.0283203125	-0.957489013671875	9.674370358276366	0.5141548065185546	0.1352723937988281	0.63323974609375	-5.1422119140625	-3.27301025390625	9.782707983398437	0.6979097839355468	0.020350714111328123	2.777099609375	-4.7454833984375	-1.689910888671875	
271	1.084	0.0	0.0	0.0	0.0	0.003	0.003	0.006	0.003	9.86411083984375	0.22505495605468748	0.10474632263183593	2.9144287109375	-4.055023193359375	-1.285552978515625	9.811438403320311	0.3896563201904297	0.12150573425292968	0.32806396484375	-4.84466552734375	-3.47900390625	10.17655415649414	0.08080430603027343	-0.41539398803710936	2.712249755859375	-4.302978515625	-1.60980224609375	
272	1.088	0.0	0.0	0.0	0.0	0.003	0.006	0.006	0.006	9.941323843383788	0.086191259765625	-0.047285482788085934	2.941131591796875	-4.093170166015625	-0.79345703125	9.801861596679688	0.526125814819336	0.24779987182617186	0.316619873046875	-5.31005859375	-3.2958984375	9.777919580078125	0.6488286499023437	0.022146365356445312	2.437591552734375	-4.57000732421875	-1.7547607421875	
273	1.092	0.0	0.0	0.0	0.0	0.003	0.003	0.003	0.003	9.919177478027343	-0.38845921936035155	-0.08439560852050781	2.78472900390625	-3.940582275390625	-1.125335693359375	9.80006594543457	0.5057751007080078	0.09217676391601562	0.457763671875	-4.5623779296875	-3.35693359375	10.16338604736328	0.2154781494140625	-0.4321533996582031	2.93731689453125	-4.505157470703125	-1.468658447265625	
274	1.096	0.0	0.0	0.0	0.0	0.006	0.003	0.003	0.006	9.94671079711914	0.17776947326660156	-0.017956512451171875	3.482818603515625	-4.24957275390625	-0.77056884765625	9.808445651245117	0.4955997436523437	0.23822306518554687	0.553131103515625	-5.367279052734375	-3.314971923828125	10.073004934692381	0.48662148742675776	-0.3459621398925781	2.605438232421875	-4.638671875	-2.08282470703125	
275	1.1	0.0	0.0	0.0	0.0	0.003	0.006	0.006	0.003	9.891045608520507	-0.3920505218505859	-0.05327098693847656	2.51007080078125	-3.70025634765625	-1.125335693359375	9.6779616607666	0.5536591339111328	-0.14305354919433594	0.99945068359375	-4.89044189453125	-3.192901611328125	10.142436782836914	0.2885013000488281	-0.43634325256347656	2.971649169921875	-4.650115966796875	-1.38092041015625	
276	1.104	0.0	0.0	0.0	0.0	0.003	0.006	0.003	0.003	9.69771382446289	0.29448680419921874	0.277727392578125	1.9989013671875	-3.360748291015625	-0.583648681640625	9.807847100830077	0.489015689086914	0.2442085693359375	0.17547607421875	-5.161285400390625	-3.34930419921875	10.046070166015625	0.4584896179199218	-0.3489548919677734	3.070831298828125	-4.825592041015625	-1.922607421875	
277	1.108	0.0	0.0	0.0	0.0	0.003	0.003	0.003	0.006	9.950900650024414	-0.2136824981689453	-0.08738836059570312	3.08990478515625	-4.123687744140625	-0.946044921875	10.024522351074218	0.6410474945068358	-0.16699556579589842	1.094818115234375	-4.913330078125	-3.330230712890625	10.290278735351562	0.5674257934570313	-0.6446387969970703	3.143310546875	-4.840850830078125	-1.682281494140625	
278	1.112	0.0	0.0	0.0	0.0	0.003	0.003	0.003	0.006	9.718064538574218	0.20231004028320312	0.23822306518554687	2.69317626953125	-3.7841796875	-0.888824462890625	9.805452899169921	0.5398924743652344	0.26695348510742184	0.415802001953125	-4.886627197265625	-3.22723388671875	10.036493359375	0.4495113616943359	-0.2807201446533203	2.742767333984375	-4.90570068359375	-1.827239990234375	
279	1.116	0.0	0.0	0.0	0.0	0.006	0.003	0.003	0.006	9.94671079711914	-0.1406593475341797	-0.023343466186523436	3.231048583984375	-4.24957275390625	-0.789642333984375	9.975441217041014	0.6296750366210937	-0.0987608184814453	1.033782958984375	-4.924774169921875	-3.314971923828125	10.231620794677733	0.5871779571533203	-0.5488707305908203	3.082275390625	-4.8065185546875	-1.53350830078125	
280	1.12	0.0	0.0	0.0	0.0	0.006	0.003	0.006	0.006	9.701903677368163	0.2813186950683594	0.2154781494140625	3.467559814453125	-4.2572021484375	-0.7476806640625	9.62109937133789	0.6679822631835937	0.43514615173339843	0.3662109375	-5.229949951171875	-3.41033935546875	10.031704956054687	0.4417302062988281	-0.25797522888183594	2.838134765625	-4.67681884765625	-1.922607421875	
281	1.124	0.0	0.0	0.0	0.0	0.006	0.003	0.003	0.006	9.847351428222655	-0.008978256225585938	0.13108254089355467	0.431060791015625	-2.506256103515625	-1.064300537109375	9.991003527832031	0.5524620330810547	-0.10773907470703124	0.9613037109375	-5.100250244140625	-3.22723388671875	10.243591802978514	0.5297171173095703	-0.5009866973876953	2.872467041015625	-4.8065185546875	-1.51824951171875	
282	1.1280000000000001	0.0	0.0	0.0	0.0	0.003	0.003	0.006	0.009000000000000001	9.670180505371093	0.25737667846679685	0.26755203552246093	3.681182861328125	-4.3182373046875	-0.713348388671875	9.586383447265625	0.7152677459716796	0.46627077331542965	0.308990478515625	-5.222320556640625	-3.2958984375	9.892841259765625	0.30705636291503907	-0.025139117431640625	2.811431884765625	-4.70733642578125	-2.147674560546875	
283	1.1320000000000001	0.0	0.0	0.0	0.0	0.003	0.003	0.006	0.003	9.849147079467773	0.016160861206054686	0.1484405029296875	0.52642822265625	-2.529144287109375	-1.270294189453125	9.897629663085937	0.5728127471923827	0.03232172241210937	0.80108642578125	-5.06591796875	-3.35693359375	10.244190353393554	0.565630142211914	-0.4830301849365234	3.063201904296875	-4.985809326171875	-1.373291015625	
284	1.1360000000000001	0.0	0.0	0.0	0.0	0.006	0.003	0.006	0.003	9.649829791259766	0.21128829650878905	0.2825157958984375	0.83160400390625	-2.468109130859375	-1.110076904296875	9.599551556396484	0.7176619476318359	0.5219359619140624	0.2899169921875	-5.199432373046875	-3.1890869140625	9.9215716796875	0.29927520751953124	-0.010175357055664061	2.613067626953125	-4.85992431640625	-2.124786376953125	
285	1.1400000000000001	0.0	0.0	0.0	0.0	0.003	0.006	0.006	0.006	9.821015209960937	-0.06105214233398437	0.17298106994628906	-0.3204345703125	-1.91497802734375	-1.007080078125	9.909600671386718	0.5542576843261718	0.03890577697753906	0.823974609375	-5.08880615234375	-3.41796875	9.926958633422851	0.6290764862060546	-0.07601590270996093	2.407073974609375	-4.82940673828125	-1.922607421875	
286	1.1440000000000001	0.0	0.0	0.0	0.0	0.006	0.006	0.003	0.003	9.816825357055663	0.03890577697753906	0.07302315063476562	0.78582763671875	-2.582550048828125	-1.22833251953125	9.585186346435547	0.6763619689941406	0.46686932373046874	0.0152587890625	-4.894256591796875	-3.719329833984375	9.846154327392577	0.34656069030761716	0.028730419921875	2.773284912109375	-4.657745361328125	-2.040863037109375	
287	1.1480000000000001	0.0	0.0	0.0	0.0	0.003	0.003	0.003	0.006	9.822212310791015	-0.01915361328125	0.1292868896484375	-0.232696533203125	-2.09808349609375	-1.087188720703125	9.931148486328125	0.5722141967773438	0.028730419921875	1.007080078125	-4.741668701171875	-3.34930419921875	9.97184991455078	0.6817489227294922	-0.16699556579589842	2.422332763671875	-4.909515380859375	-1.8768310546875	
288	1.1520000000000001	0.0	0.0	0.0	0.0	0.003	0.006	0.006	0.006	9.813832604980469	0.04848258361816406	0.06703764648437499	0.885009765625	-2.2430419921875	-1.194000244140625	9.592967501831055	0.6769605194091797	0.4578910675048828	0.133514404296875	-4.718780517578125	-3.89862060546875	9.828197814941406	0.28012159423828126	-0.10654197387695312	2.490997314453125	-4.547119140625	-1.926422119140625	
289	1.156	0.0	0.0	0.0	0.0	0.006	0.006	0.003	0.003	9.84435867614746	0.3274070770263672	0.010175357055664061	2.2430419921875	-3.50189208984375	-1.132965087890625	9.666589202880859	0.5704185455322265	0.17896657409667968	0.720977783203125	-5.168914794921875	-3.246307373046875	9.92217023010254	0.6865373260498047	-0.19393033447265623	2.750396728515625	-5.16510009765625	-1.880645751953125	
290	1.16	0.0	0.0	0.0	0.0	0.006	0.003	0.006	0.006	9.82460651245117	0.029328970336914062	0.022146365356445312	0.614166259765625	-2.407073974609375	-1.06048583984375	9.626486325073241	0.6865373260498047	0.4381389038085937	0.2899169921875	-4.756927490234375	-3.74603271484375	9.852139831542969	0.3447650390625	-0.20290859069824219	2.593994140625	-4.486083984375	-1.6632080078125	
291	1.164	0.0	0.0	0.0	0.0	0.003	0.006	0.006	0.003	9.892841259765625	0.3226186737060547	-0.06584054565429687	2.468109130859375	-3.719329833984375	-0.919342041015625	9.718663088989258	0.5626373901367188	0.16041151123046873	0.736236572265625	-5.11932373046875	-3.284454345703125	10.031704956054687	0.6967126831054687	-0.3064578125	2.460479736328125	-4.5166015625	-1.85394287109375	
292	1.168	0.0	0.0	0.0	0.0	0.006	0.006	0.006	0.003	9.79348189086914	0.030526071166992186	0.05686228942871093	0.72479248046875	-2.513885498046875	-1.209259033203125	9.727641345214844	0.5847837554931641	0.15861585998535155	0.4119873046875	-5.054473876953125	-3.437042236328125	9.819818109130859	0.316034619140625	-0.1352723937988281	2.9144287109375	-4.5928955078125	-1.861572265625	
293	1.172	0.0	0.0	0.0	0.0	0.003	0.006	1.08	4.6080000000000005	9.880870251464843	0.3286041778564453	-0.04668693237304687	2.55584716796875	-3.73077392578125	-0.820159912109375	9.675567459106444	0.6111199737548828	0.17058686828613281	0.576019287109375	-5.146026611328125	-3.154754638671875	9.739612353515625	0.5776011505126952	0.17357962036132812	2.407073974609375	-4.638671875	-1.811981201171875	
294	1.176	0.0	0.0	0.0	0.0	4.626	4.65	4.65	4.6080000000000005	9.980229620361328	0.20051438903808594	-0.04189852905273437	4.96673583984375	-5.428314208984375	-0.701904296875	9.781510882568359	0.5392939239501953	0.06284779357910156	0.194549560546875	-4.66156005859375	-3.50189208984375	9.868300692749022	0.3094505645751953	-0.2328361114501953	2.7618408203125	-4.61578369140625	-1.76239013671875	
295	1.18	0.0	0.0	0.0	0.0	4.623	4.65	4.6530000000000005	4.617	9.92217023010254	0.2771288421630859	-0.10474632263183593	2.44140625	-3.742218017578125	-0.782012939453125	9.840168823242188	0.6434416961669921	0.09457096557617187	0.560760498046875	-5.31768798828125	-3.269195556640625	9.80665	0.5225345123291015	0.10295067138671875	2.685546875	-4.5928955078125	-1.861572265625	
296	1.184	0.0	0.0	0.0	0.0	4.632	4.647	4.6530000000000005	4.623	9.962273107910155	0.21068974609375	-0.018555062866210937	5.43975830078125	-5.390167236328125	-0.492095947265625	9.694122521972655	0.4842272857666015	0.16998831787109375	0.03814697265625	-4.779815673828125	-3.50189208984375	10.162787496948242	0.4531026641845703	-0.41060558471679687	2.674102783203125	-4.596710205078125	-1.16729736328125	
297	1.188	0.0	0.0	0.0	0.0	4.626	4.6530000000000005	4.656	4.623	9.94072529296875	0.36212300109863277	-0.1466448516845703	5.126953125	-5.63812255859375	-0.682830810546875	9.810839852905273	0.6488286499023437	0.06045359191894531	0.518798828125	-5.252838134765625	-3.177642822265625	9.823409411621093	0.4997895965576172	0.058657940673828124	2.567291259765625	-4.741668701171875	-2.01416015625	
298	1.192	0.0	0.0	0.0	0.0	4.617	4.6530000000000005	4.6530000000000005	4.6290000000000004	10.016142645263672	0.062249243164062495	-0.14305354919433594	5.02777099609375	-5.37872314453125	-0.614166259765625	9.732429748535155	0.5434837768554687	0.13587094421386717	1.262664794921875	-5.3253173828125	-3.292083740234375	10.256759912109374	0.4429273071289062	-0.5446808776855468	2.811431884765625	-4.82177734375	-1.5106201171875	
299	1.196	0.0	0.0	0.0	0.0	4.62	4.6530000000000005	4.65	4.632	9.896432562255859	0.24061726684570311	0.15562310791015624	4.985809326171875	-5.34820556640625	-0.522613525390625	9.791686239624022	0.5345055206298828	0.09277531433105468	0.4425048828125	-5.01251220703125	-3.131866455078125	10.022128149414062	0.3124433166503906	-0.27293898925781246	3.093719482421875	-4.856109619140625	-1.8463134765625	
300	1.2	0.0	0.0	0.0	0.0	4.632	4.656	4.656	4.62	9.97125136413574	0.17118541870117188	-0.09157821350097656	5.56182861328125	-5.664825439453125	-0.568389892578125	10.01075569152832	0.47285482788085936	-0.15981296081542967	1.220703125	-5.062103271484375	-3.314971923828125	10.210671530151366	0.46148236999511716	-0.5333084197998047	3.0059814453125	-4.46319580078125	-1.422882080078125	
301	1.204	0.0	0.0	0.0	0.0	4.6290000000000004	4.656	4.656	4.611	9.917980377197265	0.2950853546142578	0.12569558715820311	5.6304931640625	-5.615234375	-0.507354736328125	9.854534033203125	0.48662148742675776	0.027533319091796873	0.32806396484375	-5.06591796875	-3.131866455078125	10.096348400878906	0.31543606872558594	-0.3345896820068359	2.99835205078125	-4.81414794921875	-1.51824951171875	
302	1.208	0.0	0.0	0.0	0.0	4.632	4.6530000000000005	4.6530000000000005	4.614	10.011952792358398	-0.27174188842773433	0.017956512451171875	2.76947021484375	-4.047393798828125	-1.010894775390625	10.053252770996092	0.4734533782958984	-0.22505495605468748	0.865936279296875	-4.85992431640625	-3.3111572265625	10.265738168334961	0.46148236999511716	-0.5710170959472656	3.01361083984375	-4.85992431640625	-1.758575439453125	
303	1.212	0.0	0.0	0.0	0.0	4.638	4.65	4.6530000000000005	4.623	9.849745629882811	0.08858546142578125	0.19632453613281248	5.184173583984375	-5.374908447265625	-0.35858154296875	9.654618194580078	0.6578069061279297	0.3908534210205078	0.67138671875	-5.2947998046875	-2.960205078125	10.02332525024414	0.30526071166992186	-0.3333925811767578	3.093719482421875	-4.8370361328125	-1.598358154296875	
304	1.216	0.0	0.0	0.0	0.0	4.632	4.656	4.656	4.6290000000000004	10.013149893188476	-0.13287819213867186	-0.00718260498046875	2.422332763671875	-3.73077392578125	-0.762939453125	10.043077413940429	0.49739539489746093	-0.2346317626953125	0.995635986328125	-5.11932373046875	-3.498077392578125	10.203488925170898	0.49739539489746093	-0.3585316986083984	2.910614013671875	-4.718780517578125	-1.33514404296875	
305	1.22	0.0	0.0	0.0	0.0	4.626	4.6530000000000005	4.6530000000000005	4.6290000000000004	9.873687646484374	0.13946224670410157	0.16639701538085935	5.809783935546875	-5.756378173828125	-0.553131103515625	9.710881933593749	0.6218938812255859	0.36152445068359373	0.865936279296875	-5.16510009765625	-2.9144287109375	10.108319409179687	0.31543606872558594	-0.4004302276611328	3.269195556640625	-4.913330078125	-1.678466796875	
306	1.224	0.0	0.0	0.0	0.0	4.62	4.6530000000000005	4.6530000000000005	4.632	10.04247886352539	-0.2771288421630859	-0.09038111267089843	1.522064208984375	-2.99072265625	-0.957489013671875	10.011354241943359	0.47105917663574215	0.029927520751953124	0.965118408203125	-4.840850830078125	-3.28826904296875	10.212467181396484	0.48063598327636714	-0.3315969299316406	2.788543701171875	-4.8828125	-1.674652099609375	
307	1.228	0.0	0.0	0.0	0.0	4.632	4.6530000000000005	4.656	4.617	9.670180505371093	-0.0718260498046875	0.3124433166503906	1.73187255859375	-3.322601318359375	-1.0986328125	9.689334118652344	0.632667788696289	0.32561142578124996	0.843048095703125	-5.37872314453125	-2.90679931640625	9.721655841064452	0.24480711975097655	0.16699556579589842	2.231597900390625	-4.72259521484375	-2.11334228515625	
308	1.232	0.0	0.0	0.0	0.0	4.632	4.6530000000000005	4.656	4.611	10.063428128051758	-0.43454760131835934	-0.1292868896484375	1.239776611328125	-3.36456298828125	-0.91552734375	10.077194787597655	0.46507367248535153	-0.06703764648437499	0.980377197265625	-5.290985107421875	-3.269195556640625	10.283096130371094	0.5027823486328125	-0.42497079467773435	2.8228759765625	-4.833221435546875	-1.880645751953125	
