	time	dac1	dac2	dac3	dac4	adc1.3	adc2.3	adc3.3	adc4.3	imu1accx	imu1accy	imu1accz	imu1gyrox	imu1gyroy	imu1gyroz	imu2accx	imu2accy	imu2accz	imu2gyrox	imu2gyroy	imu2gyroz	imu3accx	imu3accy	imu3accz	imu3gyrox	imu3gyroy	imu3gyroz	log
0	0.0	0.0	0.0	0.0	0.0	0.009000000000000001	0.003	0.006	0.003	9.864709390258788	0.05566518859863281	0.07242460021972656	2.38037109375	-3.77655029296875	-0.946044921875	9.775525378417969	0.5590460876464843	0.17956512451171874	0.7781982421875	-5.306243896484375	-3.459930419921875	9.975441217041014	0.43993455505371093	-0.19871873779296872	2.605438232421875	-4.840850830078125	-1.071929931640625	Estabizou em 5s, 832 rpm
1	0.004	0.0	0.0	0.0	0.0	0.003	0.006	0.006	0.006	9.873687646484374	0.05686228942871093	0.07122749938964844	2.47955322265625	-3.570556640625	-0.885009765625	9.766547122192382	0.5548562347412109	0.17657237243652343	0.64849853515625	-5.16510009765625	-3.452301025390625	9.973047015380859	0.44053310546874996	-0.20231004028320312	2.674102783203125	-4.650115966796875	-1.50299072265625	Started
2	0.008	0.0	0.0	0.0	0.0	0.0	0.003	0.006	0.009000000000000001	9.86411083984375	0.058657940673828124	0.06404489440917968	2.34222412109375	-3.917694091796875	-0.858306884765625	9.779715231323241	0.565031591796875	0.17357962036132812	0.67901611328125	-5.2642822265625	-3.467559814453125	9.973047015380859	0.4369418029785156	-0.21248539733886718	2.57110595703125	-4.5318603515625	-1.682281494140625	IMU1|LSM6DS3|0x6A|I2C-1|±2g (±19,6m/s²)|±125º/s|400Hz
3	0.012	0.0	0.0	0.0	0.0	0.003	0.003	0.003	0.0	9.871293444824218	0.06284779357910156	0.06464344482421874	2.552032470703125	-3.719329833984375	-1.018524169921875	9.776722479248047	0.5644330413818359	0.1771709228515625	0.385284423828125	-4.993438720703125	-3.322601318359375	9.982623822021484	0.43454760131835934	-0.21727380065917967	2.67791748046875	-4.8980712890625	-1.682281494140625	IMU2|LSM6DS3|0x6B|I2C-1|±2g (±19,6m/s²)|±125º/s|400Hz
4	0.016	0.0	0.0	0.0	0.0	0.003	0.003	0.006	0.006	9.867103591918944	0.06404489440917968	0.06045359191894531	2.574920654296875	-3.59344482421875	-0.9002685546875	9.76774422302246	0.5566518859863281	0.17956512451171874	0.522613525390625	-4.7149658203125	-3.314971923828125	9.982623822021484	0.43035774841308594	-0.20290859069824219	2.47955322265625	-4.573822021484375	-1.739501953125	IMU3|LSM6DS3|0x6B|I2C-2|±2g (±19,6m/s²)|±125º/s|400Hz
5	0.02	0.0	0.0	0.0	0.0	0.006	0.003	0.006	0.006	9.87009634399414	0.061650692749023434	0.06703764648437499	2.643585205078125	-3.795623779296875	-0.972747802734375	9.777321029663085	0.5506663818359374	0.18076222534179687	0.60272216796875	-4.940032958984375	-3.4332275390625	9.973047015380859	0.4321533996582031	-0.20649989318847656	2.490997314453125	-4.848480224609375	-1.766204833984375	ADC|ADS1015|0|0|1|0|±6,144 V|2400 SPS
6	0.024	0.0	0.0	0.0	0.0	0.006	0.006	0.006	0.003	9.878476049804688	0.05626373901367187	0.05985504150390625	2.3345947265625	-3.627777099609375	-0.9307861328125	9.7683427734375	0.5530605834960938	0.17597382202148437	0.35858154296875	-5.14984130859375	-3.2501220703125	9.97184991455078	0.4321533996582031	-0.20051438903808594	2.60162353515625	-4.70733642578125	-1.77764892578125	Gen1|Disabled
7	0.028	0.0	0.0	0.0	0.0	0.003	0.003	0.006	0.003	9.868899243164062	0.061650692749023434	0.06045359191894531	2.574920654296875	-3.734588623046875	-0.7476806640625	9.776722479248047	0.5584475372314452	0.17058686828613281	0.324249267578125	-4.1351318359375	-3.437042236328125	9.967660061645507	0.4429273071289062	-0.19632453613281248	2.552032470703125	-4.6844482421875	-1.728057861328125	Gen2|Enabled|Noise|0.0|10.0|1668
8	0.032	0.0	0.0	0.0	0.0	0.003	0.003	0.003	0.003	9.87608184814453	0.06344634399414062	0.047884033203124995	2.407073974609375	-3.51715087890625	-0.911712646484375	9.772532626342773	0.5566518859863281	0.16280571289062498	0.560760498046875	-4.92095947265625	-3.337860107421875	9.982623822021484	0.43454760131835934	-0.19692308654785154	2.44903564453125	-4.82940673828125	-1.80816650390625	Gen3|Enabled|Noise|0.0|10.0|128
9	0.036000000000000004	0.0	0.0	0.0	0.0	0.003	0.006	0.003	0.006	9.868899243164062	0.06105214233398437	0.059256491088867186	2.399444580078125	-3.932952880859375	-0.919342041015625	9.779116680908203	0.5548562347412109	0.1771709228515625	0.736236572265625	-4.932403564453125	-3.261566162109375	9.970652813720703	0.43035774841308594	-0.19632453613281248	2.635955810546875	-4.642486572265625	-1.689910888671875	Gen4|Enabled|Noise|0.0|10.0|128
10	0.04	0.0	0.0	0.0	0.0	0.003	0.006	0.006	0.003	9.868899243164062	0.062249243164062495	0.07362170104980469	2.429962158203125	-3.72314453125	-0.7781982421875	9.769539874267577	0.565031591796875	0.17058686828613281	0.629425048828125	-5.126953125	-3.4332275390625	9.97184991455078	0.430956298828125	-0.20171148986816406	2.666473388671875	-4.93621826171875	-1.70135498046875	Ctrl|Disabled
11	0.044	0.0	0.0	0.0	0.0	0.003	0.006	0.003	0.003	9.861118087768554	0.06703764648437499	0.06703764648437499	2.349853515625	-3.582000732421875	-0.80108642578125	9.779116680908203	0.5698199951171875	0.18136077575683593	0.77056884765625	-5.138397216796875	-3.448486328125	9.976638317871092	0.43634325256347656	-0.20051438903808594	2.582550048828125	-4.543304443359375	-1.773834228515625	
12	0.048	0.0	0.0	0.0	0.0	0.003	0.003	0.003	0.003	9.868899243164062	0.06464344482421874	0.04668693237304687	2.471923828125	-3.60870361328125	-0.7476806640625	9.76774422302246	0.5674257934570313	0.17776947326660156	0.518798828125	-5.054473876953125	-3.387451171875	9.970652813720703	0.44053310546874996	-0.19991583862304688	2.773284912109375	-4.642486572265625	-1.800537109375	
13	0.052000000000000005	0.0	0.0	0.0	0.0	0.006	0.003	0.003	0.006	9.871293444824218	0.06344634399414062	0.055066638183593745	2.529144287109375	-3.77655029296875	-0.682830810546875	9.770138424682617	0.5620388397216797	0.1693897674560547	0.701904296875	-5.51605224609375	-3.482818603515625	9.974842666625976	0.4369418029785156	-0.19572598571777342	2.666473388671875	-4.5928955078125	-1.76239013671875	
14	0.056	0.0	0.0	0.0	0.0	0.003	0.006	0.003	0.006	9.880870251464843	0.06643909606933593	0.05386953735351562	2.490997314453125	-3.749847412109375	-0.9002685546875	9.770736975097655	0.5674257934570313	0.17657237243652343	0.45013427734375	-4.787445068359375	-3.551483154296875	9.97843396911621	0.4423287567138672	-0.1945288848876953	2.735137939453125	-4.810333251953125	-1.67083740234375	
15	0.06	0.0	0.0	0.0	0.0	0.006	0.003	0.003	0.0	9.871891995239258	0.07003039855957031	0.05805939025878906	2.506256103515625	-3.68499755859375	-0.96893310546875	9.777919580078125	0.5776011505126952	0.181959326171875	0.644683837890625	-5.138397216796875	-3.177642822265625	9.97184991455078	0.44412440795898434	-0.1945288848876953	2.655029296875	-4.82940673828125	-1.743316650390625	
16	0.064	0.0	0.0	0.0	0.0	0.009000000000000001	0.006	0.003	0.003	9.867702142333984	0.07781155395507812	0.07062894897460938	2.5482177734375	-3.719329833984375	-0.87738037109375	9.782707983398437	0.5770026000976562	0.18555062866210936	0.7476806640625	-5.168914794921875	-3.299713134765625	9.96586441040039	0.4465186096191406	-0.1975216369628906	2.5177001953125	-4.7454833984375	-1.895904541015625	
17	0.068	0.0	0.0	0.0	0.0	0.003	0.006	0.006	0.006	9.87727894897461	0.08140285644531249	0.06643909606933593	2.643585205078125	-3.8604736328125	-0.90789794921875	9.776722479248047	0.5758054992675781	0.18136077575683593	0.644683837890625	-5.107879638671875	-3.368377685546875	9.969455712890625	0.4423287567138672	-0.19512743530273435	2.666473388671875	-4.642486572265625	-1.68609619140625	
18	0.07200000000000001	0.0	0.0	0.0	0.0	0.006	0.006	0.003	0.003	9.874286196899414	0.07601590270996093	0.07242460021972656	2.51007080078125	-3.726959228515625	-0.92315673828125	9.781510882568359	0.5799953521728515	0.1879448303222656	0.568389892578125	-5.04302978515625	-3.307342529296875	9.973047015380859	0.44053310546874996	-0.19692308654785154	2.544403076171875	-4.695892333984375	-1.89208984375	
19	0.076	0.0	0.0	0.0	0.0	0.003	0.006	0.006	0.003	9.868899243164062	0.07481880187988281	0.06823474731445311	2.532958984375	-3.63922119140625	-0.9002685546875	9.782707983398437	0.5704185455322265	0.19033903198242186	0.568389892578125	-5.157470703125	-3.4637451171875	9.968857162475585	0.4465186096191406	-0.19931728820800781	2.452850341796875	-4.558563232421875	-1.880645751953125	
20	0.08	0.0	0.0	0.0	0.0	0.003	0.006	0.003	0.003	9.873687646484374	0.07721300354003906	0.06883329772949218	2.58636474609375	-3.566741943359375	-0.95367431640625	9.783905084228515	0.5674257934570313	0.19692308654785154	0.396728515625	-5.161285400390625	-3.4027099609375	9.969455712890625	0.45190556335449217	-0.20231004028320312	2.758026123046875	-4.741668701171875	-1.62506103515625	
21	0.084	0.0	0.0	0.0	0.0	0.003	0.006	0.006	0.006	9.87069489440918	0.0718260498046875	0.07422025146484375	2.582550048828125	-3.753662109375	-0.84686279296875	9.78031378173828	0.5787982513427734	0.1945288848876953	0.736236572265625	-5.031585693359375	-3.467559814453125	9.97184991455078	0.45549686584472654	-0.20769699401855468	2.52532958984375	-4.619598388671875	-1.842498779296875	
22	0.088	0.0	0.0	0.0	0.0	0.006	0.006	0.003	0.003	9.858723886108399	0.07003039855957031	0.059256491088867186	2.544403076171875	-3.50189208984375	-1.04522705078125	9.77432827758789	0.5734112976074218	0.1867477294921875	0.732421875	-5.039215087890625	-3.35693359375	9.980229620361328	0.44891281127929683	-0.20290859069824219	2.62451171875	-4.69207763671875	-1.789093017578125	
23	0.092	0.0	0.0	0.0	0.0	0.006	0.003	0.006	0.009000000000000001	9.868300692749022	0.06823474731445311	0.06823474731445311	2.399444580078125	-3.76129150390625	-0.934600830078125	9.782109432983399	0.565031591796875	0.1849520782470703	0.762939453125	-5.191802978515625	-3.528594970703125	9.975441217041014	0.44532150878906246	-0.19393033447265623	2.918243408203125	-4.718780517578125	-1.93023681640625	
24	0.096	0.0	0.0	0.0	0.0	0.006	0.003	0.003	0.006	9.871891995239258	0.06344634399414062	0.06404489440917968	2.60162353515625	-3.871917724609375	-0.77056884765625	9.78031378173828	0.5674257934570313	0.18734627990722655	0.476837158203125	-5.05828857421875	-3.31878662109375	9.974244116210937	0.4531026641845703	-0.1975216369628906	2.49481201171875	-4.7454833984375	-1.73187255859375	
25	0.1	0.0	0.0	0.0	0.0	0.003	0.006	0.006	0.006	9.868300692749022	0.06284779357910156	0.06404489440917968	2.414703369140625	-3.7384033203125	-0.77056884765625	9.782109432983399	0.5662286926269531	0.19333178405761717	0.6866455078125	-4.909515380859375	-3.448486328125	9.968258612060547	0.4435258575439453	-0.18734627990722655	2.57110595703125	-4.7149658203125	-1.636505126953125	
26	0.10400000000000001	0.0	0.0	0.0	0.0	0.006	0.006	0.003	0.003	9.86411083984375	0.061650692749023434	0.0652419952392578	2.590179443359375	-3.753662109375	-0.736236572265625	9.777919580078125	0.5692214447021484	0.19812018737792966	0.66375732421875	-5.046844482421875	-3.23486328125	9.974842666625976	0.44053310546874996	-0.1879448303222656	2.7923583984375	-4.657745361328125	-1.800537109375	
27	0.108	0.0	0.0	0.0	0.0	0.006	0.006	0.006	0.006	9.86411083984375	0.062249243164062495	0.06464344482421874	2.4566650390625	-3.620147705078125	-0.858306884765625	9.782109432983399	0.5584475372314452	0.1801636749267578	0.6256103515625	-5.023956298828125	-3.482818603515625	9.986215124511718	0.43454760131835934	-0.18315642700195311	2.651214599609375	-4.840850830078125	-1.857757568359375	
28	0.112	0.0	0.0	0.0	0.0	0.009000000000000001	0.006	0.003	0.006	9.866505041503906	0.06284779357910156	0.0652419952392578	2.559661865234375	-3.7841796875	-1.06048583984375	9.780912332153319	0.5692214447021484	0.19093758239746092	0.804901123046875	-5.069732666015625	-3.42559814453125	9.969455712890625	0.43933600463867184	-0.19393033447265623	2.513885498046875	-4.375457763671875	-1.811981201171875	
29	0.116	0.0	0.0	0.0	0.0	-0.003	0.003	0.006	0.003	9.873687646484374	0.06464344482421874	0.07122749938964844	2.685546875	-3.71551513671875	-0.732421875	9.7683427734375	0.5674257934570313	0.17477672119140625	0.640869140625	-5.001068115234375	-3.53240966796875	9.97783541870117	0.4429273071289062	-0.19213468322753904	2.643585205078125	-4.673004150390625	-1.995086669921875	
30	0.12	0.0	0.0	0.0	0.0	0.006	0.006	0.006	0.003	9.873687646484374	0.06643909606933593	0.07302315063476562	2.391815185546875	-3.73077392578125	-0.885009765625	9.76774422302246	0.5692214447021484	0.18435352783203124	0.8544921875	-5.218505859375	-3.307342529296875	9.979631069946288	0.4375403533935547	-0.19512743530273435	2.55584716796875	-4.558563232421875	-1.811981201171875	
31	0.124	0.0	0.0	0.0	0.0	0.003	0.006	0.006	0.003	9.865906491088866	0.059256491088867186	0.07122749938964844	2.52532958984375	-3.520965576171875	-0.865936279296875	9.779715231323241	0.565031591796875	0.1867477294921875	0.5645751953125	-4.978179931640625	-3.383636474609375	9.974244116210937	0.42796354675292964	-0.1867477294921875	2.78472900390625	-4.7454833984375	-1.811981201171875	
32	0.128	0.0	0.0	0.0	0.0	0.003	0.006	0.003	0.003	9.8694977935791	0.054468087768554684	0.08020575561523437	2.43377685546875	-3.787994384765625	-0.782012939453125	9.771335525512695	0.5638344909667968	0.18854338073730467	0.652313232421875	-5.130767822265625	-3.41033935546875	9.975441217041014	0.43574470214843747	-0.19931728820800781	2.67791748046875	-4.848480224609375	-1.8157958984375	
33	0.132	0.0	0.0	0.0	0.0	0.003	0.003	0.003	0.003	9.86291373901367	0.06943184814453125	0.07781155395507812	2.5482177734375	-3.658294677734375	-0.904083251953125	9.777919580078125	0.5626373901367188	0.18555062866210936	0.659942626953125	-5.30242919921875	-3.246307373046875	9.974244116210937	0.4375403533935547	-0.201112939453125	2.689361572265625	-4.6844482421875	-1.567840576171875	
34	0.136	0.0	0.0	0.0	0.0	0.006	0.003	0.006	0.003	9.86411083984375	0.061650692749023434	0.0718260498046875	2.37274169921875	-3.8909912109375	-1.07574462890625	9.772532626342773	0.5626373901367188	0.18255787658691405	0.637054443359375	-5.130767822265625	-3.414154052734375	9.973047015380859	0.4267664459228515	-0.2059013427734375	2.61688232421875	-4.596710205078125	-1.598358154296875	
35	0.14	0.0	0.0	0.0	0.0	0.006	0.003	0.006	0.003	9.860519537353515	0.05626373901367187	0.05686228942871093	2.7008056640625	-3.841400146484375	-0.926971435546875	9.779116680908203	0.5686228942871093	0.18255787658691405	0.640869140625	-5.260467529296875	-3.37982177734375	9.976039767456054	0.42975919799804685	-0.19632453613281248	2.62451171875	-4.5928955078125	-1.781463623046875	
36	0.14400000000000002	0.0	0.0	0.0	0.0	0.003	0.006	0.003	0.003	9.861716638183593	0.05386953735351562	0.06703764648437499	2.513885498046875	-3.688812255859375	-0.74005126953125	9.772532626342773	0.5632359405517577	0.18854338073730467	0.6866455078125	-5.062103271484375	-3.314971923828125	9.969455712890625	0.43155484924316406	-0.19512743530273435	2.590179443359375	-4.741668701171875	-1.834869384765625	
37	0.148	0.0	0.0	0.0	0.0	0.006	0.003	0.006	0.006	9.867103591918944	0.05027823486328125	0.05027823486328125	2.460479736328125	-3.814697265625	-0.995635986328125	9.773131176757811	0.5746083984375	0.1879448303222656	0.8087158203125	-5.11932373046875	-3.482818603515625	9.968258612060547	0.430956298828125	-0.19871873779296872	2.5482177734375	-4.512786865234375	-1.6632080078125	
38	0.152	0.0	0.0	0.0	0.0	0.003	0.006	0.003	0.003	9.865307940673828	0.05805939025878906	0.06045359191894531	2.620697021484375	-3.757476806640625	-1.056671142578125	9.770138424682617	0.5590460876464843	0.18614917907714842	0.67138671875	-5.214691162109375	-3.3416748046875	9.974244116210937	0.4339490509033203	-0.19991583862304688	2.64739990234375	-4.63104248046875	-1.74713134765625	
39	0.156	0.0	0.0	0.0	0.0	0.006	0.003	0.006	0.003	9.849745629882811	0.05386953735351562	0.06344634399414062	2.44903564453125	-3.82232666015625	-0.820159912109375	9.771934075927733	0.565031591796875	0.1927332336425781	0.675201416015625	-5.268096923828125	-3.391265869140625	9.976638317871092	0.4285620971679687	-0.1945288848876953	2.590179443359375	-4.619598388671875	-1.922607421875	
40	0.16	0.0	0.0	0.0	0.0	0.003	0.006	0.006	0.006	9.88386300354004	0.051475335693359374	0.06763619689941405	2.349853515625	-3.810882568359375	-0.81634521484375	9.779715231323241	0.5644330413818359	0.18136077575683593	0.415802001953125	-5.08880615234375	-3.520965576171875	9.981426721191406	0.4255693450927734	-0.2041056915283203	2.735137939453125	-4.82177734375	-1.68609619140625	
41	0.164	0.0	0.0	0.0	0.0	0.006	0.006	0.003	0.003	9.874884747314452	0.05805939025878906	0.06584054565429687	2.422332763671875	-3.54766845703125	-0.7171630859375	9.773131176757811	0.5704185455322265	0.19333178405761717	0.7171630859375	-4.993438720703125	-3.391265869140625	9.969455712890625	0.4321533996582031	-0.20051438903808594	2.864837646484375	-4.70733642578125	-1.9073486328125	
42	0.168	0.0	0.0	0.0	0.0	0.009000000000000001	0.003	0.006	0.006	9.866505041503906	0.059256491088867186	0.06823474731445311	2.4871826171875	-3.54766845703125	-0.911712646484375	9.773729727172851	0.565630142211914	0.1897404815673828	0.263214111328125	-5.18798828125	-3.3111572265625	9.97184991455078	0.4375403533935547	-0.1897404815673828	2.765655517578125	-4.76837158203125	-1.800537109375	
43	0.17200000000000001	0.0	0.0	0.0	0.0	0.003	0.006	0.003	0.006	9.886855755615233	0.04548983154296875	0.06763619689941405	2.567291259765625	-3.658294677734375	-0.995635986328125	9.78629928588867	0.5404910247802734	0.1975216369628906	0.6561279296875	-5.07354736328125	-3.47900390625	9.989806427001952	0.4147954376220703	-0.18435352783203124	2.666473388671875	-4.825592041015625	-1.6632080078125	
44	0.176	0.0	0.0	0.0	0.0	0.003	0.006	0.006	0.006	9.890447058105469	0.040102877807617184	0.06643909606933593	2.35748291015625	-3.749847412109375	-0.949859619140625	9.785102185058593	0.5345055206298828	0.18375497741699218	0.392913818359375	-5.01251220703125	-3.2501220703125	9.98561657409668	0.4052186309814453	-0.1879448303222656	2.44903564453125	-4.547119140625	-1.743316650390625	
45	0.18	0.0	0.0	0.0	0.0	0.006	0.006	0.006	0.003	9.847351428222655	0.03172317199707031	0.07601590270996093	2.4871826171875	-3.925323486328125	-0.80108642578125	9.76116016845703	0.5374982727050781	0.20350714111328125	0.736236572265625	-5.344390869140625	-3.414154052734375	9.964068759155273	0.41359833679199215	-0.16340426330566404	2.66265869140625	-4.528045654296875	-1.9683837890625	
46	0.184	0.0	0.0	0.0	0.0	0.003	0.003	0.003	0.003	9.8449572265625	0.017956512451171875	0.06045359191894531	2.6397705078125	-3.665924072265625	-0.942230224609375	9.763554370117188	0.5213374114990235	0.18315642700195311	0.7171630859375	-4.886627197265625	-3.208160400390625	9.973047015380859	0.3908534210205078	-0.18255787658691405	2.803802490234375	-4.467010498046875	-1.861572265625	
47	0.188	0.0	0.0	0.0	0.0	0.003	0.006	0.003	0.006	9.858125335693359	0.025139117431640625	0.04668693237304687	2.498626708984375	-3.536224365234375	-0.888824462890625	9.771934075927733	0.527322915649414	0.17298106994628906	0.820159912109375	-5.023956298828125	-3.505706787109375	9.970054263305663	0.3902548706054687	-0.1945288848876953	2.674102783203125	-4.63104248046875	-1.735687255859375	
48	0.192	0.0	0.0	0.0	0.0	0.003	0.006	0.003	0.003	9.847351428222655	0.07721300354003906	0.06703764648437499	2.6397705078125	-3.94439697265625	-0.87738037109375	9.744999307250977	0.5716156463623047	0.19093758239746092	0.84686279296875	-5.01251220703125	-3.353118896484375	9.94671079711914	0.44412440795898434	-0.18315642700195311	2.70843505859375	-4.67681884765625	-1.827239990234375	
49	0.196	0.0	0.0	0.0	0.0	0.006	0.003	0.003	0.003	9.86291373901367	0.07362170104980469	0.062249243164062495	2.4261474609375	-3.7078857421875	-0.5340576171875	9.769539874267577	0.5728127471923827	0.1753752716064453	0.614166259765625	-4.8980712890625	-3.33404541015625	9.955689053344726	0.4423287567138672	-0.19213468322753904	2.67791748046875	-4.72259521484375	-1.708984375	
50	0.2	0.0	0.0	0.0	0.0	0.003	0.003	0.003	0.003	9.879074600219726	0.06464344482421874	0.04908113403320312	2.532958984375	-3.80706787109375	-0.885009765625	9.797073193359374	0.5548562347412109	0.15382745666503905	0.75531005859375	-4.9285888671875	-3.452301025390625	9.999383233642577	0.421978042602539	-0.24181436767578124	2.62451171875	-4.69207763671875	-1.85394287109375	
51	0.20400000000000001	0.0	0.0	0.0	0.0	0.006	0.003	0.006	0.006	9.880870251464843	0.09995791931152344	0.06584054565429687	2.483367919921875	-3.8299560546875	-0.766754150390625	9.781510882568359	0.6027402679443359	0.17058686828613281	0.732421875	-5.01251220703125	-3.398895263671875	9.991003527832031	0.46806642456054687	-0.2292448089599609	2.704620361328125	-4.84466552734375	-1.865386962890625	
52	0.20800000000000002	0.0	0.0	0.0	0.0	0.003	0.003	0.003	0.006	9.880870251464843	0.11073182678222655	0.07062894897460938	2.513885498046875	-3.88336181640625	-0.919342041015625	9.7683427734375	0.6194996795654296	0.16460136413574217	0.766754150390625	-4.8980712890625	-3.570556640625	9.979631069946288	0.4955997436523437	-0.23403321228027343	2.559661865234375	-4.550933837890625	-1.79290771484375	
53	0.212	0.0	0.0	0.0	0.0	0.003	0.006	0.003	0.006	9.864709390258788	0.07242460021972656	0.047285482788085934	2.399444580078125	-3.80706787109375	-0.888824462890625	9.781510882568359	0.5602431884765625	0.15502455749511718	0.69427490234375	-5.13458251953125	-3.253936767578125	9.988609326171874	0.43933600463867184	-0.24181436767578124	2.70843505859375	-4.5623779296875	-1.708984375	
54	0.216	0.0	0.0	0.0	0.0	0.006	0.003	0.006	0.006	9.85692823486328	0.06584054565429687	0.04249707946777344	2.63214111328125	-4.055023193359375	-0.9765625	9.767145672607422	0.5668272430419922	0.17836802368164062	0.202178955078125	-5.008697509765625	-3.41033935546875	9.976638317871092	0.44053310546874996	-0.2214636535644531	2.50244140625	-4.619598388671875	-1.77001953125	
55	0.22	0.0	0.0	0.0	0.0	0.006	0.006	0.003	0.006	9.841365924072266	0.0987608184814453	0.06823474731445311	2.147674560546875	-3.70025634765625	-0.919342041015625	9.753977563476562	0.603338818359375	0.17118541870117188	0.6103515625	-4.95147705078125	-3.276824951171875	9.944316595458984	0.4782417816162109	-0.20290859069824219	2.5787353515625	-4.52423095703125	-1.689910888671875	
56	0.224	0.0	0.0	0.0	0.0	0.003	0.003	0.003	0.006	9.85752678527832	0.08080430603027343	0.04249707946777344	2.414703369140625	-3.627777099609375	-0.988006591796875	9.76774422302246	0.584185205078125	0.16220716247558592	0.438690185546875	-5.22613525390625	-3.42559814453125	9.961674557495117	0.46028526916503903	-0.20350714111328125	2.6092529296875	-4.55474853515625	-1.5106201171875	
57	0.228	0.0	0.0	0.0	0.0	0.009000000000000001	0.003	0.006	0.006	9.874286196899414	0.0796072052001953	0.030526071166992186	2.452850341796875	-3.60870361328125	-0.90789794921875	9.775525378417969	0.5877765075683593	0.15322890625	0.614166259765625	-5.001068115234375	-3.383636474609375	9.989806427001952	0.4375403533935547	-0.22086510314941404	2.64739990234375	-4.547119140625	-1.7242431640625	
58	0.232	0.0	0.0	0.0	0.0	0.0	0.003	0.006	0.003	9.861118087768554	0.09277531433105468	0.04548983154296875	2.773284912109375	-3.7841796875	-0.980377197265625	9.76235726928711	0.6063315704345703	0.17657237243652343	0.75531005859375	-5.0048828125	-3.322601318359375	9.976039767456054	0.47884033203125	-0.181959326171875	2.52532958984375	-4.66156005859375	-1.67083740234375	
59	0.23600000000000002	0.0	0.0	0.0	0.0	0.0	0.006	0.006	0.003	9.86411083984375	0.09457096557617187	0.05746083984375	2.6702880859375	-3.528594970703125	-0.8087158203125	9.765350021362304	0.594959112548828	0.1975216369628906	0.659942626953125	-5.176544189453125	-3.25775146484375	9.970652813720703	0.47285482788085936	-0.18375497741699218	2.7923583984375	-4.566192626953125	-1.705169677734375	
60	0.24	0.0	0.0	0.0	0.0	0.006	0.003	0.003	0.006	9.871293444824218	0.09516951599121093	0.047285482788085934	2.635955810546875	-3.45611572265625	-0.835418701171875	9.778518130493163	0.5871779571533203	0.17178396911621094	0.690460205078125	-4.9896240234375	-3.265380859375	9.982025271606444	0.46028526916503903	-0.19991583862304688	2.620697021484375	-4.802703857421875	-1.64031982421875	
61	0.244	0.0	0.0	0.0	0.0	0.006	0.003	0.006	0.0	9.88266590270996	0.11013327636718749	0.0526724365234375	2.5177001953125	-3.696441650390625	-1.094818115234375	9.777321029663085	0.5985504150390625	0.15981296081542967	0.4119873046875	-5.0811767578125	-3.360748291015625	9.980229620361328	0.48243163452148435	-0.20290859069824219	2.597808837890625	-4.7454833984375	-1.636505126953125	
62	0.248	0.0	0.0	0.0	0.0	0.006	0.006	0.003	0.009000000000000001	9.86411083984375	0.10893617553710937	0.06943184814453125	2.323150634765625	-3.795623779296875	-0.90789794921875	9.75517466430664	0.6027402679443359	0.18255787658691405	0.48065185546875	-5.24139404296875	-3.276824951171875	9.962273107910155	0.489015689086914	-0.19093758239746092	2.689361572265625	-4.711151123046875	-1.857757568359375	
63	0.252	0.0	0.0	0.0	0.0	0.006	0.006	0.006	0.006	9.87009634399414	0.086191259765625	0.06464344482421874	2.43377685546875	-3.749847412109375	-0.9307861328125	9.777321029663085	0.5722141967773438	0.17776947326660156	0.701904296875	-5.214691162109375	-3.459930419921875	9.99220062866211	0.4608838195800781	-0.18076222534179687	2.7008056640625	-4.833221435546875	-1.5869140625	
64	0.256	0.0	0.0	0.0	0.0	0.0	0.003	0.003	0.006	9.862315188598632	0.07541735229492187	0.06105214233398437	2.471923828125	-3.6163330078125	-0.659942626953125	9.777919580078125	0.5746083984375	0.1693897674560547	0.3814697265625	-5.130767822265625	-3.25775146484375	9.986215124511718	0.4471171600341797	-0.1975216369628906	2.719879150390625	-4.726409912109375	-1.728057861328125	
65	0.26	0.0	0.0	0.0	0.0	0.0	0.003	0.003	0.003	9.850344180297851	0.09816226806640624	0.06943184814453125	2.635955810546875	-4.123687744140625	-1.018524169921875	9.770736975097655	0.6051344696044921	0.18136077575683593	0.38909912109375	-4.970550537109375	-3.25775146484375	9.964667309570311	0.4752490295410156	-0.20470424194335937	2.73895263671875	-4.66156005859375	-1.89208984375	
66	0.264	0.0	0.0	0.0	0.0	0.006	0.003	0.006	0.006	9.867702142333984	0.1005564697265625	0.06404489440917968	2.460479736328125	-3.7841796875	-0.751495361328125	9.757568865966796	0.6027402679443359	0.18136077575683593	0.79345703125	-5.214691162109375	-3.24249267578125	9.964667309570311	0.4830301849365234	-0.20769699401855468	2.9296875	-4.680633544921875	-1.850128173828125	
67	0.268	0.0	0.0	0.0	0.0	0.003	0.003	0.003	0.003	9.87009634399414	0.08978256225585937	0.06344634399414062	2.5482177734375	-3.635406494140625	-0.70953369140625	9.777919580078125	0.59376201171875	0.15562310791015624	0.568389892578125	-5.11932373046875	-3.345489501953125	9.983820922851562	0.4483142608642578	-0.21966800231933592	2.750396728515625	-4.69970703125	-1.674652099609375	
68	0.272	0.0	0.0	0.0	0.0	0.003	0.006	0.006	0.006	9.861118087768554	0.07841010437011718	0.06464344482421874	2.6397705078125	-3.635406494140625	-1.01470947265625	9.76894132385254	0.5871779571533203	0.1801636749267578	0.80108642578125	-5.11932373046875	-3.4332275390625	9.97903251953125	0.45489831542968745	-0.21906945190429686	2.628326416015625	-4.7149658203125	-1.8768310546875	
69	0.276	0.0	0.0	0.0	0.0	0.006	0.003	0.003	0.003	9.875483297729492	0.0909796630859375	0.08379705810546874	2.407073974609375	-3.5552978515625	-0.865936279296875	9.771934075927733	0.5913678100585937	0.19572598571777342	0.69427490234375	-5.11932373046875	-3.276824951171875	9.973645565795898	0.4608838195800781	-0.21068974609375	2.72369384765625	-4.78363037109375	-1.71661376953125	
70	0.28	0.0	0.0	0.0	0.0	0.003	0.006	0.006	0.006	9.878476049804688	0.08020575561523437	0.06284779357910156	2.5787353515625	-3.6163330078125	-0.988006591796875	9.777919580078125	0.5799953521728515	0.17417817077636719	0.545501708984375	-4.98199462890625	-3.34930419921875	9.968258612060547	0.45549686584472654	-0.21607669982910155	2.52532958984375	-4.673004150390625	-1.80816650390625	
71	0.28400000000000003	0.0	0.0	0.0	0.0	0.006	0.006	0.003	0.003	9.87608184814453	0.06404489440917968	0.0652419952392578	2.63214111328125	-3.536224365234375	-0.919342041015625	9.776123928833007	0.5728127471923827	0.17477672119140625	0.568389892578125	-5.0811767578125	-3.314971923828125	9.983820922851562	0.4321533996582031	-0.201112939453125	2.605438232421875	-4.76837158203125	-1.9683837890625	
72	0.28800000000000003	0.0	0.0	0.0	0.0	0.003	0.006	0.006	0.003	9.868899243164062	0.05805939025878906	0.086191259765625	2.46429443359375	-3.704071044921875	-0.865936279296875	9.776722479248047	0.5662286926269531	0.20530279235839843	0.415802001953125	-5.146026611328125	-3.2958984375	9.966462960815429	0.4381389038085937	-0.18435352783203124	2.780914306640625	-4.573822021484375	-1.77001953125	
73	0.292	0.0	0.0	0.0	0.0	0.006	0.006	0.006	0.003	9.85692823486328	0.044891281127929686	0.09337386474609374	2.361297607421875	-3.650665283203125	-0.91552734375	9.781510882568359	0.5392939239501953	0.20829554443359374	0.579833984375	-4.9285888671875	-3.330230712890625	9.97244846496582	0.421978042602539	-0.16639701538085935	2.60162353515625	-4.512786865234375	-1.70135498046875	
74	0.296	0.0	0.0	0.0	0.0	0.003	0.003	0.003	0.003	9.87608184814453	0.023942016601562498	0.08439560852050781	2.361297607421875	-3.856658935546875	-0.988006591796875	9.779715231323241	0.5153519073486328	0.20290859069824219	0.35858154296875	-4.924774169921875	-3.44085693359375	9.988609326171874	0.39803602600097654	-0.17058686828613281	2.727508544921875	-4.302978515625	-1.73187255859375	
75	0.3	0.0	0.0	0.0	0.0	0.003	0.006	0.003	0.006	9.880870251464843	0.016759411621093748	0.0939724151611328	2.655029296875	-3.7841796875	-1.033782958984375	9.782707983398437	0.517746109008789	0.21966800231933592	0.640869140625	-5.130767822265625	-3.467559814453125	9.970652813720703	0.3902548706054687	-0.13826514587402344	2.58636474609375	-4.7149658203125	-1.89208984375	
76	0.304	0.0	0.0	0.0	0.0	0.003	0.006	0.003	0.003	9.866505041503906	0.022146365356445312	0.09217676391601562	2.338409423828125	-3.662109375	-0.8087158203125	9.77432827758789	0.5333084197998047	0.23523031311035156	0.6866455078125	-5.13458251953125	-3.47900390625	9.966462960815429	0.3860650177001953	-0.13766659545898435	2.655029296875	-4.6234130859375	-1.674652099609375	
77	0.308	0.0	0.0	0.0	0.0	0.003	0.006	0.006	0.006	9.860519537353515	-0.007781155395507812	0.0939724151611328	2.498626708984375	-3.53240966796875	-0.789642333984375	9.779116680908203	0.4961982940673828	0.22086510314941404	0.5950927734375	-5.07354736328125	-3.414154052734375	9.977236868286132	0.3699041564941406	-0.14484920043945312	2.750396728515625	-4.76837158203125	-1.743316650390625	
78	0.312	0.0	0.0	0.0	0.0	0.006	0.003	0.003	0.003	9.868899243164062	-0.011971008300781249	0.09277531433105468	2.58636474609375	-3.71551513671875	-0.78582763671875	9.783306533813477	0.4961982940673828	0.22266075439453123	0.591278076171875	-5.04302978515625	-3.56292724609375	9.983820922851562	0.35314474487304687	-0.14544775085449219	3.025054931640625	-4.802703857421875	-1.689910888671875	
79	0.316	0.0	0.0	0.0	0.0	0.003	0.006	0.003	0.006	9.87009634399414	0.010773907470703125	0.09696516723632811	2.38800048828125	-3.80706787109375	-0.80108642578125	9.76894132385254	0.5129577056884765	0.2154781494140625	0.75531005859375	-5.10406494140625	-3.34930419921875	9.974842666625976	0.37828386230468747	-0.1466448516845703	2.750396728515625	-4.619598388671875	-1.77764892578125	
80	0.32	0.0	0.0	0.0	0.0	0.003	0.006	0.006	0.003	9.87668039855957	0.015562310791015624	0.09816226806640624	2.384185791015625	-3.9215087890625	-0.835418701171875	9.775525378417969	0.5153519073486328	0.21248539733886718	0.5645751953125	-5.039215087890625	-3.265380859375	9.973047015380859	0.3842693664550781	-0.15981296081542967	3.871917724609375	-4.703521728515625	-1.52587890625	
81	0.324	0.0	0.0	0.0	0.0	0.003	0.006	0.003	0.003	9.87668039855957	0.0005985504150390625	0.08020575561523437	2.811431884765625	-3.948211669921875	-0.858306884765625	9.771934075927733	0.507570751953125	0.20949264526367187	0.3814697265625	-5.08880615234375	-3.170013427734375	9.987412225341796	0.37708676147460934	-0.17178396911621094	2.73895263671875	-4.917144775390625	-1.743316650390625	
82	0.328	0.0	0.0	0.0	0.0	0.003	0.006	0.003	0.003	9.871293444824218	0.012569558715820313	0.07362170104980469	2.55584716796875	-3.814697265625	-0.9765625	9.777919580078125	0.5201403106689453	0.19991583862304688	0.98419189453125	-5.3253173828125	-3.185272216796875	9.97783541870117	0.3848679168701172	-0.181959326171875	2.7923583984375	-4.69207763671875	-1.94549560546875	
83	0.332	0.0	0.0	0.0	0.0	0.003	0.003	0.003	0.003	9.858125335693359	0.025139117431640625	0.07541735229492187	2.41851806640625	-3.448486328125	-1.04522705078125	9.769539874267577	0.5285200164794922	0.19393033447265623	0.762939453125	-5.001068115234375	-3.41796875	9.968258612060547	0.39863457641601563	-0.19393033447265623	2.5787353515625	-4.6234130859375	-1.77001953125	
84	0.336	0.0	0.0	0.0	0.0	0.003	0.006	0.006	0.006	9.867702142333984	0.032920272827148434	0.05805939025878906	2.54058837890625	-3.688812255859375	-0.90789794921875	9.776722479248047	0.535702621459961	0.17298106994628906	0.67138671875	-5.001068115234375	-3.28826904296875	9.982623822021484	0.3968389251708984	-0.20290859069824219	2.666473388671875	-4.6844482421875	-1.750946044921875	
85	0.34	0.0	0.0	0.0	0.0	0.012	0.006	0.006	0.006	9.867702142333984	0.033518823242187495	0.06943184814453125	2.353668212890625	-3.7078857421875	-0.705718994140625	9.78031378173828	0.5458779785156249	0.16759411621093748	0.499725341796875	-5.069732666015625	-3.459930419921875	9.99220062866211	0.41539398803710936	-0.2280477081298828	2.57110595703125	-4.79888916015625	-1.80816650390625	
86	0.34400000000000003	0.0	0.0	0.0	0.0	0.003	0.003	0.003	0.003	9.872490545654296	0.05087678527832031	0.06584054565429687	2.529144287109375	-3.879547119140625	-0.804901123046875	9.77432827758789	0.5446808776855468	0.1801636749267578	0.499725341796875	-5.092620849609375	-3.513336181640625	9.974842666625976	0.4129997863769531	-0.21727380065917967	2.52532958984375	-4.52423095703125	-1.5869140625	
87	0.34800000000000003	0.0	0.0	0.0	0.0	0.003	0.006	0.003	0.003	9.872490545654296	0.05985504150390625	0.06045359191894531	2.64739990234375	-3.719329833984375	-0.946044921875	9.775525378417969	0.5536591339111328	0.17178396911621094	0.469207763671875	-4.9896240234375	-3.292083740234375	9.974244116210937	0.4165910888671875	-0.21906945190429686	2.838134765625	-4.61578369140625	-1.819610595703125	
88	0.352	0.0	0.0	0.0	0.0	0.003	0.006	0.006	0.006	9.873687646484374	0.061650692749023434	0.051475335693359374	2.300262451171875	-3.818511962890625	-0.926971435546875	9.776123928833007	0.556053335571289	0.15023615417480468	0.701904296875	-4.901885986328125	-3.520965576171875	9.980828170776366	0.4225765930175781	-0.22266075439453123	2.735137939453125	-4.650115966796875	-1.77764892578125	
89	0.356	0.0	0.0	0.0	0.0	0.006	0.006	0.006	0.003	9.878476049804688	0.07541735229492187	0.054468087768554684	2.353668212890625	-3.41033935546875	-0.782012939453125	9.77432827758789	0.5740098480224609	0.16879121704101563	0.568389892578125	-5.157470703125	-3.3111572265625	9.977236868286132	0.4465186096191406	-0.20350714111328125	2.613067626953125	-4.638671875	-1.77001953125	
90	0.36	0.0	0.0	0.0	0.0	0.003	0.006	0.006	0.003	9.87727894897461	0.076614453125	0.06045359191894531	2.422332763671875	-3.826141357421875	-0.980377197265625	9.76894132385254	0.5764040496826172	0.15562310791015624	0.7171630859375	-4.99725341796875	-3.387451171875	9.968857162475585	0.45489831542968745	-0.22206220397949217	2.643585205078125	-4.58526611328125	-1.873016357421875	
91	0.364	0.0	0.0	0.0	0.0	0.003	0.003	0.003	0.003	9.868300692749022	0.07422025146484375	0.04129997863769531	2.34222412109375	-3.662109375	-1.04522705078125	9.771934075927733	0.575206948852539	0.16220716247558592	0.614166259765625	-5.062103271484375	-3.4027099609375	9.984419473266602	0.4375403533935547	-0.21787235107421873	2.50244140625	-4.673004150390625	-1.7547607421875	
92	0.368	0.0	0.0	0.0	0.0	0.003	0.003	0.003	0.003	9.864709390258788	0.08020575561523437	0.025737667846679687	2.4871826171875	-3.665924072265625	-0.81634521484375	9.777919580078125	0.5847837554931641	0.16220716247558592	0.5340576171875	-5.10406494140625	-3.345489501953125	9.97903251953125	0.44053310546874996	-0.20649989318847656	2.536773681640625	-4.703521728515625	-1.8463134765625	
93	0.372	0.0	0.0	0.0	0.0	0.003	0.006	0.006	0.006	9.873089096069336	0.09696516723632811	0.028730419921875	2.506256103515625	-3.772735595703125	-1.186370849609375	9.763554370117188	0.603338818359375	0.15741875915527342	0.576019287109375	-5.214691162109375	-3.292083740234375	9.95987890625	0.45549686584472654	-0.20470424194335937	2.60162353515625	-4.665374755859375	-1.766204833984375	
94	0.376	0.0	0.0	0.0	0.0	0.006	0.003	0.003	0.006	9.873089096069336	0.11013327636718749	0.034715924072265626	2.52532958984375	-3.86810302734375	-0.873565673828125	9.76116016845703	0.6123170745849609	0.15682020874023436	0.518798828125	-5.001068115234375	-3.44085693359375	9.970652813720703	0.4704606262207031	-0.2166752502441406	2.685546875	-4.5318603515625	-1.674652099609375	
95	0.38	0.0	0.0	0.0	0.0	0.003	0.006	0.006	0.006	9.87069489440918	0.10474632263183593	0.03651157531738281	2.536773681640625	-3.536224365234375	-0.782012939453125	9.765350021362304	0.6081272216796875	0.15682020874023436	0.732421875	-4.924774169921875	-3.50189208984375	9.977236868286132	0.47285482788085936	-0.21248539733886718	2.79998779296875	-4.6234130859375	-1.613616943359375	
96	0.384	0.0	0.0	0.0	0.0	0.006	0.003	0.003	0.003	9.859322436523437	0.10295067138671875	0.03411737365722656	2.536773681640625	-3.711700439453125	-1.10626220703125	9.77432827758789	0.613514175415039	0.1657984649658203	0.644683837890625	-5.039215087890625	-3.3721923828125	9.975441217041014	0.47584757995605464	-0.21248539733886718	2.834320068359375	-4.779815673828125	-1.70135498046875	
97	0.388	0.0	0.0	0.0	0.0	0.006	0.006	0.003	0.003	9.867103591918944	0.11552023010253906	0.037110125732421874	2.376556396484375	-3.681182861328125	-0.93841552734375	9.771934075927733	0.6242880828857421	0.16220716247558592	0.70953369140625	-4.9896240234375	-3.559112548828125	9.97244846496582	0.4896142395019531	-0.21966800231933592	2.90679931640625	-4.92095947265625	-1.590728759765625	
98	0.392	0.0	0.0	0.0	0.0	0.003	0.006	0.006	0.003	9.867103591918944	0.12090718383789062	0.032920272827148434	2.67791748046875	-3.6773681640625	-0.743865966796875	9.772532626342773	0.6272808349609375	0.15682020874023436	0.606536865234375	-5.084991455078125	-3.383636474609375	9.970652813720703	0.4955997436523437	-0.21966800231933592	2.67791748046875	-4.60052490234375	-1.6632080078125	
99	0.396	0.0	0.0	0.0	0.0	0.003	0.003	0.006	0.003	9.87009634399414	0.13168109130859373	0.03651157531738281	2.727508544921875	-3.803253173828125	-1.02996826171875	9.772532626342773	0.632667788696289	0.14784195251464843	0.6103515625	-5.092620849609375	-3.467559814453125	9.975441217041014	0.5003881469726562	-0.23403321228027343	2.8839111328125	-4.688262939453125	-1.83868408203125	
100	0.4	0.0	0.0	0.0	0.0	0.006	0.003	0.006	0.006	9.865906491088866	0.12988544006347655	0.04668693237304687	2.315521240234375	-3.5858154296875	-1.0833740234375	9.77432827758789	0.6404489440917969	0.14784195251464843	0.698089599609375	-5.199432373046875	-3.45611572265625	9.965265859985351	0.5033808990478515	-0.22505495605468748	2.811431884765625	-4.608154296875	-1.735687255859375	
101	0.404	0.0	0.0	0.0	0.0	0.003	0.003	0.006	0.006	9.867702142333984	0.12330138549804687	0.059256491088867186	2.55584716796875	-4.0130615234375	-0.70953369140625	9.781510882568359	0.6332663391113281	0.15502455749511718	0.644683837890625	-4.779815673828125	-3.330230712890625	9.973047015380859	0.5057751007080078	-0.22744915771484372	2.63214111328125	-4.825592041015625	-1.804351806640625	
102	0.40800000000000003	0.0	0.0	0.0	0.0	0.012	0.006	0.003	0.003	9.874884747314452	0.11731588134765625	0.04548983154296875	2.452850341796875	-3.833770751953125	-0.904083251953125	9.773729727172851	0.6278793853759765	0.15981296081542967	0.84686279296875	-5.0048828125	-3.33404541015625	9.97783541870117	0.4955997436523437	-0.2328361114501953	2.796173095703125	-4.638671875	-1.800537109375	
103	0.41200000000000003	0.0	0.0	0.0	0.0	0.003	0.003	0.003	0.003	9.878476049804688	0.11911153259277343	0.04369418029785156	2.361297607421875	-3.589630126953125	-0.743865966796875	9.770736975097655	0.63206923828125	0.16519991455078123	0.629425048828125	-5.229949951171875	-3.509521484375	9.970652813720703	0.4955997436523437	-0.2292448089599609	2.716064453125	-4.57000732421875	-1.83868408203125	
104	0.41600000000000004	0.0	0.0	0.0	0.0	0.006	0.003	0.006	0.003	9.87009634399414	0.1227028350830078	0.052073886108398436	2.46429443359375	-3.77655029296875	-0.881195068359375	9.766547122192382	0.6200982299804687	0.17896657409667968	0.514984130859375	-4.955291748046875	-3.376007080078125	9.967061511230469	0.49260699157714843	-0.21487959899902342	2.239227294921875	-4.528045654296875	-1.7852783203125	
105	0.42	0.0	0.0	0.0	0.0	0.006	0.003	0.003	0.006	9.865906491088866	0.09935936889648436	0.06823474731445311	2.6092529296875	-3.704071044921875	-0.942230224609375	9.770138424682617	0.5895721588134766	0.18255787658691405	0.545501708984375	-5.008697509765625	-3.3416748046875	9.973645565795898	0.47165772705078124	-0.19512743530273435	2.689361572265625	-4.82177734375	-1.6632080078125	
106	0.424	0.0	0.0	0.0	0.0	0.0	0.006	0.006	0.003	9.872490545654296	0.09038111267089843	0.0718260498046875	2.5482177734375	-3.772735595703125	-0.95367431640625	9.771335525512695	0.5895721588134766	0.19153613281249998	0.934600830078125	-5.2337646484375	-3.39508056640625	9.977236868286132	0.46028526916503903	-0.18076222534179687	2.67791748046875	-4.5013427734375	-1.796722412109375	
107	0.428	0.0	0.0	0.0	0.0	0.003	0.006	0.006	0.003	9.871293444824218	0.08738836059570312	0.08798691101074219	2.521514892578125	-3.803253173828125	-0.75531005859375	9.769539874267577	0.5770026000976562	0.19093758239746092	0.5950927734375	-4.852294921875	-3.34930419921875	9.97843396911621	0.4537012145996093	-0.1849520782470703	2.780914306640625	-4.772186279296875	-1.750946044921875	
108	0.432	0.0	0.0	0.0	0.0	0.006	0.006	0.003	0.003	9.8694977935791	0.07721300354003906	0.06883329772949218	2.55584716796875	-3.7689208984375	-0.7476806640625	9.776123928833007	0.5632359405517577	0.19632453613281248	0.423431396484375	-4.78363037109375	-3.25775146484375	9.980828170776366	0.43574470214843747	-0.18076222534179687	2.79998779296875	-4.795074462890625	-1.850128173828125	
109	0.436	0.0	0.0	0.0	0.0	0.003	0.003	0.003	0.006	9.875483297729492	0.061650692749023434	0.07781155395507812	2.532958984375	-3.79180908203125	-1.018524169921875	9.781510882568359	0.5482721801757812	0.1975216369628906	0.522613525390625	-5.2642822265625	-3.276824951171875	9.97783541870117	0.41838674011230464	-0.16639701538085935	2.735137939453125	-4.60052490234375	-1.8463134765625	
110	0.44	0.0	0.0	0.0	0.0	0.006	0.003	0.006	0.006	9.867702142333984	0.04129997863769531	0.09516951599121093	2.620697021484375	-3.963470458984375	-0.92315673828125	9.779116680908203	0.5428852264404297	0.21487959899902342	0.469207763671875	-5.077362060546875	-3.2958984375	9.982623822021484	0.4016273284912109	-0.14784195251464843	2.803802490234375	-4.8980712890625	-1.903533935546875	
111	0.444	0.0	0.0	0.0	0.0	0.006	0.006	0.006	0.006	9.871293444824218	0.040102877807617184	0.08499415893554688	2.62451171875	-4.08935546875	-0.850677490234375	9.777321029663085	0.5363011718749999	0.22385785522460935	0.579833984375	-5.1727294921875	-3.284454345703125	9.974244116210937	0.3950432739257812	-0.143652099609375	2.719879150390625	-4.50897216796875	-1.804351806640625	
112	0.448	0.0	0.0	0.0	0.0	0.003	0.003	0.003	0.006	9.874884747314452	0.034715924072265626	0.09457096557617187	2.620697021484375	-3.612518310546875	-0.812530517578125	9.782707983398437	0.517746109008789	0.22685060729980466	0.690460205078125	-5.077362060546875	-3.42559814453125	9.976638317871092	0.4004302276611328	-0.14125789794921875	2.70843505859375	-4.69207763671875	-1.94549560546875	
113	0.452	0.0	0.0	0.0	0.0	0.003	0.003	0.006	0.006	9.873687646484374	0.01975216369628906	0.08559270935058594	2.43377685546875	-3.77655029296875	-1.033782958984375	9.76894132385254	0.5063736511230469	0.2214636535644531	0.858306884765625	-5.374908447265625	-3.47900390625	9.97244846496582	0.39863457641601563	-0.15023615417480468	2.788543701171875	-4.67681884765625	-1.758575439453125	
114	0.456	0.0	0.0	0.0	0.0	0.006	0.003	0.006	0.003	9.867103591918944	0.009576806640625	0.09576806640624999	2.471923828125	-3.696441650390625	-0.74005126953125	9.7683427734375	0.5045779998779296	0.21787235107421873	0.591278076171875	-5.096435546875	-3.34930419921875	9.97903251953125	0.3848679168701172	-0.1466448516845703	2.7313232421875	-4.642486572265625	-1.743316650390625	
115	0.46	0.0	0.0	0.0	0.0	0.003	0.006	0.003	0.003	9.871891995239258	0.013168109130859374	0.09636661682128905	2.773284912109375	-3.42559814453125	-1.041412353515625	9.7683427734375	0.5027823486328125	0.21607669982910155	0.453948974609375	-5.0201416015625	-3.398895263671875	9.976638317871092	0.3758896606445312	-0.16220716247558592	2.58636474609375	-4.6844482421875	-1.9378662109375	
116	0.464	0.0	0.0	0.0	0.0	0.009000000000000001	0.003	0.003	0.009000000000000001	9.86411083984375	0.01915361328125	0.09696516723632811	2.49481201171875	-3.71551513671875	-0.9613037109375	9.777919580078125	0.5051765502929687	0.21068974609375	0.736236572265625	-5.062103271484375	-3.246307373046875	9.968258612060547	0.3752911102294922	-0.17896657409667968	2.727508544921875	-4.63104248046875	-1.89208984375	
117	0.468	0.0	0.0	0.0	0.0	0.009000000000000001	0.006	0.006	0.009000000000000001	9.865307940673828	0.010773907470703125	0.1005564697265625	2.55584716796875	-3.765106201171875	-0.70953369140625	9.778518130493163	0.5189432098388671	0.20709844360351562	0.629425048828125	-4.8065185546875	-3.566741943359375	9.976638317871092	0.38187516479492184	-0.18435352783203124	2.704620361328125	-4.840850830078125	-1.8768310546875	
118	0.47200000000000003	0.0	0.0	0.0	0.0	0.003	0.006	0.003	0.006	9.865906491088866	0.006584054565429687	0.10175357055664062	2.437591552734375	-3.9215087890625	-0.81634521484375	9.781510882568359	0.5183446594238281	0.19333178405761717	0.713348388671875	-5.199432373046875	-3.41796875	9.973047015380859	0.3848679168701172	-0.18614917907714842	2.681732177734375	-4.8370361328125	-1.979827880859375	
119	0.47600000000000003	0.0	0.0	0.0	0.0	0.006	0.003	0.006	0.006	9.862315188598632	0.0053869537353515625	0.08559270935058594	2.52532958984375	-3.65447998046875	-0.888824462890625	9.782707983398437	0.5105635040283203	0.1927332336425781	0.812530517578125	-5.16510009765625	-3.62396240234375	9.9981861328125	0.3794809631347656	-0.18914193115234373	2.5482177734375	-4.69970703125	-1.750946044921875	
120	0.48	0.0	0.0	0.0	0.0	0.003	0.006	0.003	0.003	9.868300692749022	0.010175357055664061	0.07302315063476562	2.498626708984375	-3.8909912109375	-1.087188720703125	9.778518130493163	0.5129577056884765	0.1927332336425781	0.46539306640625	-5.0048828125	-3.41796875	9.995791931152343	0.39324762268066404	-0.20709844360351562	2.76947021484375	-4.909515380859375	-1.834869384765625	
121	0.484	0.0	0.0	0.0	0.0	0.006	0.003	0.006	0.003	9.874286196899414	0.022744915771484374	0.06643909606933593	2.70843505859375	-3.83758544921875	-0.865936279296875	9.771934075927733	0.5333084197998047	0.1753752716064453	0.614166259765625	-4.924774169921875	-3.33404541015625	9.983222372436522	0.3962403747558593	-0.2041056915283203	2.574920654296875	-4.81414794921875	-1.911163330078125	
122	0.488	0.0	0.0	0.0	0.0	0.003	0.003	0.006	0.006	9.872490545654296	0.023942016601562498	0.06643909606933593	2.429962158203125	-3.841400146484375	-0.995635986328125	9.783306533813477	0.5291185668945312	0.16819266662597654	0.48828125	-5.229949951171875	-3.57818603515625	9.974244116210937	0.41060558471679687	-0.19871873779296872	2.6092529296875	-4.749298095703125	-1.57928466796875	
123	0.492	0.0	0.0	0.0	0.0	-0.003	0.003	0.006	0.006	9.865307940673828	0.02693476867675781	0.06284779357910156	2.269744873046875	-3.307342529296875	-0.79345703125	9.782707983398437	0.5309142181396485	0.17477672119140625	0.377655029296875	-5.207061767578125	-3.246307373046875	9.97903251953125	0.4070142822265625	-0.19931728820800781	2.567291259765625	-4.474639892578125	-1.67083740234375	
124	0.496	0.0	0.0	0.0	0.0	0.006	0.003	0.003	0.003	9.872490545654296	0.03651157531738281	0.06105214233398437	2.52532958984375	-3.8299560546875	-1.018524169921875	9.782109432983399	0.5321113189697265	0.17058686828613281	0.6561279296875	-5.2032470703125	-3.387451171875	9.974244116210937	0.41060558471679687	-0.1945288848876953	2.574920654296875	-4.5623779296875	-1.628875732421875	
125	0.5	0.0	0.0	0.0	0.0	0.003	0.006	0.003	0.003	9.865307940673828	0.03890577697753906	0.059256491088867186	2.52532958984375	-3.662109375	-0.95367431640625	9.773729727172851	0.546476528930664	0.181959326171875	0.5645751953125	-4.8675537109375	-3.322601318359375	9.977236868286132	0.41060558471679687	-0.19931728820800781	2.72369384765625	-4.711151123046875	-1.800537109375	
126	0.504	0.0	0.0	0.0	0.0	0.003	0.003	0.003	0.006	9.859322436523437	0.031124621582031248	0.04668693237304687	2.269744873046875	-3.292083740234375	-0.81634521484375	9.776722479248047	0.5524620330810547	0.17298106994628906	0.400543212890625	-4.98199462890625	-3.2958984375	9.964667309570311	0.4171896392822265	-0.20949264526367187	2.6397705078125	-4.7149658203125	-1.766204833984375	
127	0.508	0.0	0.0	0.0	0.0	0.0	0.006	0.006	0.003	9.866505041503906	0.05027823486328125	0.0526724365234375	2.330780029296875	-3.780364990234375	-1.079559326171875	9.773131176757811	0.55545478515625	0.16519991455078123	0.6561279296875	-4.985809326171875	-3.448486328125	9.975441217041014	0.4387374542236328	-0.20949264526367187	2.864837646484375	-4.726409912109375	-1.644134521484375	
128	0.512	0.0	0.0	0.0	0.0	0.003	0.006	0.006	0.006	9.871293444824218	0.07362170104980469	0.04129997863769531	2.4261474609375	-3.88336181640625	-0.80108642578125	9.776123928833007	0.5602431884765625	0.16220716247558592	0.644683837890625	-5.222320556640625	-3.45611572265625	9.974842666625976	0.43933600463867184	-0.21009119567871093	2.735137939453125	-4.7760009765625	-1.789093017578125	
129	0.516	0.0	0.0	0.0	0.0	0.006	0.006	0.003	0.003	9.859920986938477	0.07062894897460938	0.04369418029785156	2.620697021484375	-3.665924072265625	-0.774383544921875	9.779715231323241	0.5805939025878906	0.15741875915527342	0.972747802734375	-4.9591064453125	-3.4027099609375	9.974244116210937	0.44412440795898434	-0.2059013427734375	2.643585205078125	-4.67681884765625	-1.766204833984375	
130	0.52	0.0	0.0	0.0	0.0	0.006	0.006	0.003	0.003	9.860519537353515	0.08319850769042968	0.044891281127929686	2.5177001953125	-3.536224365234375	-0.9002685546875	9.771934075927733	0.5871779571533203	0.15203180541992187	0.339508056640625	-4.924774169921875	-3.36456298828125	9.983820922851562	0.4572925170898437	-0.2166752502441406	2.452850341796875	-4.69970703125	-1.67083740234375	
131	0.524	0.0	0.0	0.0	0.0	0.003	0.006	0.003	0.006	9.866505041503906	0.10175357055664062	0.04369418029785156	2.4871826171875	-3.757476806640625	-0.896453857421875	9.771335525512695	0.5985504150390625	0.15442600708007811	0.560760498046875	-5.023956298828125	-3.345489501953125	9.979631069946288	0.46627077331542965	-0.21009119567871093	2.773284912109375	-4.573822021484375	-1.682281494140625	
132	0.528	0.0	0.0	0.0	0.0	0.003	0.003	0.006	0.003	9.865906491088866	0.11372457885742186	0.03950432739257812	2.696990966796875	-3.559112548828125	-0.81634521484375	9.765948571777344	0.5997475158691405	0.15263035583496093	0.40435791015625	-4.8828125	-3.15093994140625	9.975441217041014	0.47584757995605464	-0.22266075439453123	2.79998779296875	-4.73785400390625	-1.8157958984375	
133	0.532	0.0	0.0	0.0	0.0	0.006	0.003	0.006	0.006	9.87069489440918	0.11372457885742186	0.03890577697753906	2.5177001953125	-3.627777099609375	-0.946044921875	9.777919580078125	0.6123170745849609	0.16160861206054686	0.3662109375	-5.023956298828125	-3.34930419921875	9.97843396911621	0.47704468078613277	-0.2292448089599609	2.620697021484375	-4.787445068359375	-1.781463623046875	
134	0.536	0.0	0.0	0.0	0.0	0.003	0.006	0.003	0.006	9.868300692749022	0.12509703674316405	0.030526071166992186	2.3345947265625	-3.704071044921875	-0.919342041015625	9.771934075927733	0.6272808349609375	0.16041151123046873	0.72479248046875	-5.05828857421875	-3.2196044921875	9.97184991455078	0.489015689086914	-0.23223756103515625	2.62451171875	-4.76837158203125	-1.7547607421875	
135	0.54	0.0	0.0	0.0	0.0	0.006	0.006	0.006	0.003	9.868300692749022	0.1352723937988281	0.02454056701660156	2.506256103515625	-3.875732421875	-0.972747802734375	9.775525378417969	0.6356605407714844	0.15203180541992187	0.606536865234375	-5.008697509765625	-3.30352783203125	9.96586441040039	0.5027823486328125	-0.23642741394042968	2.685546875	-4.60052490234375	-1.83868408203125	
136	0.544	0.0	0.0	0.0	0.0	0.003	0.003	0.006	0.003	9.872490545654296	0.12689268798828124	0.040701428222656245	2.498626708984375	-3.77655029296875	-0.91552734375	9.781510882568359	0.6302735870361328	0.1562216583251953	0.5645751953125	-4.8980712890625	-3.437042236328125	9.973645565795898	0.5045779998779296	-0.2232593048095703	2.6702880859375	-4.47845458984375	-1.7242431640625	
137	0.548	0.0	0.0	0.0	0.0	0.003	0.006	0.003	0.003	9.872490545654296	0.14245499877929688	0.05027823486328125	2.513885498046875	-3.77655029296875	-0.885009765625	9.76894132385254	0.6350619903564453	0.15263035583496093	0.484466552734375	-4.787445068359375	-3.238677978515625	9.97903251953125	0.507570751953125	-0.2154781494140625	2.613067626953125	-4.547119140625	-1.766204833984375	
138	0.552	0.0	0.0	0.0	0.0	0.003	0.006	0.006	0.003	9.864709390258788	0.13587094421386717	0.04967968444824218	2.346038818359375	-3.604888916015625	-0.614166259765625	9.775525378417969	0.6284779357910156	0.16879121704101563	0.537872314453125	-5.279541015625	-3.276824951171875	9.981426721191406	0.4991910461425781	-0.21787235107421873	2.643585205078125	-4.96673583984375	-1.689910888671875	
139	0.556	0.0	0.0	0.0	0.0	0.006	0.006	0.006	0.006	9.859920986938477	0.12868833923339842	0.04967968444824218	2.307891845703125	-3.631591796875	-0.92315673828125	9.772532626342773	0.6296750366210937	0.17657237243652343	0.30517578125	-4.863739013671875	-3.368377685546875	9.980229620361328	0.49320554199218747	-0.21248539733886718	2.384185791015625	-4.848480224609375	-1.728057861328125	
140	0.56	0.0	0.0	0.0	0.0	0.003	0.003	0.003	0.003	9.867103591918944	0.1227028350830078	0.04668693237304687	2.445220947265625	-3.997802734375	-1.0223388671875	9.766547122192382	0.6165069274902344	0.17956512451171874	0.713348388671875	-5.096435546875	-3.345489501953125	9.968258612060547	0.49380409240722656	-0.21487959899902342	2.590179443359375	-4.726409912109375	-1.705169677734375	
141	0.5640000000000001	0.0	0.0	0.0	0.0	0.009000000000000001	0.003	0.003	0.003	9.864709390258788	0.09935936889648436	0.06404489440917968	2.445220947265625	-3.83758544921875	-0.7781982421875	9.763554370117188	0.613514175415039	0.16639701538085935	0.41961669921875	-4.8828125	-3.429412841796875	9.973645565795898	0.488417138671875	-0.20171148986816406	2.593994140625	-4.69207763671875	-1.735687255859375	
142	0.5680000000000001	0.0	0.0	0.0	0.0	0.006	0.006	0.003	0.009000000000000001	9.865906491088866	0.09337386474609374	0.07122749938964844	2.353668212890625	-3.810882568359375	-0.823974609375	9.770138424682617	0.5973533142089843	0.18435352783203124	0.54168701171875	-5.260467529296875	-3.292083740234375	9.980229620361328	0.47285482788085936	-0.18435352783203124	2.674102783203125	-4.6539306640625	-1.438140869140625	
143	0.5720000000000001	0.0	0.0	0.0	0.0	0.003	0.006	0.003	0.006	9.868899243164062	0.08918401184082031	0.086191259765625	2.471923828125	-3.7841796875	-0.965118408203125	9.782707983398437	0.584185205078125	0.19153613281249998	0.6256103515625	-5.222320556640625	-3.28826904296875	9.977236868286132	0.4542997650146484	-0.17118541870117188	2.777099609375	-4.810333251953125	-1.86920166015625	
144	0.5760000000000001	0.0	0.0	0.0	0.0	0.003	0.003	0.003	0.003	9.860519537353515	0.07541735229492187	0.08559270935058594	2.5787353515625	-3.35693359375	-0.804901123046875	9.777919580078125	0.5895721588134766	0.19931728820800781	0.560760498046875	-4.795074462890625	-3.398895263671875	9.981426721191406	0.4525041137695312	-0.16819266662597654	2.880096435546875	-4.665374755859375	-1.674652099609375	
145	0.58	0.0	0.0	0.0	0.0	0.003	0.006	0.006	0.003	9.862315188598632	0.0652419952392578	0.08319850769042968	2.38800048828125	-3.7078857421875	-0.835418701171875	9.765948571777344	0.5698199951171875	0.2088940948486328	0.79345703125	-4.871368408203125	-3.42559814453125	9.975441217041014	0.4423287567138672	-0.15981296081542967	2.685546875	-4.665374755859375	-1.46484375	
146	0.584	0.0	0.0	0.0	0.0	0.003	0.003	0.003	0.006	9.872490545654296	0.05805939025878906	0.08798691101074219	2.3956298828125	-3.795623779296875	-1.09100341796875	9.773131176757811	0.5638344909667968	0.20350714111328125	0.762939453125	-4.791259765625	-3.36456298828125	9.975441217041014	0.43514615173339843	-0.14724340209960937	2.635955810546875	-4.791259765625	-1.842498779296875	
147	0.588	0.0	0.0	0.0	0.0	0.006	0.006	0.006	0.006	9.874884747314452	0.04848258361816406	0.09756371765136718	2.69317626953125	-3.8299560546875	-0.83160400390625	9.776722479248047	0.5434837768554687	0.21009119567871093	0.7781982421875	-5.268096923828125	-3.345489501953125	9.97903251953125	0.4207809417724609	-0.15502455749511718	2.468109130859375	-4.3792724609375	-1.62506103515625	
148	0.592	0.0	0.0	0.0	0.0	0.003	0.003	0.003	0.006	9.878476049804688	0.037110125732421874	0.086191259765625	2.239227294921875	-3.887176513671875	-0.942230224609375	9.782109432983399	0.5446808776855468	0.20709844360351562	0.6103515625	-5.401611328125	-3.376007080078125	9.97125136413574	0.4070142822265625	-0.1580173095703125	2.880096435546875	-4.608154296875	-1.91497802734375	
149	0.596	0.0	0.0	0.0	0.0	0.003	0.003	0.006	0.003	9.874884747314452	0.03651157531738281	0.08559270935058594	2.437591552734375	-3.749847412109375	-0.9765625	9.770138424682617	0.5386953735351562	0.21787235107421873	0.637054443359375	-4.974365234375	-3.47900390625	9.97244846496582	0.42018239135742186	-0.17178396911621094	2.74658203125	-4.82177734375	-1.9683837890625	
150	0.6	0.0	0.0	0.0	0.0	0.003	0.003	0.006	0.006	9.871293444824218	0.030526071166992186	0.09217676391601562	2.590179443359375	-3.631591796875	-0.91552734375	9.772532626342773	0.5327098693847656	0.19871873779296872	0.614166259765625	-5.19561767578125	-3.376007080078125	9.980229620361328	0.4082113830566406	-0.181959326171875	2.7923583984375	-4.5166015625	-1.567840576171875	
151	0.604	0.0	0.0	0.0	0.0	0.006	0.003	0.003	0.003	9.874884747314452	0.028131869506835935	0.08499415893554688	2.704620361328125	-3.932952880859375	-0.804901123046875	9.776722479248047	0.536899722290039	0.1975216369628906	0.640869140625	-5.245208740234375	-3.448486328125	9.980229620361328	0.39923312683105466	-0.1771709228515625	2.8076171875	-4.802703857421875	-1.644134521484375	
152	0.608	0.0	0.0	0.0	0.0	0.003	0.006	0.006	0.009000000000000001	9.874884747314452	0.028131869506835935	0.08678981018066406	2.532958984375	-3.749847412109375	-0.95367431640625	9.777919580078125	0.5345055206298828	0.19033903198242186	0.469207763671875	-4.955291748046875	-3.33404541015625	9.987412225341796	0.39444472351074217	-0.18375497741699218	2.529144287109375	-4.638671875	-1.804351806640625	
153	0.612	0.0	0.0	0.0	0.0	0.006	0.006	0.006	0.006	9.865906491088866	0.023343466186523436	0.08020575561523437	2.338409423828125	-3.818511962890625	-0.87738037109375	9.776722479248047	0.5267243652343749	0.18854338073730467	0.5950927734375	-4.840850830078125	-3.505706787109375	9.983820922851562	0.3956418243408203	-0.19572598571777342	2.765655517578125	-4.76837158203125	-1.605987548828125	
154	0.616	0.0	0.0	0.0	0.0	0.003	0.006	0.003	0.003	9.874884747314452	0.025139117431640625	0.07242460021972656	2.605438232421875	-3.89862060546875	-0.762939453125	9.777919580078125	0.5225345123291015	0.19033903198242186	0.457763671875	-5.008697509765625	-3.30352783203125	9.982623822021484	0.3848679168701172	-0.201112939453125	2.7313232421875	-4.67681884765625	-1.6937255859375	
155	0.62	0.0	0.0	0.0	0.0	0.003	0.006	0.006	0.006	9.87009634399414	0.020949264526367185	0.06464344482421874	2.4261474609375	-3.6163330078125	-0.69427490234375	9.778518130493163	0.526125814819336	0.18315642700195311	0.64849853515625	-5.268096923828125	-3.4637451171875	9.982025271606444	0.38666356811523434	-0.18435352783203124	2.811431884765625	-4.669189453125	-1.667022705078125	
156	0.624	0.0	0.0	0.0	0.0	0.0	0.003	0.003	0.003	9.873089096069336	0.01915361328125	0.07003039855957031	2.5787353515625	-3.83758544921875	-0.926971435546875	9.776722479248047	0.5219359619140624	0.18076222534179687	0.6103515625	-5.07354736328125	-3.30352783203125	9.97843396911621	0.38367081604003905	-0.1867477294921875	2.758026123046875	-4.795074462890625	-1.636505126953125	
157	0.628	0.0	0.0	0.0	0.0	0.006	0.003	0.006	0.006	9.865307940673828	0.011971008300781249	0.06943184814453125	2.5787353515625	-4.093170166015625	-1.068115234375	9.781510882568359	0.5195417602539062	0.17836802368164062	0.614166259765625	-4.98199462890625	-3.459930419921875	9.982025271606444	0.3962403747558593	-0.19572598571777342	2.6397705078125	-4.53948974609375	-1.720428466796875	
158	0.632	0.0	0.0	0.0	0.0	0.003	0.003	0.006	0.006	9.868899243164062	0.012569558715820313	0.06763619689941405	2.445220947265625	-3.65447998046875	-0.957489013671875	9.773729727172851	0.5159504577636719	0.16998831787109375	0.52642822265625	-4.817962646484375	-3.48663330078125	9.976638317871092	0.39145197143554683	-0.19931728820800781	2.5177001953125	-4.749298095703125	-1.9378662109375	
159	0.636	0.0	0.0	0.0	0.0	0.006	0.006	0.003	0.0	9.87608184814453	0.016759411621093748	0.04608838195800781	2.544403076171875	-3.734588623046875	-0.881195068359375	9.783905084228515	0.5237316131591797	0.16220716247558592	0.732421875	-4.974365234375	-3.50189208984375	9.976638317871092	0.38666356811523434	-0.19931728820800781	2.574920654296875	-4.749298095703125	-1.68609619140625	
160	0.64	0.0	0.0	0.0	0.0	0.003	0.003	0.006	0.006	9.86291373901367	0.03591302490234375	0.04608838195800781	2.643585205078125	-4.0435791015625	-0.8544921875	9.772532626342773	0.5087678527832031	0.16340426330566404	0.7171630859375	-5.290985107421875	-3.33404541015625	9.97903251953125	0.3705027069091797	-0.18435352783203124	2.72369384765625	-4.638671875	-1.96075439453125	
161	0.644	0.0	0.0	0.0	0.0	0.003	0.006	0.003	0.003	9.874884747314452	0.06404489440917968	0.044891281127929686	2.956390380859375	-3.91387939453125	-1.026153564453125	9.769539874267577	0.5835866546630859	0.16460136413574217	0.6103515625	-5.02777099609375	-3.231048583984375	9.96586441040039	0.4537012145996093	-0.1753752716064453	2.5634765625	-4.703521728515625	-1.789093017578125	
162	0.648	0.0	0.0	0.0	0.0	0.003	0.003	0.003	0.006	9.867702142333984	0.04608838195800781	0.044292730712890624	2.819061279296875	-3.871917724609375	-0.728607177734375	9.772532626342773	0.46507367248535153	0.16340426330566404	0.3204345703125	-5.1727294921875	-3.448486328125	9.954491952514648	0.35194764404296874	-0.16998831787109375	2.788543701171875	-4.93621826171875	-1.689910888671875	
163	0.652	0.0	0.0	0.0	0.0	0.006	0.006	0.003	0.003	9.884461553955077	0.09457096557617187	0.04848258361816406	2.70843505859375	-3.7841796875	-0.949859619140625	9.781510882568359	0.5740098480224609	0.15023615417480468	0.431060791015625	-4.970550537109375	-3.34930419921875	9.941922393798828	0.4752490295410156	-0.1771709228515625	2.61688232421875	-4.6234130859375	-1.949310302734375	
164	0.656	0.0	0.0	0.0	0.0	0.006	0.003	0.003	0.006	9.91558617553711	-0.011971008300781249	-0.011372457885742187	2.46429443359375	-3.76129150390625	-0.995635986328125	9.782707983398437	0.5805939025878906	0.1370680450439453	0.530242919921875	-4.947662353515625	-3.35693359375	9.95389340209961	0.4465186096191406	-0.15682020874023436	2.574920654296875	-4.833221435546875	-1.644134521484375	
165	0.66	0.0	0.0	0.0	0.0	0.012	0.003	0.003	0.003	9.879673150634765	0.08200140686035155	0.04369418029785156	2.956390380859375	-3.902435302734375	-1.079559326171875	9.776123928833007	0.5380968231201172	0.13347674255371092	0.431060791015625	-4.9896240234375	-3.3416748046875	10.00417163696289	0.3537432952880859	-0.19692308654785154	2.62451171875	-4.688262939453125	-1.94549560546875	
166	0.664	0.0	0.0	0.0	0.0	0.003	0.003	0.003	0.006	9.912593423461914	-0.014963760375976562	-0.017956512451171875	2.09808349609375	-3.60107421875	-0.91552734375	9.779116680908203	0.5805939025878906	0.13168109130859373	0.5035400390625	-5.157470703125	-3.322601318359375	9.94072529296875	0.4483142608642578	-0.1514332550048828	2.895355224609375	-4.749298095703125	-1.850128173828125	
167	0.668	0.0	0.0	0.0	0.0	0.006	0.006	0.006	0.003	9.884461553955077	0.14425065002441406	0.0526724365234375	2.87628173828125	-4.09698486328125	-0.995635986328125	9.769539874267577	0.6027402679443359	0.13407529296874998	0.698089599609375	-5.2947998046875	-3.35693359375	9.999383233642577	0.43454760131835934	-0.21428104858398436	2.727508544921875	-4.7454833984375	-1.7242431640625	
168	0.672	0.0	0.0	0.0	0.0	0.006	0.006	0.006	0.006	9.91498762512207	-0.022146365356445312	0.00718260498046875	2.422332763671875	-3.543853759765625	-0.812530517578125	9.759963067626952	0.5734112976074218	0.12090718383789062	0.766754150390625	-5.100250244140625	-3.147125244140625	9.955689053344726	0.34237083740234375	-0.20649989318847656	2.513885498046875	-4.64630126953125	-1.6021728515625	
169	0.676	0.0	0.0	0.0	0.0	0.003	0.006	0.003	0.003	9.886257205200195	-0.037708676147460936	-0.0143652099609375	2.6092529296875	-3.696441650390625	-0.8544921875	9.819818109130859	0.5321113189697265	0.09217676391601562	0.469207763671875	-5.08880615234375	-3.559112548828125	10.02332525024414	0.3800795135498047	-0.2232593048095703	2.61688232421875	-4.61578369140625	-2.025604248046875	
170	0.68	0.0	0.0	0.0	0.0	0.006	0.003	0.003	0.006	9.919177478027343	0.010773907470703125	0.00718260498046875	2.368927001953125	-3.589630126953125	-0.850677490234375	9.76116016845703	0.6625953094482422	0.11073182678222655	0.705718994140625	-4.7607421875	-3.08990478515625	9.970054263305663	0.6117185241699218	-0.20350714111328125	2.727508544921875	-4.764556884765625	-1.659393310546875	
171	0.684	0.0	0.0	0.0	0.0	0.006	0.003	0.003	0.006	9.89523546142578	-0.08918401184082031	-0.011372457885742187	2.445220947265625	-3.79180908203125	-0.89263916015625	9.82580361328125	0.5003881469726562	0.08678981018066406	0.766754150390625	-4.73785400390625	-3.604888916015625	9.987412225341796	0.33578678283691404	-0.20290859069824219	2.8839111328125	-4.73785400390625	-1.880645751953125	
172	0.6880000000000001	0.0	0.0	0.0	0.0	0.009000000000000001	0.006	0.003	0.006	9.923965881347655	-0.013766659545898436	0.0017956512451171875	2.506256103515625	-3.849029541015625	-0.61798095703125	9.726444244384766	0.7320271575927734	0.2885013000488281	0.57220458984375	-5.023956298828125	-3.34930419921875	9.96047745666504	0.5931634613037109	-0.1849520782470703	2.6092529296875	-4.8828125	-1.7242431640625	
173	0.6920000000000001	0.0	0.0	0.0	0.0	0.006	0.006	0.003	0.006	9.905410818481444	-0.07781155395507812	-0.010175357055664061	2.43377685546875	-3.60870361328125	-0.7781982421875	9.820416659545899	0.5518634826660156	0.08559270935058594	0.675201416015625	-4.909515380859375	-3.368377685546875	10.092757098388672	0.3447650390625	-0.3315969299316406	2.81524658203125	-4.7760009765625	-1.781463623046875	
174	0.6960000000000001	0.0	0.0	0.0	0.0	0.003	0.003	0.003	0.006	9.733028298950195	0.21487959899902342	0.2442085693359375	2.5787353515625	-3.704071044921875	-0.7781982421875	9.71686743774414	0.7158662963867187	0.32082302246093747	0.762939453125	-5.237579345703125	-3.4027099609375	9.943718045043944	0.5740098480224609	-0.14125789794921875	2.590179443359375	-4.67681884765625	-1.64031982421875	
175	0.7000000000000001	0.0	0.0	0.0	0.0	0.003	0.006	0.003	0.006	9.900622415161132	-0.11731588134765625	0.0053869537353515625	2.117156982421875	-3.753662109375	-0.873565673828125	9.866505041503906	0.4632780212402344	0.12449848632812499	0.5950927734375	-5.176544189453125	-3.5400390625	10.103531005859374	0.27174188842773433	-0.3268085266113281	2.559661865234375	-4.50897216796875	-1.7242431640625	
176	0.704	0.0	0.0	0.0	0.0	0.003	0.006	0.006	0.003	9.735422500610351	0.2537853759765625	0.26336218261718747	2.532958984375	-3.673553466796875	-0.560760498046875	9.732429748535155	0.7649474304199219	0.3280056274414062	0.568389892578125	-5.16510009765625	-3.192901611328125	9.975441217041014	0.6757634185791015	-0.1945288848876953	2.55584716796875	-4.58526611328125	-1.739501953125	
177	0.708	0.0	0.0	0.0	0.0	0.006	0.006	0.006	0.003	9.854534033203125	0.03232172241210937	0.14784195251464843	1.613616943359375	-3.284454345703125	-0.77056884765625	9.85692823486328	0.4483142608642578	0.12449848632812499	0.926971435546875	-5.22613525390625	-3.337860107421875	10.121487518310547	0.25917232971191406	-0.3429693878173828	2.803802490234375	-4.57763671875	-1.804351806640625	
178	0.712	0.0	0.0	0.0	0.0	0.006	0.003	0.003	0.003	9.730035546875	0.24660277099609373	0.3058592620849609	2.506256103515625	-3.80706787109375	-0.7171630859375	9.718064538574218	0.7362170104980469	0.28730419921875	0.946044921875	-4.993438720703125	-3.551483154296875	9.968258612060547	0.6362590911865234	-0.16879121704101563	2.70843505859375	-4.5928955078125	-1.819610595703125	
179	0.716	0.0	0.0	0.0	0.0	0.006	0.006	0.006	0.003	9.86411083984375	0.04249707946777344	0.14125789794921875	1.59454345703125	-3.452301025390625	-0.995635986328125	9.87727894897461	0.4686649749755859	0.11851298217773437	0.7476806640625	-5.02777099609375	-3.3111572265625	10.01015714111328	0.3764882110595703	-0.2567781280517578	2.72369384765625	-4.520416259765625	-1.903533935546875	
180	0.72	0.0	0.0	0.0	0.0	0.003	0.003	0.003	0.006	9.704297879028319	0.23882161560058593	0.33698388366699217	2.685546875	-3.643035888671875	-0.70953369140625	9.715670336914062	0.7487865692138671	0.3076549133300781	0.926971435546875	-5.268096923828125	-3.475189208984375	9.976638317871092	0.6548141540527344	-0.15562310791015624	2.52532958984375	-4.573822021484375	-1.8768310546875	
181	0.724	0.0	0.0	0.0	0.0	0.003	0.006	0.006	0.003	9.85692823486328	0.02154781494140625	0.1592144104003906	1.73187255859375	-3.200531005859375	-1.0528564453125	9.767145672607422	0.4656722229003906	0.2747346405029297	0.3662109375	-5.04302978515625	-3.131866455078125	10.018536846923828	0.31483751831054685	-0.24480711975097655	2.70843505859375	-4.852294921875	-1.46484375	
182	0.728	0.0	0.0	0.0	0.0	0.006	0.003	0.003	0.006	9.868300692749022	0.22685060729980466	-0.031124621582031248	2.338409423828125	-3.13568115234375	-1.125335693359375	9.719860189819336	0.8062474090576172	0.31483751831054685	0.49591064453125	-4.856109619140625	-3.597259521484375	9.98501802368164	0.7104793426513671	-0.15741875915527342	2.44140625	-4.756927490234375	-1.678466796875	
183	0.732	0.0	0.0	0.0	0.0	0.003	0.006	0.003	0.003	9.850344180297851	0.022744915771484374	0.16819266662597654	1.598358154296875	-3.204345703125	-0.843048095703125	9.788693487548828	0.4429273071289062	0.2645592834472656	0.518798828125	-4.94384765625	-3.261566162109375	10.025719451904296	0.2920926025390625	-0.25797522888183594	2.593994140625	-4.650115966796875	-1.678466796875	
184	0.736	0.0	0.0	0.0	0.0	0.012	0.003	0.006	0.003	9.866505041503906	0.22206220397949217	-0.03411737365722656	2.37274169921875	-3.528594970703125	-0.9307861328125	9.717465988159178	0.5159504577636719	0.16759411621093748	0.545501708984375	-4.863739013671875	-3.7689208984375	9.858125335693359	0.48722003784179685	-0.06883329772949218	2.655029296875	-4.505157470703125	-2.231597900390625	
185	0.74	0.0	0.0	0.0	0.0	0.006	0.003	0.003	0.006	9.871891995239258	0.06643909606933593	0.17357962036132812	3.45611572265625	-4.7149658203125	-0.858306884765625	9.792284790039062	0.47644613037109373	0.2765302917480469	0.720977783203125	-4.8980712890625	-3.25775146484375	10.025120901489258	0.33698388366699217	-0.2705447875976562	2.86865234375	-4.8980712890625	-1.59454345703125	
186	0.744	0.0	0.0	0.0	0.0	0.003	0.003	0.003	0.003	9.86291373901367	0.2442085693359375	-0.02633621826171875	2.61688232421875	-3.421783447265625	-1.247406005859375	9.719261639404296	0.5153519073486328	0.17357962036132812	0.537872314453125	-4.84466552734375	-3.765106201171875	9.8449572265625	0.507570751953125	-0.05566518859863281	2.57110595703125	-4.703521728515625	-2.025604248046875	
187	0.748	0.0	0.0	0.0	0.0	0.003	0.003	0.006	0.006	9.826402163696288	0.34835634155273437	-0.012569558715820313	3.72314453125	-4.337310791015625	-0.75531005859375	9.785102185058593	0.3962403747558593	0.3022679595947265	0.52642822265625	-5.161285400390625	-3.154754638671875	9.8449572265625	0.4291606475830078	-0.08379705810546874	2.60162353515625	-4.7607421875	-1.476287841796875	
188	0.752	0.0	0.0	0.0	0.0	0.0	0.003	0.006	0.006	9.85692823486328	0.3022679595947265	-0.05686228942871093	2.651214599609375	-3.448486328125	-1.415252685546875	9.720458740234374	0.5189432098388671	0.1466448516845703	0.385284423828125	-4.98199462890625	-3.719329833984375	9.830592016601562	0.5548562347412109	-0.05087678527832031	2.54058837890625	-4.566192626953125	-2.20489501953125	
189	0.756	0.0	0.0	0.0	0.0	0.003	0.003	0.006	0.003	9.828796365356444	0.3597287994384765	-0.044292730712890624	3.704071044921875	-4.57763671875	-1.094818115234375	9.686939916992188	0.565630142211914	0.1304839904785156	0.52642822265625	-5.02777099609375	-3.078460693359375	9.840168823242188	0.4632780212402344	-0.08798691101074219	2.536773681640625	-4.92095947265625	-1.659393310546875	
190	0.76	0.0	0.0	0.0	0.0	0.012	0.006	0.006	0.006	9.950302099609374	-0.09576806640624999	-0.016160861206054686	3.459930419921875	-4.528045654296875	-0.904083251953125	9.731831198120117	0.46148236999511716	0.143652099609375	0.598907470703125	-5.077362060546875	-3.37982177734375	10.019135397338866	0.2262520568847656	-0.20530279235839843	2.574920654296875	-4.70733642578125	-2.166748046875	
191	0.764	0.0	0.0	0.0	0.0	0.009000000000000001	0.006	0.003	0.006	9.819219558715819	0.34835634155273437	-0.07900865478515624	3.56292724609375	-4.486083984375	-1.010894775390625	9.679757312011718	0.565630142211914	0.13766659545898435	0.362396240234375	-5.279541015625	-3.021240234375	9.828197814941406	0.4477157104492187	-0.08499415893554688	2.4261474609375	-4.665374755859375	-1.64031982421875	
192	0.768	0.0	0.0	0.0	0.0	0.0	0.006	0.006	0.006	9.94012674255371	-0.1945288848876953	-0.03651157531738281	3.19671630859375	-4.21142578125	-0.980377197265625	9.858125335693359	0.37768531188964843	0.059256491088867186	0.701904296875	-5.2947998046875	-3.41796875	10.02392380065918	0.26216508178710934	-0.22086510314941404	2.597808837890625	-4.69207763671875	-1.861572265625	
193	0.772	0.0	0.0	0.0	0.0	0.006	0.003	0.006	0.003	9.839570272827148	0.26755203552246093	-0.09816226806640624	3.6773681640625	-4.96673583984375	-1.026153564453125	9.668384854125977	0.4944026428222656	0.1322796417236328	0.324249267578125	-5.1116943359375	-3.025054931640625	9.81263550415039	0.40222587890625	-0.08678981018066406	2.75421142578125	-4.852294921875	-1.689910888671875	
194	0.776	0.0	0.0	0.0	0.0	0.003	0.003	0.003	0.003	9.941323843383788	-0.29089550170898437	-0.07362170104980469	2.716064453125	-4.116058349609375	-0.98419189453125	9.842563024902343	0.3752911102294922	0.040701428222656245	0.396728515625	-4.886627197265625	-3.3416748046875	10.031106405639648	0.2501940734863281	-0.22266075439453123	2.44140625	-4.398345947265625	-2.178192138671875	
195	0.78	0.0	0.0	0.0	0.0	0.006	0.006	0.006	0.006	9.889249957275391	-0.411802685546875	0.19931728820800781	1.094818115234375	-3.116607666015625	-0.45013427734375	9.775525378417969	0.7697358337402344	0.23702596435546874	0.522613525390625	-5.184173583984375	-3.21197509765625	9.96586441040039	0.661398208618164	-0.1562216583251953	2.86865234375	-4.665374755859375	-1.338958740234375	
196	0.784	0.0	0.0	0.0	0.0	0.006	0.003	0.003	0.006	9.945513696289062	-0.4207809417724609	-0.07062894897460938	2.3193359375	-3.86810302734375	-0.99945068359375	9.830592016601562	0.36212300109863277	0.04249707946777344	0.453948974609375	-5.214691162109375	-3.33404541015625	10.01674119567871	0.21248539733886718	-0.22086510314941404	2.43377685546875	-4.486083984375	-2.03704833984375	
197	0.788	0.0	0.0	0.0	0.0	0.003	0.006	0.006	0.006	9.889249957275391	-0.4327519500732422	0.22266075439453123	0.865936279296875	-2.6092529296875	-0.293731689453125	9.789890588378906	0.7625532287597656	0.2059013427734375	0.522613525390625	-5.1116943359375	-3.231048583984375	9.96586441040039	0.6308721374511719	-0.15382745666503905	2.93731689453125	-4.638671875	-1.44195556640625	
198	0.792	0.0	0.0	0.0	0.0	0.003	0.006	0.003	0.0	9.943718045043944	-0.5165490081787109	-0.06284779357910156	1.110076904296875	-2.872467041015625	-0.545501708984375	9.932345587158203	0.4644751220703125	0.013766659545898436	1.19781494140625	-5.13458251953125	-3.4637451171875	10.299855541992187	0.12689268798828124	-0.5380968231201172	3.05938720703125	-4.5928955078125	-1.80816650390625	
199	0.796	0.0	0.0	0.0	0.0	0.003	0.006	0.006	0.003	9.880870251464843	-0.37229835815429685	0.2597708801269531	0.545501708984375	-2.696990966796875	-0.385284423828125	9.76175871887207	0.8271966735839843	0.21009119567871093	0.2899169921875	-5.05828857421875	-3.05938720703125	9.949703549194336	0.6584054565429687	-0.13766659545898435	2.773284912109375	-4.4097900390625	-1.15966796875	
200	0.8	0.0	0.0	0.0	0.0	0.0	0.006	0.003	0.003	9.916783276367187	-0.12509703674316405	0.1322796417236328	1.129150390625	-3.07464599609375	-0.453948974609375	9.928754284667969	0.4542997650146484	0.016759411621093748	0.873565673828125	-4.89044189453125	-3.597259521484375	10.292672937011718	0.07242460021972656	-0.565031591796875	3.05938720703125	-4.642486572265625	-1.82342529296875	
201	0.804	0.0	0.0	0.0	0.0	0.003	0.006	0.006	0.006	9.852738381958007	-0.3076549133300781	0.3058592620849609	0.31280517578125	-2.3345947265625	-0.171661376953125	9.697115274047851	0.7811082916259765	0.33399113159179683	0.919342041015625	-4.6844482421875	-3.3721923828125	10.018536846923828	0.7661445312499999	-0.17298106994628906	2.84576416015625	-4.69970703125	-2.040863037109375	
202	0.808	0.0	0.0	0.0	0.0	0.003	0.006	0.006	0.003	9.929951385498047	0.027533319091796873	0.12150573425292968	1.67083740234375	-3.162384033203125	-0.431060791015625	9.92755718383789	0.5141548065185546	0.02154781494140625	1.07574462890625	-5.115509033203125	-3.53240966796875	10.29207438659668	0.12449848632812499	-0.5913678100585937	3.07464599609375	-4.825592041015625	-1.62506103515625	
203	0.812	0.0	0.0	0.0	0.0	0.003	0.006	0.006	0.006	9.828197814941406	0.862511148071289	0.059256491088867186	4.69970703125	-4.695892333984375	-0.8392333984375	9.701305126953125	0.7230489013671875	0.34117373657226563	1.068115234375	-5.0201416015625	-3.5552978515625	10.014945544433592	0.7493851196289062	-0.18315642700195311	2.880096435546875	-4.81414794921875	-1.735687255859375	
204	0.8160000000000001	0.0	0.0	0.0	0.0	0.003	0.006	0.006	0.003	9.93414123840332	0.16160861206054686	0.09756371765136718	1.873016357421875	-3.21197509765625	-0.621795654296875	9.855731134033203	0.26755203552246093	0.2088940948486328	0.362396240234375	-5.0201416015625	-3.078460693359375	10.324994659423828	0.1274912384033203	-0.613514175415039	2.925872802734375	-4.978179931640625	-1.65557861328125	
205	0.8200000000000001	0.0	0.0	0.0	0.0	0.003	0.006	0.003	0.0	9.87009634399414	0.9337386474609375	-0.013766659545898436	5.229949951171875	-4.82940673828125	-1.071929931640625	9.704896429443359	0.7104793426513671	0.3591302490234375	0.67138671875	-4.863739013671875	-3.528594970703125	10.03050785522461	0.7936778503417968	-0.18914193115234373	2.84576416015625	-4.619598388671875	-2.0599365234375	
206	0.8240000000000001	0.0	0.0	0.0	0.0	0.006	0.003	0.003	0.003	9.938331091308592	0.3268085266113281	0.10893617553710937	2.445220947265625	-3.513336181640625	-0.743865966796875	9.866505041503906	0.2328361114501953	0.20709844360351562	0.522613525390625	-5.0506591796875	-3.200531005859375	10.007762939453125	0.26874913635253905	-0.3591302490234375	2.61688232421875	-4.8675537109375	-1.934051513671875	
207	0.8280000000000001	0.0	0.0	0.0	0.0	0.003	0.003	0.006	0.003	9.909600671386718	0.9319429962158202	-0.07003039855957031	5.641937255859375	-5.48553466796875	-1.224517822265625	9.77492682800293	0.7523778717041015	0.09816226806640624	0.3509521484375	-5.039215087890625	-3.5247802734375	10.033500607299803	0.8122329132080077	-0.1927332336425781	2.95257568359375	-4.66156005859375	-1.789093017578125	
208	0.8320000000000001	0.0	0.0	0.0	0.0	0.003	0.006	0.003	0.006	9.8694977935791	0.41539398803710936	-0.07003039855957031	6.4544677734375	-5.8135986328125	-0.934600830078125	9.885658654785155	0.1771709228515625	0.18555062866210936	0.5950927734375	-5.02777099609375	-3.021240234375	10.007164389038085	0.21308394775390624	-0.34715924072265625	2.5177001953125	-4.894256591796875	-1.819610595703125	
209	0.836	0.0	0.0	0.0	0.0	0.006	0.006	0.003	0.006	9.920374578857421	0.9074024291992187	-0.0909796630859375	6.046295166015625	-5.588531494140625	-1.300811767578125	9.756371765136718	0.5117606048583984	0.12629413757324218	0.5035400390625	-5.115509033203125	-3.376007080078125	9.745597857666015	0.6206967803955078	-0.020949264526367185	2.38800048828125	-4.6539306640625	-2.101898193359375	
210	0.84	0.0	0.0	0.0	0.0	0.003	0.006	0.006	0.006	9.848548529052733	0.3190273712158203	-0.044292730712890624	6.084442138671875	-5.817413330078125	-1.16729736328125	9.906009368896484	0.24301146850585936	0.16759411621093748	0.1220703125	-5.2032470703125	-2.864837646484375	10.014945544433592	0.24001871643066405	-0.3381809844970703	2.559661865234375	-5.008697509765625	-1.773834228515625	
211	0.844	0.0	0.0	0.0	0.0	0.0	0.003	0.003	0.003	9.928754284667969	0.8062474090576172	-0.12389993591308593	1.880645751953125	-3.330230712890625	-1.251220703125	9.765350021362304	0.5422866760253906	0.14185644836425781	0.52642822265625	-5.06591796875	-3.37982177734375	9.731232647705077	0.6194996795654296	-0.002992752075195312	2.18963623046875	-4.711151123046875	-2.288818359375	
212	0.848	0.0	0.0	0.0	0.0	0.006	0.006	0.006	0.0	9.816226806640625	0.16460136413574217	-0.010773907470703125	5.43212890625	-5.43212890625	-1.1138916015625	9.654019644165038	0.7463923675537109	0.16519991455078123	0.164031982421875	-5.496978759765625	-2.8839111328125	9.775525378417969	0.4572925170898437	-0.020350714111328123	2.521514892578125	-5.0201416015625	-1.50299072265625	
213	0.852	0.0	0.0	0.0	0.0	0.003	0.003	0.003	0.003	9.813832604980469	-0.39743747558593745	0.1352723937988281	1.1138916015625	-2.857208251953125	-1.251220703125	9.74799205932617	0.6584054565429687	0.16460136413574217	0.370025634765625	-5.031585693359375	-3.3111572265625	9.712079034423828	0.6183025787353515	0.04608838195800781	2.445220947265625	-4.46319580078125	-2.02178955078125	
214	0.856	0.0	0.0	0.0	0.0	0.006	0.006	0.003	0.003	9.787496386718749	0.09337386474609374	0.04967968444824218	4.47845458984375	-5.0506591796875	-1.21307373046875	9.668983404541015	0.6961141326904297	0.16699556579589842	0.316619873046875	-5.168914794921875	-2.960205078125	9.7683427734375	0.5027823486328125	0.020350714111328123	2.5177001953125	-5.0201416015625	-1.48773193359375	
215	0.86	0.0	0.0	0.0	0.0	0.003	0.003	0.003	0.003	9.819219558715819	-0.4590881683349609	0.12868833923339842	0.152587890625	-2.338409423828125	-1.373291015625	9.72285294189453	0.5620388397216797	0.14185644836425781	0.514984130859375	-5.062103271484375	-3.80706787109375	9.720458740234374	0.49799394531249996	0.06883329772949218	2.6397705078125	-4.467010498046875	-2.14385986328125	
216	0.864	0.0	0.0	0.0	0.0	0.003	0.003	0.006	0.003	9.919776028442381	-0.5776011505126952	-0.01975216369628906	-2.063751220703125	-1.0223388671875	-0.530242919921875	9.6917283203125	0.4908113403320312	0.18854338073730467	0.225067138671875	-5.168914794921875	-3.0364990234375	9.762955819702148	0.535702621459961	0.025737667846679687	2.437591552734375	-4.657745361328125	-1.560211181640625	
217	0.868	0.0	0.0	0.0	0.0	0.003	0.003	0.006	0.003	9.835978970336914	-0.47644613037109373	0.12868833923339842	-0.35858154296875	-2.06756591796875	-1.232147216796875	9.704297879028319	0.5889736083984375	0.14125789794921875	0.049591064453125	-4.978179931640625	-3.570556640625	9.99220062866211	0.1975216369628906	-0.16160861206054686	2.529144287109375	-4.505157470703125	-2.0751953125	
218	0.872	0.0	0.0	0.0	0.0	0.009000000000000001	0.003	0.003	0.003	9.968258612060547	-0.469862075805664	-0.034715924072265626	-1.209259033203125	-1.97601318359375	-0.385284423828125	9.714473236083984	0.6757634185791015	0.2597708801269531	0.55694580078125	-5.1116943359375	-3.421783447265625	9.76116016845703	0.6302735870361328	0.011372457885742187	2.62451171875	-4.871368408203125	-1.53350830078125	
219	0.876	0.0	0.0	0.0	0.0	0.006	0.003	0.003	0.006	9.859920986938477	-0.4560954162597656	0.11013327636718749	-0.438690185546875	-2.063751220703125	-1.10626220703125	9.686341366577148	0.5051765502929687	0.15203180541992187	0.476837158203125	-4.75311279296875	-3.551483154296875	10.007762939453125	0.17058686828613281	-0.1867477294921875	2.685546875	-4.43267822265625	-1.941680908203125	
220	0.88	0.0	0.0	0.0	0.0	0.003	0.003	0.006	0.003	9.983820922851562	-0.4147954376220703	-0.037110125732421874	-0.80108642578125	-1.956939697265625	-0.583648681640625	9.701305126953125	0.6428431457519531	0.25737667846679685	0.80108642578125	-5.313873291015625	-3.33404541015625	9.9461122467041	0.7015010864257812	-0.05805939025878906	2.7923583984375	-4.802703857421875	-1.735687255859375	
221	0.884	0.0	0.0	0.0	0.0	0.003	0.003	0.006	0.003	9.951499200439452	-0.033518823242187495	0.05686228942871093	3.810882568359375	-4.512786865234375	-0.698089599609375	9.880271701049804	0.4644751220703125	0.10354922180175781	1.04522705078125	-4.825592041015625	-3.53240966796875	9.99220062866211	0.1693897674560547	-0.19991583862304688	2.574920654296875	-4.428863525390625	-1.80816650390625	
222	0.888	0.0	0.0	0.0	0.0	0.003	0.003	0.003	0.003	9.991003527832031	-0.3896563201904297	-0.01915361328125	-0.423431396484375	-2.178192138671875	-0.5340576171875	9.708487731933593	0.5147533569335937	0.24480711975097655	0.51116943359375	-5.138397216796875	-3.2806396484375	9.954491952514648	0.6362590911865234	-0.09696516723632811	2.826690673828125	-4.61578369140625	-1.83868408203125	
223	0.892	0.0	0.0	0.0	0.0	0.006	0.003	0.006	0.006	9.941922393798828	-0.08439560852050781	0.044292730712890624	3.30352783203125	-3.936767578125	-0.5645751953125	9.87009634399414	0.5764040496826172	0.08978256225585937	1.026153564453125	-5.146026611328125	-3.6468505859375	10.313023651123046	0.35793314819335936	-0.6494272003173828	2.910614013671875	-4.566192626953125	-1.15203857421875	
224	0.896	0.0	0.0	0.0	0.0	0.006	0.003	0.003	0.006	9.97783541870117	-0.30047230834960936	0.0053869537353515625	4.856109619140625	-5.016326904296875	-0.3814697265625	9.722254391479492	0.612915625	0.4429273071289062	0.667572021484375	-4.993438720703125	-3.101348876953125	9.932345587158203	0.5722141967773438	-0.08080430603027343	3.0059814453125	-4.680633544921875	-1.735687255859375	
225	0.9	0.0	0.0	0.0	0.0	0.003	0.006	0.003	0.003	9.944316595458984	-0.18315642700195311	0.04967968444824218	2.826690673828125	-4.21905517578125	-0.751495361328125	9.88266590270996	0.6212953308105469	0.062249243164062495	0.81634521484375	-5.084991455078125	-3.337860107421875	10.31721350402832	0.3920505218505859	-0.6643909606933593	3.0670166015625	-4.421234130859375	-1.45721435546875	
226	0.904	0.0	0.0	0.0	0.0	0.0	0.003	0.003	0.006	9.70968483276367	0.6308721374511719	0.3381809844970703	4.199981689453125	-4.730224609375	-0.476837158203125	9.744400756835937	0.5704185455322265	0.4369418029785156	0.736236572265625	-4.962921142578125	-3.143310546875	9.95389340209961	0.5327098693847656	-0.07781155395507812	2.910614013671875	-4.638671875	-1.60980224609375	
227	0.908	0.0	0.0	0.0	0.0	0.006	0.003	0.003	0.003	9.929352835083007	-0.19153613281249998	0.059256491088867186	2.93731689453125	-4.4097900390625	-1.10626220703125	9.999981784057617	0.5680243438720702	0.025737667846679687	0.89263916015625	-4.8980712890625	-3.4027099609375	10.327388861083984	0.39145197143554683	-0.6673837127685547	2.83050537109375	-4.5013427734375	-1.373291015625	
228	0.912	0.0	0.0	0.0	0.0	0.0	0.006	0.006	0.003	9.692925421142577	0.7110778930664062	0.3315969299316406	4.39453125	-4.596710205078125	-0.637054443359375	9.756970315551758	0.546476528930664	0.4177881896972656	0.835418701171875	-5.218505859375	-3.3416748046875	10.032303506469725	0.41359833679199215	-0.1149216796875	3.017425537109375	-4.5013427734375	-1.8768310546875	
229	0.916	0.0	0.0	0.0	0.0	0.003	0.003	0.003	0.003	9.926958633422851	-0.13587094421386717	-0.0005985504150390625	1.552581787109375	-3.299713134765625	-0.80108642578125	9.999383233642577	0.565031591796875	0.012569558715820313	1.026153564453125	-5.023956298828125	-3.276824951171875	10.331578713989257	0.3896563201904297	-0.680551821899414	2.960205078125	-4.4097900390625	-1.434326171875	
230	0.92	0.0	0.0	0.0	0.0	0.006	0.003	0.003	0.003	9.689334118652344	0.7990648040771484	0.28790274963378903	4.840850830078125	-4.9591064453125	-0.453948974609375	9.743802206420899	0.5386953735351562	0.41958384094238277	0.431060791015625	-4.913330078125	-3.15093994140625	10.03050785522461	0.4112041351318359	-0.14245499877929688	2.902984619140625	-4.795074462890625	-1.89971923828125	
231	0.924	0.0	0.0	0.0	0.0	0.003	0.003	0.003	0.003	9.890447058105469	-0.2454056701660156	0.044891281127929686	1.941680908203125	-3.353118896484375	-0.64849853515625	9.982025271606444	0.5823895538330078	-0.0017956512451171875	0.881195068359375	-5.100250244140625	-3.37982177734375	9.98501802368164	0.508169302368164	-0.27952304382324217	2.5177001953125	-4.711151123046875	-1.51824951171875	
232	0.928	0.0	0.0	0.0	0.0	0.006	0.006	0.006	0.006	9.688137017822266	0.479438882446289	0.28012159423828126	4.482269287109375	-4.8370361328125	-0.888824462890625	9.677363110351562	0.612915625	0.30047230834960936	0.4730224609375	-5.22613525390625	-3.444671630859375	10.037091909790039	0.43035774841308594	-0.12988544006347655	2.986907958984375	-4.791259765625	-2.056121826171875	
233	0.932	0.0	0.0	0.0	0.0	0.006	0.003	0.003	0.006	9.892242709350585	-0.09157821350097656	0.029927520751953124	1.85394287109375	-3.23486328125	-1.346588134765625	10.013748443603514	0.5662286926269531	-0.020350714111328123	1.049041748046875	-4.924774169921875	-3.33404541015625	10.041281762695311	0.5297171173095703	-0.2711433380126953	2.8839111328125	-4.8370361328125	-1.682281494140625	
234	0.936	0.0	0.0	0.0	0.0	0.003	0.003	0.006	0.003	9.86411083984375	0.29448680419921874	-0.07422025146484375	2.08282470703125	-3.505706787109375	-1.312255859375	9.673771807861328	0.5967547637939453	0.30047230834960936	0.3509521484375	-5.115509033203125	-3.51715087890625	9.715670336914062	0.2041056915283203	0.11671733093261719	2.35748291015625	-4.901885986328125	-2.1820068359375	
235	0.9400000000000001	0.0	0.0	0.0	0.0	0.003	0.006	0.006	0.006	9.884461553955077	-0.27832594299316404	0.0652419952392578	1.712799072265625	-3.3721923828125	-0.7781982421875	9.756371765136718	0.5668272430419922	0.10594342346191406	0.774383544921875	-5.18035888671875	-3.192901611328125	9.99220062866211	0.5973533142089843	-0.28909985046386716	2.780914306640625	-4.8370361328125	-1.86920166015625	
236	0.9440000000000001	0.0	0.0	0.0	0.0	0.006	0.006	0.006	0.003	9.872490545654296	0.16340426330566404	-0.14724340209960937	1.949310302734375	-3.1585693359375	-1.0528564453125	9.679158761596678	0.5859808563232421	0.28431144714355466	0.362396240234375	-4.787445068359375	-3.41796875	9.74200655517578	0.2328361114501953	0.07541735229492187	2.20489501953125	-4.791259765625	-2.2430419921875	
237	0.9480000000000001	0.0	0.0	0.0	0.0	0.003	0.006	0.006	0.003	9.84555577697754	0.39444472351074217	0.05746083984375	3.1890869140625	-4.39453125	-1.0833740234375	9.758765966796874	0.5674257934570313	0.1370680450439453	0.701904296875	-5.31005859375	-3.276824951171875	10.028113653564452	0.5853823059082031	-0.29448680419921874	2.34222412109375	-5.07354736328125	-1.861572265625	
238	0.9520000000000001	0.0	0.0	0.0	0.0	0.003	0.006	0.006	0.006	9.80724855041504	-0.25797522888183594	-0.029328970336914062	1.068115234375	-2.826690673828125	-1.50299072265625	9.61451531677246	0.5416881256103515	0.2442085693359375	0.18310546875	-4.81414794921875	-3.51715087890625	9.708487731933593	0.24779987182617186	0.12569558715820311	2.155303955078125	-4.573822021484375	-2.3345947265625	
239	0.9560000000000001	0.0	0.0	0.0	0.0	0.003	0.006	0.006	0.003	9.846752877807617	-0.007781155395507812	-0.09457096557617187	1.247406005859375	-3.009796142578125	-0.7781982421875	9.80066449584961	0.5835866546630859	0.08140285644531249	0.51116943359375	-4.95147705078125	-3.326416015625	9.801861596679688	0.6434416961669921	-0.0430956298828125	2.407073974609375	-4.787445068359375	-2.010345458984375	
240	0.96	0.0	0.0	0.0	0.0	0.006	0.006	0.006	0.006	9.878476049804688	-0.17118541870117188	-0.11372457885742186	0.0762939453125	-2.269744873046875	-1.09100341796875	9.63307037963867	0.5219359619140624	0.22206220397949217	0.152587890625	-5.123138427734375	-3.42559814453125	9.731232647705077	0.19093758239746092	0.058657940673828124	2.254486083984375	-4.711151123046875	-1.979827880859375	
241	0.964	0.0	0.0	0.0	0.0	0.006	0.003	0.003	0.003	9.83897172241211	0.2753331909179687	-0.11432312927246092	2.597808837890625	-3.879547119140625	-0.89263916015625	9.647435589599608	0.5051765502929687	0.2154781494140625	0.682830810546875	-5.07354736328125	-3.368377685546875	9.741408004760741	0.6314706878662109	-0.003591302490234375	2.338409423828125	-4.962921142578125	-1.983642578125	
242	0.968	0.0	0.0	0.0	0.0	0.003	0.003	0.006	0.003	9.90900212097168	0.023942016601562498	0.05985504150390625	3.841400146484375	-4.848480224609375	-0.804901123046875	9.630676177978515	0.5153519073486328	0.24480711975097655	0.40435791015625	-4.589080810546875	-3.53240966796875	9.983820922851562	0.2561795776367187	-0.25438392639160157	2.872467041015625	-4.32586669921875	-1.491546630859375	
243	0.972	0.0	0.0	0.0	0.0	0.003	0.003	0.003	0.003	9.884461553955077	-0.05686228942871093	-0.17956512451171874	1.567840576171875	-3.30352783203125	-0.911712646484375	9.688137017822266	0.469263525390625	0.16759411621093748	0.5340576171875	-5.24139404296875	-3.208160400390625	9.785102185058593	0.5823895538330078	0.006584054565429687	2.208709716796875	-4.817962646484375	-2.063751220703125	
244	0.976	0.0	0.0	0.0	0.0	0.003	0.006	0.003	0.003	9.93354268798828	0.18854338073730467	0.07003039855957031	3.8299560546875	-4.634857177734375	-0.4119873046875	9.82460651245117	0.5321113189697265	0.09696516723632811	0.759124755859375	-4.810333251953125	-3.383636474609375	9.97184991455078	0.2807201446533203	-0.277727392578125	2.597808837890625	-4.184722900390625	-1.47247314453125	
245	0.98	0.0	0.0	0.0	0.0	0.006	0.006	0.006	0.006	9.919177478027343	0.1897404815673828	-0.19033903198242186	2.0751953125	-3.505706787109375	-0.75531005859375	9.670180505371093	0.5039794494628906	0.18854338073730467	0.701904296875	-5.2642822265625	-3.299713134765625	9.894038360595703	0.46148236999511716	-0.06584054565429687	2.81524658203125	-4.72259521484375	-1.735687255859375	
246	0.984	0.0	0.0	0.0	0.0	0.006	0.003	0.003	0.003	9.93952819213867	0.14484920043945312	0.0652419952392578	4.638671875	-5.0201416015625	-0.57220458984375	9.846752877807617	0.535702621459961	0.11432312927246092	0.4730224609375	-4.76837158203125	-3.173828125	10.029310754394531	0.2902969512939453	-0.258573779296875	2.7923583984375	-4.467010498046875	-1.293182373046875	
247	0.988	0.0	0.0	0.0	0.0	0.006	0.006	0.003	0.0	9.873687646484374	0.07481880187988281	0.297479556274414	3.742218017578125	-4.547119140625	-0.484466552734375	9.777321029663085	0.5201403106689453	0.37888241271972656	0.55694580078125	-5.14984130859375	-3.31878662109375	9.950302099609374	0.3842693664550781	-0.04848258361816406	2.933502197265625	-4.871368408203125	-1.88446044921875	
248	0.992	0.0	0.0	0.0	0.0	0.006	0.003	0.006	0.006	9.90840357055664	0.0987608184814453	0.07422025146484375	4.138946533203125	-4.8828125	-0.67138671875	9.787496386718749	0.5973533142089843	0.1292868896484375	0.629425048828125	-4.802703857421875	-3.48663330078125	9.906009368896484	0.37768531188964843	-0.1927332336425781	2.899169921875	-4.505157470703125	-1.277923583984375	
249	0.996	0.0	0.0	0.0	0.0	0.0	0.003	0.003	0.003	9.892242709350585	0.36691140441894526	0.2549824768066406	4.57000732421875	-4.848480224609375	-0.37384033203125	9.79946739501953	0.5865794067382812	0.29388825378417965	0.34332275390625	-5.191802978515625	-3.360748291015625	9.931148486328125	0.43035774841308594	-0.11252747802734374	2.750396728515625	-4.70733642578125	-1.720428466796875	
250	1.0	0.0	0.0	0.0	0.0	0.003	0.003	0.003	0.006	9.977236868286132	0.09337386474609374	-0.05805939025878906	4.734039306640625	-4.734039306640625	-0.652313232421875	9.840168823242188	0.5608417388916015	0.1227028350830078	1.19781494140625	-4.93621826171875	-3.200531005859375	10.311826550292968	0.6099228729248046	-0.604535919189453	2.971649169921875	-4.482269287109375	-1.361846923828125	
251	1.004	0.0	0.0	0.0	0.0	0.003	0.003	0.003	0.006	9.82580361328125	0.27892449340820313	0.39983167724609375	4.550933837890625	-5.359649658203125	-0.560760498046875	9.770736975097655	0.5279214660644531	0.42975919799804685	0.5950927734375	-5.45501708984375	-3.337860107421875	9.911396322631836	0.32501287536621093	-0.02154781494140625	3.017425537109375	-4.718780517578125	-1.70135498046875	
252	1.008	0.0	0.0	0.0	0.0	0.006	0.006	0.003	0.003	9.93952819213867	-0.20051438903808594	0.12090718383789062	1.071929931640625	-3.0670166015625	-1.010894775390625	10.013149893188476	0.6494272003173828	-0.06943184814453125	1.24359130859375	-5.023956298828125	-3.345489501953125	10.290278735351562	0.6494272003173828	-0.6242880828857421	3.017425537109375	-4.82940673828125	-1.277923583984375	
253	1.012	0.0	0.0	0.0	0.0	0.006	0.006	0.003	0.006	9.859322436523437	0.3902548706054687	0.32022447204589843	4.520416259765625	-5.05828857421875	-0.48065185546875	9.86411083984375	0.5674257934570313	0.22026655273437498	0.461578369140625	-5.443572998046875	-3.269195556640625	10.044873065185547	0.3238157745361328	-0.17118541870117188	2.8839111328125	-4.581451416015625	-1.972198486328125	
254	1.016	0.0	0.0	0.0	0.0	0.006	0.006	0.003	0.006	9.95987890625	-0.18136077575683593	0.09696516723632811	1.384735107421875	-3.15093994140625	-1.36566162109375	10.029310754394531	0.5997475158691405	-0.1610100616455078	1.33514404296875	-4.970550537109375	-3.337860107421875	10.287285983276366	0.5877765075683593	-0.6159083770751953	2.96783447265625	-4.604339599609375	-1.556396484375	
255	1.02	0.0	0.0	0.0	0.0	0.003	0.003	0.006	0.006	9.804854348754882	0.18555062866210936	0.3076549133300781	1.27410888671875	-2.838134765625	-1.094818115234375	9.537302313232422	0.6817489227294922	0.5249287139892578	0.644683837890625	-5.435943603515625	-3.47900390625	9.951499200439452	0.3387795349121094	-0.08918401184082031	2.964019775390625	-4.73785400390625	-1.6632080078125	
256	1.024	0.0	0.0	0.0	0.0	0.0	0.003	0.003	0.006	9.956886154174803	-0.08738836059570312	0.14185644836425781	1.705169677734375	-3.07464599609375	-0.69427490234375	10.047267266845703	0.5829881042480468	-0.17298106994628906	1.15203857421875	-5.05828857421875	-3.204345703125	10.038887561035155	0.6105214233398437	-0.23343466186523437	2.72369384765625	-4.802703857421875	-1.8157958984375	
257	1.028	0.0	0.0	0.0	0.0	0.006	0.006	0.006	0.006	9.76894132385254	-0.11671733093261719	0.08499415893554688	0.934600830078125	-2.704620361328125	-1.338958740234375	9.6013472076416	0.6386532928466796	0.48722003784179685	0.49591064453125	-4.886627197265625	-3.131866455078125	10.070610733032225	0.3130418670654297	-0.21487959899902342	2.9296875	-4.665374755859375	-1.86920166015625	
258	1.032	0.0	0.0	0.0	0.0	0.006	0.003	0.003	0.006	9.944316595458984	-0.08020575561523437	0.20769699401855468	0.957489013671875	-2.841949462890625	-1.003265380859375	9.858125335693359	0.5704185455322265	0.105344873046875	0.90789794921875	-5.0201416015625	-3.437042236328125	10.035894808959961	0.5865794067382812	-0.239420166015625	2.529144287109375	-4.863739013671875	-1.750946044921875	
259	1.036	0.0	0.0	0.0	0.0	0.003	0.006	0.003	0.003	9.70968483276367	-0.0430956298828125	0.1879448303222656	1.018524169921875	-2.773284912109375	-1.361846923828125	9.559448678588867	0.6727706665039062	0.5117606048583984	0.34332275390625	-4.955291748046875	-3.192901611328125	9.98501802368164	0.39444472351074217	-0.16220716247558592	2.162933349609375	-4.642486572265625	-2.34222412109375	
260	1.04	0.0	0.0	0.0	0.0	0.0	0.006	0.003	0.003	9.850344180297851	-0.011971008300781249	0.006584054565429687	-0.03814697265625	-2.422332763671875	-0.75531005859375	9.967061511230469	0.5410895751953124	-0.03172317199707031	0.797271728515625	-4.833221435546875	-3.391265869140625	10.168174450683592	0.5919663604736328	-0.3573345977783203	2.7618408203125	-4.8370361328125	-1.86920166015625	
261	1.044	0.0	0.0	0.0	0.0	0.006	0.006	0.006	0.006	9.728239895629882	0.16639701538085935	0.22864625854492185	1.190185546875	-2.655029296875	-1.3427734375	9.600748657226562	0.5351040710449219	0.40581718139648437	-0.08392333984375	-4.665374755859375	-3.696441650390625	9.720458740234374	0.19931728820800781	0.07900865478515624	2.246856689453125	-4.528045654296875	-2.3956298828125	
262	1.048	0.0	0.0	0.0	0.0	0.003	0.006	0.003	0.003	9.765350021362304	-0.028730419921875	0.15682020874023436	0.324249267578125	-2.437591552734375	-1.2664794921875	9.847351428222655	0.6356605407714844	0.06943184814453125	0.598907470703125	-5.462646484375	-3.16619873046875	9.983820922851562	0.6973112335205077	-0.28371289672851563	2.52532958984375	-4.878997802734375	-1.739501953125	
263	1.052	0.0	0.0	0.0	0.0	0.0	0.006	0.003	0.003	9.819818109130859	-0.12808978881835936	0.1322796417236328	0.48828125	-2.25067138671875	-1.155853271484375	9.637858782958984	0.5680243438720702	0.3752911102294922	0.209808349609375	-4.84466552734375	-3.627777099609375	9.739612353515625	0.2561795776367187	0.017956512451171875	2.399444580078125	-4.60052490234375	-1.903533935546875	
264	1.056	0.0	0.0	0.0	0.0	0.003	0.006	4.632	4.611	9.816825357055663	0.18614917907714842	0.014963760375976562	0.934600830078125	-2.574920654296875	-0.972747802734375	9.751583361816406	0.5291185668945312	0.06643909606933593	0.57220458984375	-5.146026611328125	-3.24249267578125	9.879673150634765	0.5859808563232421	-0.03890577697753906	2.4566650390625	-4.6539306640625	-2.048492431640625	
265	1.06	0.0	0.0	0.0	0.0	4.626	4.65	4.6530000000000005	4.611	9.834781869506836	-0.06464344482421874	0.0430956298828125	2.7313232421875	-3.57818603515625	-1.010894775390625	9.487622628784179	0.5680243438720702	0.5644330413818359	-0.00762939453125	-4.73785400390625	-3.833770751953125	9.627084875488281	0.23044190979003906	0.09756371765136718	2.193450927734375	-4.657745361328125	-1.956939697265625	
266	1.064	0.0	0.0	0.0	0.0	4.632	4.65	4.6530000000000005	4.611	9.814431155395507	0.09935936889648436	0.023343466186523436	0.0152587890625	-2.193450927734375	-0.75531005859375	9.658209497070311	0.623090982055664	0.1562216583251953	0.736236572265625	-5.401611328125	-3.238677978515625	9.780912332153319	0.6943184814453125	-0.037110125732421874	2.5482177734375	-5.008697509765625	-2.033233642578125	
267	1.068	0.0	0.0	0.0	0.0	4.626	4.647	4.6530000000000005	4.623	9.950302099609374	0.2442085693359375	-0.14724340209960937	3.658294677734375	-4.215240478515625	-1.19781494140625	9.847351428222655	0.44532150878906246	-0.006584054565429687	0.164031982421875	-4.688262939453125	-3.658294677734375	10.063428128051758	0.31543606872558594	-0.3441664886474609	2.7313232421875	-4.619598388671875	-1.514434814453125	
268	1.072	0.0	0.0	0.0	0.0	4.623	4.656	4.656	4.626	9.74200655517578	0.10115502014160156	0.15203180541992187	3.50189208984375	-4.375457763671875	-0.705718994140625	9.639055883789062	0.48722003784179685	0.19812018737792966	0.83160400390625	-5.443572998046875	-3.387451171875	9.775525378417969	0.6338648895263671	0.001197100830078125	2.54058837890625	-4.82177734375	-1.99127197265625	
269	1.076	0.0	0.0	0.0	0.0	4.626	4.656	4.656	4.626	9.867103591918944	0.1227028350830078	0.016160861206054686	2.300262451171875	-3.57818603515625	-0.79345703125	9.689334118652344	0.5692214447021484	0.1514332550048828	0.057220458984375	-4.84466552734375	-3.589630126953125	9.918578927612304	0.4064157318115234	-0.28431144714355466	2.750396728515625	-4.2877197265625	-1.42669677734375	
270	1.08	0.0	0.0	0.0	0.0	4.617	4.65	4.6530000000000005	4.632	10.073603485107421	0.43933600463867184	-0.20530279235839843	4.978179931640625	-5.43212890625	-0.89263916015625	9.740809454345703	0.4034229797363281	0.12030863342285156	0.957489013671875	-5.39398193359375	-2.925872802734375	9.891644158935547	0.526125814819336	-0.029328970336914062	2.704620361328125	-4.840850830078125	-1.74713134765625	
271	1.084	0.0	0.0	0.0	0.0	4.632	4.6530000000000005	4.656	4.623	9.90840357055664	0.14784195251464843	-0.055066638183593745	3.8909912109375	-4.344940185546875	-1.30462646484375	9.760561618041992	0.5327098693847656	0.09217676391601562	0.286102294921875	-4.638671875	-3.7078857421875	10.032902056884765	0.33518823242187495	-0.3220201232910156	2.559661865234375	-4.192352294921875	-1.5411376953125	
272	1.088	0.0	0.0	0.0	0.0	4.626	4.656	4.656	4.6080000000000005	10.024522351074218	-0.051475335693359374	-0.10474632263183593	3.04412841796875	-4.0283203125	-0.3662109375	9.753977563476562	0.6087257720947266	0.1693897674560547	0.499725341796875	-4.856109619140625	-3.070831298828125	9.872490545654296	0.44891281127929683	-0.1406593475341797	2.880096435546875	-4.581451416015625	-1.678466796875	
273	1.092	0.0	0.0	0.0	0.0	4.632	4.6530000000000005	4.6530000000000005	4.611	10.002375985717773	0.5135562561035156	-0.05087678527832031	6.84356689453125	-6.298065185546875	-0.45013427734375	9.731831198120117	0.6111199737548828	0.12090718383789062	0.1678466796875	-4.894256591796875	-3.582000732421875	10.008361489868163	0.3597287994384765	-0.31184476623535157	2.86102294921875	-4.192352294921875	-1.41143798828125	
274	1.096	0.0	0.0	0.0	0.0	4.626	4.65	4.6530000000000005	4.617	10.08018753967285	0.39743747558593745	-0.201112939453125	5.680084228515625	-5.5694580078125	-1.01470947265625	9.911396322631836	0.44053310546874996	-0.047884033203124995	0.80108642578125	-4.9896240234375	-3.1585693359375	10.035296258544921	0.31483751831054685	-0.2328361114501953	3.002166748046875	-4.57000732421875	-1.70135498046875	
275	1.1	0.0	0.0	0.0	0.0	4.6290000000000004	4.656	4.656	4.623	9.99160207824707	-0.27293898925781246	0.025737667846679687	4.8370361328125	-5.035400390625	-0.659942626953125	9.988609326171874	0.5339069702148437	-0.1274912384033203	0.774383544921875	-4.718780517578125	-3.086090087890625	10.33696566772461	0.5458779785156249	-0.7242460021972655	2.964019775390625	-4.39453125	-1.377105712890625	
276	1.104	0.0	0.0	0.0	0.0	4.6290000000000004	4.656	4.6530000000000005	4.626	10.044873065185547	-0.16340426330566404	-0.105344873046875	3.05938720703125	-4.306793212890625	-0.5035400390625	9.78629928588867	0.5530605834960938	0.12988544006347655	0.3204345703125	-5.0506591796875	-3.124237060546875	9.907206469726562	0.42975919799804685	-0.1771709228515625	2.960205078125	-4.634857177734375	-1.6632080078125	
277	1.108	0.0	0.0	0.0	0.0	4.626	4.6530000000000005	4.6530000000000005	4.632	10.105925207519531	0.4471171600341797	-0.15861585998535155	6.195068359375	-5.886077880859375	-0.293731689453125	10.105326657104492	0.4525041137695312	-0.2651578338623047	0.8544921875	-4.978179931640625	-3.0670166015625	10.40639751586914	0.5099649536132812	-0.690128628540039	3.0517578125	-4.558563232421875	-1.377105712890625	
278	1.112	0.0	0.0	0.0	0.0	4.632	4.656	4.656	4.62	9.641450085449218	0.1610100616455078	0.3238157745361328	4.85992431640625	-5.0811767578125	-1.12152099609375	9.705494979858399	0.7134720947265625	0.3028665100097656	1.094818115234375	-5.504608154296875	-3.3416748046875	10.019733947753906	0.26396073303222656	-0.09816226806640624	2.98309326171875	-4.66156005859375	-1.82342529296875	
279	1.116	0.0	0.0	0.0	0.0	4.626	4.656	4.656	4.611	10.00955859069824	-0.1975216369628906	-0.020949264526367185	5.0048828125	-5.290985107421875	-0.9307861328125	9.93354268798828	0.5327098693847656	-0.047285482788085934	0.9765625	-5.0048828125	-3.345489501953125	10.254964260864257	0.5883750579833984	-0.594959112548828	3.0059814453125	-4.669189453125	-1.232147216796875	
280	1.12	0.0	0.0	0.0	0.0	4.6290000000000004	4.6530000000000005	4.6530000000000005	4.6080000000000005	9.663596450805663	0.009576806640625	0.3399766357421875	3.30352783203125	-4.154205322265625	-0.247955322265625	9.713874685668944	0.7332242584228515	0.3896563201904297	0.591278076171875	-5.222320556640625	-3.025054931640625	10.003573086547851	0.28431144714355466	-0.09576806640624999	2.964019775390625	-4.7149658203125	-1.819610595703125	
281	1.124	0.0	0.0	0.0	0.0	4.626	4.65	4.656	4.62	10.155604891967773	0.07302315063476562	-0.2454056701660156	1.373291015625	-3.10516357421875	-1.434326171875	10.070012182617187	0.36631285400390623	-0.10414777221679687	0.81634521484375	-5.092620849609375	-3.3416748046875	10.16338604736328	0.5692214447021484	-0.296881005859375	2.593994140625	-4.90570068359375	-1.97601318359375	
282	1.1280000000000001	0.0	0.0	0.0	0.0	4.6290000000000004	4.656	4.656	4.62	9.578602291870117	0.7649474304199219	0.3752911102294922	6.526947021484375	-6.17218017578125	-0.949859619140625	9.63366893005371	0.7835024932861328	0.32920272827148434	0.888824462890625	-5.34820556640625	-2.8533935546875	9.90840357055664	0.3345896820068359	-0.009576806640625	2.704620361328125	-4.69207763671875	-1.8463134765625	
283	1.1320000000000001	0.0	0.0	0.0	0.0	4.6290000000000004	0.003	0.006	0.003	9.721057290649414	-0.6691793640136718	0.29867665710449215	-1.06048583984375	-1.9378662109375	-1.514434814453125	9.97244846496582	0.43514615173339843	0.033518823242187495	1.033782958984375	-5.290985107421875	-3.551483154296875	10.133458526611328	0.6637924102783203	-0.4525041137695312	2.803802490234375	-5.046844482421875	-1.56402587890625	
284	1.1360000000000001	0.0	0.0	0.0	0.0	0.0	0.003	0.006	0.006	9.612719665527344	-0.5632359405517577	0.40581718139648437	2.071380615234375	-3.6773681640625	-0.698089599609375	9.718064538574218	0.7212532501220703	0.2501940734863281	0.316619873046875	-4.8370361328125	-3.53240966796875	10.11909331665039	0.2902969512939453	-0.2519897247314453	2.62451171875	-4.840850830078125	-1.934051513671875	
285	1.1400000000000001	0.0	0.0	0.0	0.0	0.006	0.003	0.006	0.003	9.788094937133788	-0.06883329772949218	0.17836802368164062	-1.735687255859375	-1.15966796875	-0.67138671875	10.001777435302733	0.4052186309814453	0.076614453125	0.492095947265625	-5.2947998046875	-3.34930419921875	10.061033926391602	0.5668272430419922	-0.24301146850585936	2.79998779296875	-4.848480224609375	-1.800537109375	
286	1.1440000000000001	0.0	0.0	0.0	0.0	0.003	0.003	0.003	0.003	9.709086282348633	0.4064157318115234	0.14784195251464843	0.568389892578125	-2.269744873046875	-1.567840576171875	9.542090716552734	0.7703343841552734	0.44532150878906246	0.8087158203125	-5.069732666015625	-3.696441650390625	9.645639938354492	0.4034229797363281	0.076614453125	2.40325927734375	-4.72259521484375	-2.0294189453125	
287	1.1480000000000001	0.0	0.0	0.0	0.0	0.003	0.006	0.003	0.003	9.788693487548828	0.14185644836425781	0.13946224670410157	1.728057861328125	-3.208160400390625	-1.35040283203125	9.696516723632811	0.42975919799804685	0.2885013000488281	0.4119873046875	-5.199432373046875	-3.509521484375	10.149020837402343	0.49859249572753905	-0.354940396118164	2.62451171875	-4.734039306640625	-1.903533935546875	
288	1.1520000000000001	0.0	0.0	0.0	0.0	0.006	0.006	0.006	0.003	9.763554370117188	-0.6817489227294922	0.14425065002441406	-2.838134765625	-0.54931640625	-1.552581787109375	9.69771382446289	0.7308300567626953	0.1945288848876953	0.682830810546875	-4.924774169921875	-3.314971923828125	9.721655841064452	0.36092590026855464	0.14185644836425781	2.490997314453125	-4.38690185546875	-2.09808349609375	
289	1.156	0.0	0.0	0.0	0.0	0.003	0.003	0.006	0.006	9.679158761596678	-0.4147954376220703	0.3507505432128906	-1.461029052734375	-1.537322998046875	-1.27410888671875	9.58339069519043	0.5327098693847656	0.4955997436523437	-0.00762939453125	-5.069732666015625	-2.95257568359375	9.76116016845703	0.4483142608642578	0.0	2.3956298828125	-4.9896240234375	-2.26593017578125	
290	1.16	0.0	0.0	0.0	0.0	0.006	0.006	0.003	0.006	9.810839852905273	-0.1005564697265625	0.055066638183593745	-2.17437744140625	-0.762939453125	-1.10626220703125	9.667786303710937	0.7846995941162109	0.34536358947753903	0.591278076171875	-4.6539306640625	-3.772735595703125	9.72345149230957	0.36930560607910157	0.12449848632812499	2.399444580078125	-4.566192626953125	-1.83868408203125	
291	1.164	0.0	0.0	0.0	0.0	0.009000000000000001	0.003	0.006	0.006	9.961076007080077	0.42497079467773435	-0.2184709014892578	3.696441650390625	-4.5013427734375	-1.0528564453125	9.673771807861328	0.36272155151367186	0.40581718139648437	0.446319580078125	-5.092620849609375	-3.5858154296875	9.846154327392577	0.38367081604003905	-0.16460136413574217	2.552032470703125	-4.5928955078125	-2.09808349609375	
292	1.168	0.0	0.0	0.0	0.0	0.006	0.006	0.003	0.003	9.815628256225585	-0.08020575561523437	-0.023942016601562498	-1.392364501953125	-1.300811767578125	-1.312255859375	9.64623848876953	0.5734112976074218	0.18555062866210936	0.873565673828125	-4.84466552734375	-3.955841064453125	9.966462960815429	0.5333084197998047	-0.3711012573242187	2.98309326171875	-4.669189453125	-1.605987548828125	
293	1.172	0.0	0.0	0.0	0.0	0.006	0.003	0.006	0.006	9.898228213500976	0.3962403747558593	-0.17477672119140625	2.96783447265625	-4.329681396484375	-0.79345703125	9.593566052246093	0.3806780639648437	0.5021837982177734	0.43487548828125	-5.06591796875	-3.406524658203125	9.764751470947266	0.47285482788085936	-0.09277531433105468	2.3193359375	-4.8370361328125	-2.06756591796875	
294	1.176	0.0	0.0	0.0	0.0	0.006	0.006	0.006	0.003	9.821015209960937	0.11133037719726561	-0.00718260498046875	6.1492919921875	-5.832672119140625	-0.5645751953125	9.710881933593749	0.6757634185791015	0.08499415893554688	0.492095947265625	-4.608154296875	-3.719329833984375	10.049661468505859	0.5195417602539062	-0.43993455505371093	2.685546875	-4.4708251953125	-1.636505126953125	
295	1.18	0.0	0.0	0.0	0.0	0.006	0.006	0.003	0.003	9.90122096557617	0.4860229370117187	-0.11192892761230468	3.719329833984375	-4.38690185546875	-1.041412353515625	9.76774422302246	0.469862075805664	0.06823474731445311	0.370025634765625	-5.214691162109375	-3.467559814453125	9.795876092529296	0.4387374542236328	-0.16639701538085935	2.773284912109375	-4.6234130859375	-2.254486083984375	
296	1.184	0.0	0.0	0.0	0.0	0.006	0.003	0.006	0.006	9.980229620361328	0.32022447204589843	-0.08798691101074219	5.680084228515625	-5.48553466796875	-0.865936279296875	9.623493572998047	0.7404068634033203	0.13467384338378904	0.640869140625	-4.741668701171875	-3.795623779296875	9.93354268798828	0.5716156463623047	-0.3495534423828125	2.777099609375	-4.444122314453125	-1.621246337890625	
297	1.188	0.0	0.0	0.0	0.0	0.006	0.006	0.003	0.006	9.970054263305663	0.21188684692382811	-0.24480711975097655	3.108978271484375	-3.88336181640625	-1.10626220703125	9.785102185058593	0.4686649749755859	0.008379705810546874	0.52642822265625	-5.01251220703125	-3.383636474609375	9.95329485168457	0.3525461944580078	-0.1945288848876953	2.849578857421875	-4.974365234375	-1.277923583984375	
298	1.192	0.0	0.0	0.0	0.0	0.003	0.006	0.003	0.006	10.094552749633788	-0.020949264526367185	-0.32920272827148434	4.848480224609375	-5.252838134765625	-0.408172607421875	9.97843396911621	0.49021278991699213	-0.15562310791015624	0.888824462890625	-5.096435546875	-3.032684326171875	9.976638317871092	0.47165772705078124	-0.2980781066894531	2.933502197265625	-4.337310791015625	-1.6326904296875	
299	1.196	0.0	0.0	0.0	0.0	0.006	0.006	0.003	0.003	9.897629663085937	-0.008978256225585938	0.14903905334472656	5.24139404296875	-5.657196044921875	-0.28228759765625	9.694122521972655	0.527322915649414	0.13407529296874998	0.09918212890625	-5.016326904296875	-3.276824951171875	9.928155734252929	0.37708676147460934	-0.19033903198242186	2.628326416015625	-4.878997802734375	-1.64794921875	
300	1.2	0.0	0.0	0.0	0.0	0.009000000000000001	0.006	0.006	0.003	10.035296258544921	0.1610100616455078	-0.21727380065917967	6.06536865234375	-6.256103515625	-0.484466552734375	9.889848507690429	0.4572925170898437	-0.016160861206054686	0.926971435546875	-5.10406494140625	-3.24249267578125	10.29865844116211	0.5195417602539062	-0.6260837341308594	3.108978271484375	-4.43267822265625	-1.45721435546875	
301	1.204	0.0	0.0	0.0	0.0	0.003	0.003	0.003	0.003	9.828197814941406	0.05746083984375	0.25139117431640623	5.24139404296875	-5.764007568359375	-0.629425048828125	9.81263550415039	0.689530078125	0.28012159423828126	1.007080078125	-5.36346435546875	-3.08990478515625	9.980229620361328	0.3459621398925781	-0.16220716247558592	2.918243408203125	-4.85992431640625	-1.689910888671875	
302	1.208	0.0	0.0	0.0	0.0	0.006	0.006	0.006	0.003	10.025120901489258	0.15023615417480468	-0.21966800231933592	5.71441650390625	-5.779266357421875	-0.28228759765625	9.86351228942871	0.48063598327636714	-0.010175357055664061	0.9002685546875	-5.252838134765625	-3.124237060546875	10.312425100708007	0.5829881042480468	-0.6236895324707031	3.19671630859375	-4.5318603515625	-1.567840576171875	
303	1.212	0.0	0.0	0.0	0.0	0.003	0.003	0.006	0.003	9.758765966796874	0.15682020874023436	0.3280056274414062	5.035400390625	-5.462646484375	-0.522613525390625	9.728239895629882	0.7703343841552734	0.38187516479492184	0.69427490234375	-4.9285888671875	-2.986907958984375	10.044873065185547	0.44113165588378905	-0.07422025146484375	2.819061279296875	-4.4708251953125	-1.842498779296875	
304	1.216	0.0	0.0	0.0	0.0	0.006	0.003	0.003	0.003	9.83777462158203	-0.07900865478515624	0.3232172241210937	1.06048583984375	-2.971649169921875	-1.132965087890625	10.01733974609375	0.4417302062988281	0.1274912384033203	0.881195068359375	-5.10406494140625	-3.444671630859375	10.34893667602539	0.5045779998779296	-0.5590460876464843	3.002166748046875	-4.306793212890625	-1.190185546875	
305	1.22	0.0	0.0	0.0	0.0	0.003	0.006	0.006	0.003	9.67197615661621	0.09038111267089843	0.5494692810058593	4.058837890625	-4.581451416015625	-0.637054443359375	9.769539874267577	0.7104793426513671	0.4016273284912109	0.858306884765625	-5.146026611328125	-3.39508056640625	10.096946951293944	0.36631285400390623	-0.08439560852050781	2.7923583984375	-4.61578369140625	-1.93023681640625	
306	1.224	0.0	0.0	0.0	0.0	0.003	0.003	0.003	0.003	9.826402163696288	0.037708676147460936	0.3477577911376953	-0.499725341796875	-2.0599365234375	-1.216888427734375	9.97125136413574	0.5327098693847656	0.16340426330566404	0.682830810546875	-5.08880615234375	-3.48663330078125	10.31661495361328	0.5961562133789062	-0.63206923828125	2.777099609375	-4.756927490234375	-1.35040283203125	
307	1.228	0.0	0.0	0.0	0.0	0.006	0.003	0.006	0.003	9.616310968017578	0.18255787658691405	0.6751648681640625	-0.690460205078125	-1.617431640625	-1.491546630859375	9.683348614501952	0.7775169891357422	0.3573345977783203	0.598907470703125	-4.76837158203125	-3.505706787109375	10.071209283447265	0.3800795135498047	-0.10354922180175781	2.895355224609375	-4.99725341796875	-1.67083740234375	
308	1.232	0.0	0.0	0.0	0.0	0.003	0.006	0.006	0.003	9.843760125732421	0.022146365356445312	0.28311434631347654	-0.67901611328125	-1.575469970703125	-1.28936767578125	9.959280355834961	0.49260699157714843	0.2041056915283203	1.010894775390625	-5.298614501953125	-3.76129150390625	10.101735354614258	0.47165772705078124	-0.42317514343261714	2.54058837890625	-4.82940673828125	-1.956939697265625	
