	time	dac1	dac2	dac3	dac4	adc1.3	adc2.3	adc3.3	adc4.3	imu1accx	imu1accy	imu1accz	imu1gyrox	imu1gyroy	imu1gyroz	imu2accx	imu2accy	imu2accz	imu2gyrox	imu2gyroy	imu2gyroz	imu3accx	imu3accy	imu3accz	imu3gyrox	imu3gyroy	imu3gyroz	log
0	0.0	0.0	0.0	0.0	0.0	4.623	4.6530000000000005	4.6530000000000005	4.611	9.859322436523437	0.11432312927246092	0.062249243164062495	2.7923583984375	-3.7384033203125	-1.04522705078125	9.759364517211914	0.6242880828857421	0.17896657409667968	1.03759765625	-5.260467529296875	-3.452301025390625	9.963470208740233	0.4896142395019531	-0.20530279235839843	2.811431884765625	-4.711151123046875	-1.689910888671875	Estabizou em 5s, 895 rpm
1	0.004	0.0	0.0	0.0	0.0	4.6290000000000004	4.6530000000000005	4.6530000000000005	4.605	9.86291373901367	0.10474632263183593	0.05686228942871093	2.49481201171875	-3.44085693359375	-1.03759765625	9.76175871887207	0.6242880828857421	0.17178396911621094	0.797271728515625	-5.45501708984375	-3.51715087890625	9.964667309570311	0.4908113403320312	-0.21607669982910155	2.696990966796875	-4.726409912109375	-1.888275146484375	Started
2	0.008	0.0	0.0	0.0	0.0	4.62	4.6530000000000005	4.6530000000000005	4.611	9.865906491088866	0.09337386474609374	0.04608838195800781	2.5177001953125	-3.86810302734375	-0.713348388671875	9.775525378417969	0.5955576629638671	0.14903905334472656	0.812530517578125	-4.734039306640625	-3.482818603515625	9.967061511230469	0.4644751220703125	-0.23044190979003906	2.86865234375	-4.550933837890625	-1.8463134765625	IMU1|LSM6DS3|0x6A|I2C-1|±2g (±19,6m/s²)|±125º/s|400Hz
3	0.012	0.0	0.0	0.0	0.0	4.6290000000000004	4.647	4.6530000000000005	4.614	9.86411083984375	0.10474632263183593	0.07062894897460938	2.727508544921875	-3.85284423828125	-0.820159912109375	9.7683427734375	0.6075286712646484	0.17178396911621094	0.713348388671875	-5.0048828125	-3.4637451171875	9.969455712890625	0.4572925170898437	-0.2184709014892578	2.55584716796875	-4.57763671875	-1.953125	IMU2|LSM6DS3|0x6B|I2C-1|±2g (±19,6m/s²)|±125º/s|400Hz
4	0.016	0.0	0.0	0.0	0.0	4.626	4.6530000000000005	4.6530000000000005	4.623	9.859920986938477	0.09038111267089843	0.07781155395507812	2.696990966796875	-3.589630126953125	-0.858306884765625	9.76235726928711	0.6057330200195312	0.18076222534179687	0.881195068359375	-5.084991455078125	-3.345489501953125	9.976039767456054	0.4722562774658203	-0.21009119567871093	2.685546875	-4.6844482421875	-1.800537109375	IMU3|LSM6DS3|0x6B|I2C-2|±2g (±19,6m/s²)|±125º/s|400Hz
5	0.02	0.0	0.0	0.0	0.0	4.62	4.6530000000000005	4.6530000000000005	4.626	9.872490545654296	0.06883329772949218	0.05626373901367187	2.44903564453125	-3.7078857421875	-0.919342041015625	9.781510882568359	0.5668272430419922	0.17836802368164062	0.637054443359375	-5.054473876953125	-3.42559814453125	9.99220062866211	0.4423287567138672	-0.2166752502441406	2.960205078125	-4.8065185546875	-1.842498779296875	ADC|ADS1015|0|0|1|0|±6,144 V|2400 SPS
6	0.024	0.0	0.0	0.0	0.0	4.62	4.6530000000000005	4.647	4.626	9.871293444824218	0.06344634399414062	0.06943184814453125	2.7313232421875	-3.79180908203125	-0.9918212890625	9.783905084228515	0.5710170959472656	0.1879448303222656	0.499725341796875	-4.863739013671875	-3.41796875	9.981426721191406	0.4381389038085937	-0.22206220397949217	2.5787353515625	-4.50897216796875	-1.953125	Gen1|Disabled
7	0.028	0.0	0.0	0.0	0.0	4.626	4.6530000000000005	4.6530000000000005	4.611	9.865906491088866	0.08140285644531249	0.08140285644531249	2.60162353515625	-3.71551513671875	-0.888824462890625	9.78031378173828	0.5883750579833984	0.19871873779296872	0.64849853515625	-5.279541015625	-3.429412841796875	9.957484704589843	0.46686932373046874	-0.20530279235839843	2.655029296875	-4.589080810546875	-1.800537109375	Gen2|Enabled|Noise|0.0|10.0|1668
8	0.032	0.0	0.0	0.0	0.0	4.626	4.6530000000000005	4.6530000000000005	4.6080000000000005	9.866505041503906	0.04908113403320312	0.09935936889648436	2.674102783203125	-3.63922119140625	-0.637054443359375	9.773729727172851	0.556053335571289	0.19692308654785154	0.5340576171875	-5.191802978515625	-3.231048583984375	9.963470208740233	0.4070142822265625	-0.20350714111328125	2.69317626953125	-4.726409912109375	-1.800537109375	Gen3|Enabled|Noise|0.0|10.0|128
9	0.036000000000000004	0.0	0.0	0.0	0.0	4.632	4.6530000000000005	4.6530000000000005	4.617	9.883264453125	0.020350714111328123	0.08798691101074219	2.346038818359375	-3.711700439453125	-0.96893310546875	9.789890588378906	0.5141548065185546	0.21068974609375	0.51116943359375	-4.886627197265625	-3.406524658203125	9.981426721191406	0.39324762268066404	-0.18255787658691405	2.6702880859375	-4.779815673828125	-2.017974853515625	Gen4|Enabled|Noise|0.0|10.0|128
10	0.04	0.0	0.0	0.0	0.0	4.626	4.647	4.6530000000000005	4.617	9.874286196899414	0.02693476867675781	0.10414777221679687	2.452850341796875	-3.77655029296875	-1.01470947265625	9.782109432983399	0.527322915649414	0.2214636535644531	0.324249267578125	-4.863739013671875	-3.509521484375	9.967660061645507	0.412401235961914	-0.17298106994628906	2.574920654296875	-4.58526611328125	-1.76239013671875	Ctrl|Disabled
11	0.044	0.0	0.0	0.0	0.0	4.626	4.6530000000000005	4.656	4.623	9.868899243164062	0.017956512451171875	0.1083376251220703	2.41851806640625	-3.787994384765625	-0.98419189453125	9.781510882568359	0.517746109008789	0.2316390106201172	0.225067138671875	-4.8828125	-3.2806396484375	9.980229620361328	0.39264907226562495	-0.1484405029296875	2.54058837890625	-4.894256591796875	-1.651763916015625	
12	0.048	0.0	0.0	0.0	0.0	4.62	4.6530000000000005	4.6530000000000005	4.623	9.862315188598632	-0.010175357055664061	0.09636661682128905	2.7313232421875	-3.620147705078125	-0.885009765625	9.779715231323241	0.4836287353515625	0.23343466186523437	0.67138671875	-5.14984130859375	-3.536224365234375	9.99160207824707	0.35134909362792965	-0.14185644836425781	2.460479736328125	-4.76837158203125	-1.77764892578125	
13	0.052000000000000005	0.0	0.0	0.0	0.0	4.617	4.6530000000000005	4.65	4.626	9.858723886108399	-0.017956512451171875	0.1083376251220703	2.3193359375	-3.902435302734375	-0.858306884765625	9.781510882568359	0.4704606262207031	0.23104046020507812	0.278472900390625	-4.98199462890625	-3.2501220703125	9.987412225341796	0.34656069030761716	-0.11911153259277343	2.681732177734375	-4.489898681640625	-1.804351806640625	
14	0.056	0.0	0.0	0.0	0.0	4.626	4.6530000000000005	4.6530000000000005	4.617	9.853336932373047	-0.02633621826171875	0.1227028350830078	2.422332763671875	-3.73077392578125	-0.743865966796875	9.77492682800293	0.4860229370117187	0.2346317626953125	0.316619873046875	-5.157470703125	-3.391265869140625	9.984419473266602	0.3441664886474609	-0.11731588134765625	2.83050537109375	-4.73785400390625	-1.7547607421875	
15	0.06	0.0	0.0	0.0	0.0	4.632	4.6530000000000005	4.6530000000000005	4.605	9.858125335693359	-0.029927520751953124	0.10295067138671875	2.674102783203125	-3.757476806640625	-0.92315673828125	9.779715231323241	0.479438882446289	0.2232593048095703	0.57220458984375	-5.19561767578125	-3.3111572265625	9.980229620361328	0.3441664886474609	-0.1274912384033203	2.61688232421875	-4.589080810546875	-1.918792724609375	
16	0.064	0.0	0.0	0.0	0.0	4.6290000000000004	4.6530000000000005	4.6530000000000005	4.614	9.87608184814453	-0.014963760375976562	0.08978256225585937	2.593994140625	-3.63922119140625	-0.9307861328125	9.781510882568359	0.4722562774658203	0.21787235107421873	0.70953369140625	-5.031585693359375	-3.299713134765625	9.982623822021484	0.3525461944580078	-0.1466448516845703	2.716064453125	-4.6844482421875	-1.800537109375	
17	0.068	0.0	0.0	0.0	0.0	4.626	4.644	4.6530000000000005	4.62	9.866505041503906	-0.011971008300781249	0.11073182678222655	2.437591552734375	-3.673553466796875	-0.80108642578125	9.7683427734375	0.4896142395019531	0.22385785522460935	0.965118408203125	-4.970550537109375	-3.307342529296875	9.977236868286132	0.3687070556640625	-0.14963760375976562	2.8076171875	-4.63104248046875	-1.758575439453125	
18	0.07200000000000001	0.0	0.0	0.0	0.0	4.6290000000000004	4.6530000000000005	4.6530000000000005	4.623	9.874884747314452	0.003591302490234375	0.10474632263183593	2.64739990234375	-3.7994384765625	-0.759124755859375	9.778518130493163	0.49739539489746093	0.2184709014892578	0.93841552734375	-5.04302978515625	-3.124237060546875	9.983820922851562	0.36571430358886714	-0.15741875915527342	2.979278564453125	-4.734039306640625	-1.926422119140625	
19	0.076	0.0	0.0	0.0	0.0	4.623	4.6530000000000005	4.6530000000000005	4.623	9.878476049804688	0.010773907470703125	0.09217676391601562	2.69317626953125	-4.06646728515625	-0.972747802734375	9.787496386718749	0.5027823486328125	0.19393033447265623	0.667572021484375	-5.157470703125	-3.30352783203125	9.994594830322265	0.3705027069091797	-0.1771709228515625	2.826690673828125	-4.779815673828125	-1.74713134765625	
20	0.08	0.0	0.0	0.0	0.0	4.617	4.65	4.647	4.626	9.88386300354004	0.02693476867675781	0.06584054565429687	2.742767333984375	-3.692626953125	-0.926971435546875	9.779116680908203	0.5255272644042969	0.1945288848876953	0.87738037109375	-5.1116943359375	-3.3111572265625	9.981426721191406	0.39324762268066404	-0.19393033447265623	2.60162353515625	-4.589080810546875	-1.93023681640625	
21	0.084	0.0	0.0	0.0	0.0	4.626	4.6530000000000005	4.6530000000000005	4.611	9.872490545654296	0.044891281127929686	0.07003039855957031	2.6397705078125	-4.09698486328125	-0.8544921875	9.769539874267577	0.5398924743652344	0.18914193115234373	0.682830810546875	-5.06591796875	-3.398895263671875	9.973047015380859	0.41539398803710936	-0.20171148986816406	2.7008056640625	-4.73785400390625	-1.71661376953125	
22	0.088	0.0	0.0	0.0	0.0	4.626	4.6530000000000005	4.6530000000000005	4.605	9.865307940673828	0.03890577697753906	0.05985504150390625	2.437591552734375	-3.73077392578125	-0.87738037109375	9.78031378173828	0.5446808776855468	0.16998831787109375	0.5950927734375	-5.08880615234375	-3.284454345703125	9.97903251953125	0.4165910888671875	-0.2214636535644531	2.788543701171875	-4.604339599609375	-1.7852783203125	
23	0.092	0.0	0.0	0.0	0.0	4.626	4.6530000000000005	4.6530000000000005	4.614	9.87069489440918	0.040701428222656245	0.05087678527832031	2.437591552734375	-3.681182861328125	-0.83160400390625	9.776722479248047	0.5476736297607422	0.16759411621093748	0.530242919921875	-4.955291748046875	-3.566741943359375	9.982623822021484	0.4034229797363281	-0.20949264526367187	2.727508544921875	-4.634857177734375	-1.9073486328125	
24	0.096	0.0	0.0	0.0	0.0	4.626	4.647	4.6530000000000005	4.617	9.859920986938477	0.0652419952392578	0.062249243164062495	2.460479736328125	-3.9825439453125	-0.949859619140625	9.76116016845703	0.5776011505126952	0.1610100616455078	0.61798095703125	-4.98199462890625	-3.444671630859375	9.962273107910155	0.43035774841308594	-0.2154781494140625	2.719879150390625	-4.57763671875	-1.537322998046875	
25	0.1	0.0	0.0	0.0	0.0	4.623	4.6530000000000005	4.6530000000000005	4.62	9.865906491088866	0.08259995727539061	0.0383072265625	2.410888671875	-3.673553466796875	-0.949859619140625	9.773131176757811	0.5847837554931641	0.1657984649658203	0.75531005859375	-5.1727294921875	-3.39508056640625	9.97125136413574	0.4578910675048828	-0.24061726684570311	2.31170654296875	-4.482269287109375	-1.888275146484375	
26	0.10400000000000001	0.0	0.0	0.0	0.0	4.62	4.6530000000000005	4.6530000000000005	4.623	9.868300692749022	0.08140285644531249	0.022146365356445312	2.559661865234375	-3.875732421875	-0.7781982421875	9.777321029663085	0.5799953521728515	0.1484405029296875	0.48065185546875	-4.82940673828125	-3.2196044921875	9.982623822021484	0.4447229583740234	-0.24301146850585936	2.58636474609375	-4.66156005859375	-1.800537109375	
27	0.108	0.0	0.0	0.0	0.0	4.62	4.65	4.65	4.626	9.867702142333984	0.09157821350097656	0.04129997863769531	2.227783203125	-3.665924072265625	-0.759124755859375	9.779116680908203	0.5961562133789062	0.15203180541992187	0.518798828125	-5.340576171875	-3.5552978515625	9.98561657409668	0.4471171600341797	-0.2232593048095703	2.750396728515625	-4.863739013671875	-1.735687255859375	
28	0.112	0.0	0.0	0.0	0.0	4.626	4.6530000000000005	4.6530000000000005	4.614	9.866505041503906	0.10235212097167969	0.030526071166992186	2.532958984375	-3.56292724609375	-0.858306884765625	9.7683427734375	0.613514175415039	0.1640028137207031	0.652313232421875	-5.023956298828125	-3.353118896484375	9.964667309570311	0.479438882446289	-0.21188684692382811	2.696990966796875	-4.638671875	-1.89208984375	
29	0.116	0.0	0.0	0.0	0.0	4.626	4.6530000000000005	4.6530000000000005	4.6080000000000005	9.874884747314452	0.11133037719726561	0.01975216369628906	2.529144287109375	-3.95965576171875	-0.888824462890625	9.779715231323241	0.6075286712646484	0.15382745666503905	0.682830810546875	-5.008697509765625	-3.345489501953125	9.97184991455078	0.489015689086914	-0.21787235107421873	2.899169921875	-4.581451416015625	-1.819610595703125	
30	0.12	0.0	0.0	0.0	0.0	4.6290000000000004	4.6530000000000005	4.6530000000000005	4.614	9.882067352294921	0.12389993591308593	0.009576806640625	2.460479736328125	-3.757476806640625	-0.904083251953125	9.770736975097655	0.6165069274902344	0.14724340209960937	0.858306884765625	-5.035400390625	-3.406524658203125	9.987412225341796	0.49021278991699213	-0.2262520568847656	2.6702880859375	-4.657745361328125	-1.77001953125	
31	0.124	0.0	0.0	0.0	0.0	4.626	4.647	4.6530000000000005	4.62	9.874286196899414	0.1304839904785156	0.015562310791015624	2.338409423828125	-3.772735595703125	-0.84686279296875	9.767145672607422	0.6278793853759765	0.14544775085449219	0.45013427734375	-4.913330078125	-3.37982177734375	9.97903251953125	0.4944026428222656	-0.2214636535644531	2.834320068359375	-4.82177734375	-1.766204833984375	
32	0.128	0.0	0.0	0.0	0.0	4.626	4.6530000000000005	4.6530000000000005	4.62	9.86291373901367	0.1274912384033203	0.02693476867675781	2.559661865234375	-3.856658935546875	-0.99945068359375	9.771934075927733	0.6260837341308594	0.15502455749511718	0.629425048828125	-5.023956298828125	-3.4027099609375	9.989207876586914	0.4914098907470703	-0.21248539733886718	3.002166748046875	-4.7454833984375	-1.9378662109375	
33	0.132	0.0	0.0	0.0	0.0	4.62	4.6530000000000005	4.6530000000000005	4.623	9.86291373901367	0.12449848632812499	0.017357962036132813	2.559661865234375	-3.635406494140625	-0.7476806640625	9.770736975097655	0.6308721374511719	0.14784195251464843	0.545501708984375	-4.92095947265625	-3.13568115234375	9.975441217041014	0.49799394531249996	-0.24361001892089842	2.628326416015625	-4.58526611328125	-1.628875732421875	
34	0.136	0.0	0.0	0.0	0.0	4.617	4.6530000000000005	4.65	4.626	9.86411083984375	0.14425065002441406	0.017357962036132813	2.4871826171875	-3.612518310546875	-0.926971435546875	9.7683427734375	0.6542156036376953	0.14544775085449219	0.766754150390625	-5.016326904296875	-3.24249267578125	9.974244116210937	0.526125814819336	-0.22685060729980466	2.75421142578125	-4.512786865234375	-1.735687255859375	
35	0.14	0.0	0.0	0.0	0.0	4.626	4.6530000000000005	4.656	4.611	9.860519537353515	0.14903905334472656	0.025737667846679687	2.681732177734375	-3.7994384765625	-0.90789794921875	9.769539874267577	0.6494272003173828	0.14425065002441406	0.701904296875	-5.13458251953125	-3.238677978515625	9.979631069946288	0.5207388610839844	-0.22864625854492185	2.643585205078125	-4.634857177734375	-1.7242431640625	
36	0.14400000000000002	0.0	0.0	0.0	0.0	4.626	4.6530000000000005	4.6530000000000005	4.605	9.874884747314452	0.13946224670410157	0.022146365356445312	2.506256103515625	-3.86810302734375	-1.018524169921875	9.769539874267577	0.6410474945068358	0.14185644836425781	0.652313232421875	-5.138397216796875	-3.34930419921875	9.970652813720703	0.5147533569335937	-0.23702596435546874	2.750396728515625	-4.58526611328125	-1.434326171875	
37	0.148	0.0	0.0	0.0	0.0	4.6290000000000004	4.6530000000000005	4.6530000000000005	4.614	9.868300692749022	0.1406593475341797	0.03411737365722656	2.4566650390625	-3.90625	-0.881195068359375	9.767145672607422	0.6344634399414062	0.15023615417480468	0.682830810546875	-4.90570068359375	-3.7078857421875	9.973047015380859	0.5111620544433594	-0.2561795776367187	2.613067626953125	-4.84466552734375	-1.667022705078125	
38	0.152	0.0	0.0	0.0	0.0	4.626	4.647	4.6530000000000005	4.62	9.875483297729492	0.13826514587402344	0.033518823242187495	2.231597900390625	-3.665924072265625	-0.789642333984375	9.771934075927733	0.6374561920166015	0.15502455749511718	0.37384033203125	-4.85992431640625	-3.2958984375	9.969455712890625	0.5231330627441406	-0.23403321228027343	2.483367919921875	-4.413604736328125	-1.590728759765625	
39	0.156	0.0	0.0	0.0	0.0	4.6290000000000004	4.6530000000000005	4.656	4.623	9.878476049804688	0.12988544006347655	0.040701428222656245	2.410888671875	-3.498077392578125	-0.81634521484375	9.77492682800293	0.6404489440917969	0.14245499877929688	0.6103515625	-5.092620849609375	-3.368377685546875	9.962273107910155	0.5069722015380859	-0.2328361114501953	2.75421142578125	-4.718780517578125	-1.659393310546875	
40	0.16	0.0	0.0	0.0	0.0	4.62	4.6530000000000005	4.6530000000000005	4.623	9.868899243164062	0.10654197387695312	0.04608838195800781	2.47955322265625	-3.841400146484375	-0.926971435546875	9.766547122192382	0.6153098266601562	0.1592144104003906	0.476837158203125	-5.18035888671875	-3.162384033203125	9.97244846496582	0.4944026428222656	-0.229843359375	2.590179443359375	-4.53948974609375	-1.70135498046875	
41	0.164	0.0	0.0	0.0	0.0	4.62	4.6530000000000005	4.647	4.626	9.873687646484374	0.1083376251220703	0.05686228942871093	2.483367919921875	-3.826141357421875	-1.079559326171875	9.769539874267577	0.5973533142089843	0.17298106994628906	0.7476806640625	-4.901885986328125	-3.437042236328125	9.967660061645507	0.4830301849365234	-0.21308394775390624	2.55584716796875	-4.611968994140625	-1.796722412109375	
42	0.168	0.0	0.0	0.0	0.0	4.626	4.6530000000000005	4.6530000000000005	4.6080000000000005	9.861118087768554	0.08858546142578125	0.07721300354003906	2.38800048828125	-3.604888916015625	-0.89263916015625	9.763554370117188	0.5823895538330078	0.1879448303222656	0.86212158203125	-5.168914794921875	-3.5400390625	9.967061511230469	0.4542997650146484	-0.19991583862304688	2.727508544921875	-4.82177734375	-1.8768310546875	
43	0.17200000000000001	0.0	0.0	0.0	0.0	4.626	4.6530000000000005	4.6530000000000005	4.605	9.871293444824218	0.07781155395507812	0.07841010437011718	2.773284912109375	-3.79180908203125	-0.823974609375	9.771335525512695	0.5626373901367188	0.20290859069824219	0.377655029296875	-4.947662353515625	-3.27301025390625	9.96586441040039	0.4417302062988281	-0.181959326171875	2.5787353515625	-4.58526611328125	-1.861572265625	
44	0.176	0.0	0.0	0.0	0.0	4.626	4.6530000000000005	4.6530000000000005	4.614	9.87009634399414	0.05805939025878906	0.08499415893554688	2.31170654296875	-3.84521484375	-0.965118408203125	9.776722479248047	0.5488707305908203	0.21188684692382811	0.492095947265625	-5.0811767578125	-3.337860107421875	9.97903251953125	0.421978042602539	-0.1657984649658203	2.536773681640625	-4.734039306640625	-1.922607421875	
45	0.18	0.0	0.0	0.0	0.0	4.626	4.647	4.6530000000000005	4.617	9.874286196899414	0.0430956298828125	0.08978256225585937	2.44140625	-3.658294677734375	-0.86212158203125	9.776722479248047	0.5315127685546874	0.21487959899902342	0.49591064453125	-5.279541015625	-3.2501220703125	9.980828170776366	0.39983167724609375	-0.16220716247558592	2.7008056640625	-4.528045654296875	-1.53350830078125	
46	0.184	0.0	0.0	0.0	0.0	4.623	4.6530000000000005	4.6530000000000005	4.623	9.86351228942871	0.0143652099609375	0.09816226806640624	2.590179443359375	-3.871917724609375	-0.8544921875	9.78031378173828	0.5159504577636719	0.23104046020507812	0.782012939453125	-5.084991455078125	-3.215789794921875	9.980229620361328	0.39324762268066404	-0.14425065002441406	2.777099609375	-4.779815673828125	-1.9378662109375	
47	0.188	0.0	0.0	0.0	0.0	4.62	4.6530000000000005	4.6530000000000005	4.623	9.87009634399414	0.006584054565429687	0.11192892761230468	2.643585205078125	-3.696441650390625	-0.95367431640625	9.782109432983399	0.5057751007080078	0.2214636535644531	0.732421875	-4.90570068359375	-3.185272216796875	9.982623822021484	0.37768531188964843	-0.143652099609375	2.838134765625	-4.8370361328125	-1.68609619140625	
48	0.192	0.0	0.0	0.0	0.0	4.62	4.6530000000000005	4.647	4.626	9.872490545654296	-0.011971008300781249	0.11432312927246092	2.376556396484375	-3.74603271484375	-0.766754150390625	9.783905084228515	0.4997895965576172	0.23223756103515625	0.621795654296875	-5.096435546875	-3.2958984375	9.981426721191406	0.37289690856933594	-0.1274912384033203	2.8228759765625	-4.61578369140625	-1.62506103515625	
49	0.196	0.0	0.0	0.0	0.0	4.626	4.6530000000000005	4.6530000000000005	4.614	9.86291373901367	-0.011971008300781249	0.11611878051757812	2.567291259765625	-3.9520263671875	-0.9002685546875	9.777321029663085	0.4878185882568359	0.23582886352539062	0.469207763671875	-5.084991455078125	-3.482818603515625	9.979631069946288	0.36691140441894526	-0.12389993591308593	3.009796142578125	-4.486083984375	-1.911163330078125	
50	0.2	0.0	0.0	0.0	0.0	4.626	4.6530000000000005	4.6530000000000005	4.6080000000000005	9.864709390258788	-0.02454056701660156	0.10714052429199218	2.349853515625	-3.604888916015625	-0.9613037109375	9.781510882568359	0.4746504791259765	0.23582886352539062	0.69427490234375	-5.1116943359375	-3.47137451171875	9.989207876586914	0.34237083740234375	-0.1304839904785156	2.819061279296875	-4.772186279296875	-1.74713134765625	
51	0.20400000000000001	0.0	0.0	0.0	0.0	4.632	4.6530000000000005	4.6530000000000005	4.611	9.8694977935791	-0.013766659545898436	0.10115502014160156	2.41851806640625	-3.932952880859375	-0.95367431640625	9.781510882568359	0.479438882446289	0.23223756103515625	0.6256103515625	-5.046844482421875	-3.398895263671875	9.974842666625976	0.3507505432128906	-0.14245499877929688	2.58636474609375	-4.61578369140625	-1.80816650390625	
52	0.20800000000000002	0.0	0.0	0.0	0.0	4.626	4.647	4.6530000000000005	4.617	9.86411083984375	-0.017956512451171875	0.11013327636718749	2.49481201171875	-3.673553466796875	-0.766754150390625	9.779116680908203	0.488417138671875	0.229843359375	0.682830810546875	-4.8065185546875	-3.376007080078125	9.97184991455078	0.35673604736328124	-0.15083470458984374	2.50244140625	-4.6234130859375	-1.796722412109375	
53	0.212	0.0	0.0	0.0	0.0	4.623	4.6530000000000005	4.6530000000000005	4.623	9.871293444824218	-0.0143652099609375	0.09816226806640624	2.62451171875	-3.604888916015625	-0.91552734375	9.781510882568359	0.48542438659667964	0.22026655273437498	0.6561279296875	-4.940032958984375	-3.398895263671875	9.96586441040039	0.3603273498535156	-0.1640028137207031	2.64739990234375	-4.779815673828125	-1.773834228515625	
54	0.216	0.0	0.0	0.0	0.0	4.623	4.6530000000000005	4.6530000000000005	4.626	9.868300692749022	-0.013168109130859374	0.08918401184082031	2.422332763671875	-3.56292724609375	-0.797271728515625	9.781510882568359	0.4896142395019531	0.20949264526367187	0.476837158203125	-5.123138427734375	-3.25775146484375	9.97903251953125	0.3573345977783203	-0.16879121704101563	2.54058837890625	-4.673004150390625	-1.651763916015625	
55	0.22	0.0	0.0	0.0	0.0	4.617	4.6530000000000005	4.647	4.6290000000000004	9.864709390258788	-0.011971008300781249	0.09277531433105468	2.567291259765625	-3.986358642578125	-0.90789794921875	9.77432827758789	0.49859249572753905	0.20051438903808594	0.911712646484375	-5.199432373046875	-3.299713134765625	9.97843396911621	0.36810850524902344	-0.18076222534179687	2.7313232421875	-4.627227783203125	-1.750946044921875	
56	0.224	0.0	0.0	0.0	0.0	4.6290000000000004	4.6530000000000005	4.6530000000000005	4.611	9.868899243164062	0.010773907470703125	0.08080430603027343	2.685546875	-3.528594970703125	-1.049041748046875	9.78031378173828	0.507570751953125	0.19213468322753904	0.759124755859375	-4.9896240234375	-3.448486328125	9.974244116210937	0.38666356811523434	-0.17657237243652343	3.021240234375	-4.913330078125	-1.888275146484375	
57	0.228	0.0	0.0	0.0	0.0	4.626	4.6530000000000005	4.6530000000000005	4.605	9.871293444824218	0.020949264526367185	0.07242460021972656	2.43377685546875	-3.72314453125	-0.8087158203125	9.775525378417969	0.5213374114990235	0.18734627990722655	0.820159912109375	-5.18798828125	-3.4027099609375	9.983222372436522	0.3842693664550781	-0.1945288848876953	2.69317626953125	-4.75311279296875	-1.85394287109375	
58	0.232	0.0	0.0	0.0	0.0	4.626	4.6530000000000005	4.6530000000000005	4.614	9.867702142333984	0.037708676147460936	0.06105214233398437	2.532958984375	-3.73077392578125	-0.7781982421875	9.777919580078125	0.5255272644042969	0.17896657409667968	0.46539306640625	-5.06591796875	-3.28826904296875	9.975441217041014	0.4070142822265625	-0.20709844360351562	2.628326416015625	-4.604339599609375	-1.708984375	
59	0.23600000000000002	0.0	0.0	0.0	0.0	4.626	4.647	4.6530000000000005	4.617	9.874286196899414	0.04548983154296875	0.047884033203124995	2.44140625	-3.665924072265625	-0.865936279296875	9.76894132385254	0.5315127685546874	0.17417817077636719	0.583648681640625	-5.062103271484375	-3.27301025390625	9.973645565795898	0.412401235961914	-0.21727380065917967	2.6702880859375	-4.589080810546875	-1.789093017578125	
60	0.24	0.0	0.0	0.0	0.0	4.623	4.6530000000000005	4.6530000000000005	4.623	9.864709390258788	0.04129997863769531	0.062249243164062495	2.38800048828125	-3.765106201171875	-0.858306884765625	9.773729727172851	0.5488707305908203	0.17956512451171874	0.69427490234375	-5.279541015625	-3.4027099609375	9.979631069946288	0.411802685546875	-0.19991583862304688	2.727508544921875	-4.64630126953125	-1.888275146484375	
61	0.244	0.0	0.0	0.0	0.0	4.62	4.6530000000000005	4.6530000000000005	4.623	9.86411083984375	0.047285482788085934	0.047884033203124995	2.4566650390625	-3.887176513671875	-0.70953369140625	9.7683427734375	0.5482721801757812	0.1693897674560547	0.5950927734375	-4.99725341796875	-3.376007080078125	9.987412225341796	0.43035774841308594	-0.2059013427734375	2.74658203125	-4.795074462890625	-1.74713134765625	
62	0.248	0.0	0.0	0.0	0.0	4.62	4.6530000000000005	4.65	4.626	9.86411083984375	0.062249243164062495	0.037110125732421874	2.765655517578125	-3.726959228515625	-0.972747802734375	9.77432827758789	0.5692214447021484	0.16879121704101563	0.57220458984375	-4.791259765625	-3.41796875	9.980828170776366	0.4387374542236328	-0.20769699401855468	2.83050537109375	-4.8980712890625	-1.8463134765625	
63	0.252	0.0	0.0	0.0	0.0	4.626	4.6530000000000005	4.6530000000000005	4.611	9.861716638183593	0.076614453125	0.029927520751953124	2.5177001953125	-3.7078857421875	-1.0833740234375	9.770736975097655	0.5817910034179687	0.15981296081542967	0.675201416015625	-4.840850830078125	-3.3721923828125	9.97783541870117	0.4495113616943359	-0.20530279235839843	2.66265869140625	-4.665374755859375	-1.903533935546875	
64	0.256	0.0	0.0	0.0	0.0	4.626	4.6530000000000005	4.6530000000000005	4.605	9.868899243164062	0.08319850769042968	0.022146365356445312	2.429962158203125	-3.803253173828125	-1.129150390625	9.76774422302246	0.5865794067382812	0.1640028137207031	0.438690185546875	-4.978179931640625	-3.490447998046875	9.973047015380859	0.4537012145996093	-0.21308394775390624	2.780914306640625	-4.852294921875	-1.922607421875	
65	0.26	0.0	0.0	0.0	0.0	4.6290000000000004	4.65	4.6530000000000005	4.614	9.861716638183593	0.09277531433105468	0.020350714111328123	2.52532958984375	-3.475189208984375	-1.02996826171875	9.759364517211914	0.5913678100585937	0.17058686828613281	1.01470947265625	-5.0811767578125	-3.41796875	9.977236868286132	0.46686932373046874	-0.20231004028320312	2.696990966796875	-4.57000732421875	-1.758575439453125	
66	0.264	0.0	0.0	0.0	0.0	4.626	4.647	4.6530000000000005	4.62	9.8694977935791	0.11671733093261719	0.03172317199707031	2.44140625	-3.688812255859375	-0.789642333984375	9.769539874267577	0.6105214233398437	0.15682020874023436	0.57220458984375	-5.0048828125	-3.345489501953125	9.981426721191406	0.4914098907470703	-0.20949264526367187	2.765655517578125	-4.75311279296875	-1.8768310546875	
67	0.268	0.0	0.0	0.0	0.0	4.626	4.6530000000000005	4.656	4.623	9.871293444824218	0.11911153259277343	0.01975216369628906	2.6092529296875	-3.719329833984375	-0.934600830078125	9.773729727172851	0.6183025787353515	0.14484920043945312	0.6103515625	-5.2642822265625	-3.505706787109375	9.975441217041014	0.5033808990478515	-0.2232593048095703	2.5482177734375	-4.657745361328125	-1.766204833984375	
68	0.272	0.0	0.0	0.0	0.0	4.62	4.6530000000000005	4.6530000000000005	4.626	9.866505041503906	0.13407529296874998	0.009576806640625	2.490997314453125	-3.673553466796875	-0.690460205078125	9.771934075927733	0.6344634399414062	0.15023615417480468	0.25177001953125	-5.1727294921875	-3.33404541015625	9.976638317871092	0.5045779998779296	-0.23223756103515625	2.796173095703125	-4.726409912109375	-1.74713134765625	
69	0.276	0.0	0.0	0.0	0.0	4.617	4.6530000000000005	4.647	4.626	9.85692823486328	0.13646949462890623	0.02633621826171875	2.655029296875	-3.753662109375	-0.835418701171875	9.771934075927733	0.6410474945068358	0.14425065002441406	0.736236572265625	-5.04302978515625	-3.307342529296875	9.967660061645507	0.5087678527832031	-0.24061726684570311	2.468109130859375	-4.497528076171875	-1.743316650390625	
70	0.28	0.0	0.0	0.0	0.0	4.626	4.6530000000000005	4.656	4.611	9.861118087768554	0.14245499877929688	0.013766659545898436	2.29644775390625	-3.7689208984375	-0.86212158203125	9.763554370117188	0.6398503936767578	0.14724340209960937	0.652313232421875	-5.27191162109375	-3.56292724609375	9.970652813720703	0.517746109008789	-0.25139117431640623	2.605438232421875	-4.871368408203125	-1.544952392578125	
71	0.28400000000000003	0.0	0.0	0.0	0.0	4.626	4.6530000000000005	4.6530000000000005	4.605	9.878476049804688	0.15203180541992187	0.011372457885742187	2.532958984375	-3.940582275390625	-0.89263916015625	9.775525378417969	0.6368576416015624	0.14484920043945312	0.61798095703125	-4.901885986328125	-3.509521484375	9.976039767456054	0.526125814819336	-0.24001871643066405	2.5634765625	-4.665374755859375	-1.70135498046875	
72	0.28800000000000003	0.0	0.0	0.0	0.0	4.626	4.6530000000000005	4.6530000000000005	4.614	9.873687646484374	0.15382745666503905	0.022744915771484374	2.536773681640625	-3.631591796875	-0.911712646484375	9.77432827758789	0.6494272003173828	0.14006079711914063	0.644683837890625	-5.1422119140625	-3.45611572265625	9.970652813720703	0.5189432098388671	-0.24779987182617186	2.735137939453125	-4.627227783203125	-1.598358154296875	
73	0.292	0.0	0.0	0.0	0.0	4.623	4.647	4.6530000000000005	4.614	9.865906491088866	0.14484920043945312	0.040102877807617184	2.376556396484375	-3.612518310546875	-0.942230224609375	9.76175871887207	0.6512228515624999	0.143652099609375	0.732421875	-5.05828857421875	-3.467559814453125	9.97903251953125	0.5249287139892578	-0.24361001892089842	2.72369384765625	-4.825592041015625	-1.644134521484375	
74	0.296	0.0	0.0	0.0	0.0	4.6290000000000004	4.6530000000000005	4.656	4.62	9.867702142333984	0.13108254089355467	0.0383072265625	2.57110595703125	-3.749847412109375	-1.0223388671875	9.771934075927733	0.6350619903564453	0.15981296081542967	0.42724609375	-5.126953125	-3.200531005859375	9.970652813720703	0.507570751953125	-0.23822306518554687	2.811431884765625	-4.67681884765625	-1.861572265625	
75	0.3	0.0	0.0	0.0	0.0	4.62	4.6530000000000005	4.6530000000000005	4.623	9.861118087768554	0.12808978881835936	0.04848258361816406	2.4871826171875	-3.704071044921875	-0.78582763671875	9.764751470947266	0.6272808349609375	0.15981296081542967	0.850677490234375	-5.096435546875	-3.337860107421875	9.97125136413574	0.5027823486328125	-0.22685060729980466	2.628326416015625	-4.8828125	-1.842498779296875	
76	0.304	0.0	0.0	0.0	0.0	4.62	4.6530000000000005	4.65	4.626	9.858723886108399	0.12389993591308593	0.044891281127929686	2.590179443359375	-3.833770751953125	-0.75531005859375	9.773729727172851	0.6194996795654296	0.17118541870117188	0.640869140625	-5.115509033203125	-3.35693359375	9.962871658325195	0.4955997436523437	-0.2136824981689453	2.689361572265625	-4.848480224609375	-1.6021728515625	
77	0.308	0.0	0.0	0.0	0.0	4.626	4.6530000000000005	4.656	4.614	9.865307940673828	0.10893617553710937	0.06464344482421874	2.407073974609375	-3.74603271484375	-0.8697509765625	9.777919580078125	0.6123170745849609	0.17836802368164062	0.347137451171875	-4.85992431640625	-3.41796875	9.973645565795898	0.4908113403320312	-0.21607669982910155	2.574920654296875	-4.78363037109375	-1.811981201171875	
78	0.312	0.0	0.0	0.0	0.0	4.626	4.6530000000000005	4.656	4.605	9.871293444824218	0.0987608184814453	0.06823474731445311	2.468109130859375	-3.662109375	-0.99945068359375	9.77432827758789	0.5931634613037109	0.19931728820800781	0.591278076171875	-4.93621826171875	-3.23486328125	9.973047015380859	0.46806642456054687	-0.19692308654785154	2.727508544921875	-4.730224609375	-1.861572265625	
79	0.316	0.0	0.0	0.0	0.0	4.626	4.6530000000000005	4.6530000000000005	4.614	9.862315188598632	0.08080430603027343	0.0796072052001953	2.391815185546875	-3.673553466796875	-0.957489013671875	9.78031378173828	0.5847837554931641	0.2059013427734375	0.514984130859375	-4.974365234375	-3.414154052734375	9.97783541870117	0.45549686584472654	-0.17417817077636719	2.643585205078125	-4.711151123046875	-1.766204833984375	
80	0.32	0.0	0.0	0.0	0.0	4.626	4.647	4.6530000000000005	4.617	9.872490545654296	0.07242460021972656	0.086191259765625	2.422332763671875	-3.932952880859375	-0.87738037109375	9.777919580078125	0.5602431884765625	0.20231004028320312	0.5645751953125	-4.99725341796875	-3.5400390625	9.969455712890625	0.4369418029785156	-0.16340426330566404	2.716064453125	-4.608154296875	-1.94549560546875	
81	0.324	0.0	0.0	0.0	0.0	4.623	4.65	4.6530000000000005	4.6290000000000004	9.86411083984375	0.054468087768554684	0.086191259765625	2.50244140625	-3.72314453125	-0.91552734375	9.771934075927733	0.5536591339111328	0.21787235107421873	0.4119873046875	-4.89044189453125	-3.1890869140625	9.973047015380859	0.421978042602539	-0.15741875915527342	2.567291259765625	-4.795074462890625	-1.861572265625	
82	0.328	0.0	0.0	0.0	0.0	4.62	4.6530000000000005	4.6530000000000005	4.623	9.860519537353515	0.03172317199707031	0.09636661682128905	2.490997314453125	-3.71551513671875	-0.835418701171875	9.769539874267577	0.5285200164794922	0.21428104858398436	0.423431396484375	-5.14984130859375	-3.360748291015625	9.97184991455078	0.41060558471679687	-0.14903905334472656	2.66265869140625	-4.627227783203125	-1.529693603515625	
83	0.332	0.0	0.0	0.0	0.0	4.62	4.6530000000000005	4.647	4.626	9.855731134033203	0.017357962036132813	0.09816226806640624	2.567291259765625	-3.681182861328125	-1.1444091796875	9.773729727172851	0.5141548065185546	0.21487959899902342	0.5645751953125	-5.214691162109375	-3.337860107421875	9.970054263305663	0.39983167724609375	-0.14963760375976562	2.78472900390625	-4.657745361328125	-1.77001953125	
84	0.336	0.0	0.0	0.0	0.0	4.626	4.6530000000000005	4.6530000000000005	4.611	9.86411083984375	0.010773907470703125	0.10175357055664062	2.620697021484375	-3.879547119140625	-0.8544921875	9.781510882568359	0.5117606048583984	0.22565350646972654	0.698089599609375	-4.87518310546875	-3.322601318359375	9.975441217041014	0.3956418243408203	-0.143652099609375	2.4261474609375	-4.638671875	-1.865386962890625	
85	0.34	0.0	0.0	0.0	0.0	4.6290000000000004	4.6530000000000005	4.6530000000000005	4.605	9.865307940673828	0.005985504150390624	0.10175357055664062	2.52532958984375	-3.620147705078125	-0.79345703125	9.78031378173828	0.5039794494628906	0.2232593048095703	0.52642822265625	-4.9285888671875	-3.261566162109375	9.989806427001952	0.39264907226562495	-0.14963760375976562	2.60162353515625	-4.726409912109375	-1.86920166015625	
86	0.34400000000000003	0.0	0.0	0.0	0.0	4.6290000000000004	4.6530000000000005	4.6530000000000005	4.614	9.873089096069336	0.002992752075195312	0.10235212097167969	2.643585205078125	-3.936767578125	-0.904083251953125	9.78629928588867	0.49380409240722656	0.22445640563964842	0.66375732421875	-5.039215087890625	-3.59344482421875	9.981426721191406	0.3711012573242187	-0.15442600708007811	2.86102294921875	-4.94384765625	-1.85394287109375	
87	0.34800000000000003	0.0	0.0	0.0	0.0	4.623	4.647	4.6530000000000005	4.617	9.861118087768554	0.001197100830078125	0.10175357055664062	2.712249755859375	-3.47900390625	-0.972747802734375	9.782109432983399	0.49679684448242184	0.21009119567871093	0.621795654296875	-4.917144775390625	-3.265380859375	9.968258612060547	0.37409400939941406	-0.16280571289062498	2.765655517578125	-4.57000732421875	-1.636505126953125	
88	0.352	0.0	0.0	0.0	0.0	4.617	4.6530000000000005	4.6530000000000005	4.626	9.85692823486328	-0.011971008300781249	0.0987608184814453	2.674102783203125	-3.62396240234375	-0.9307861328125	9.783905084228515	0.49739539489746093	0.20829554443359374	0.560760498046875	-4.985809326171875	-3.368377685546875	9.981426721191406	0.36750995483398435	-0.16699556579589842	2.826690673828125	-4.81414794921875	-1.7852783203125	
89	0.356	0.0	0.0	0.0	0.0	4.626	4.6530000000000005	4.6530000000000005	4.623	9.867103591918944	0.002992752075195312	0.08678981018066406	2.61688232421875	-3.8299560546875	-0.83160400390625	9.769539874267577	0.49799394531249996	0.19572598571777342	0.782012939453125	-5.008697509765625	-3.398895263671875	9.976638317871092	0.3716998077392578	-0.1879448303222656	2.841949462890625	-4.8980712890625	-1.621246337890625	
90	0.36	0.0	0.0	0.0	0.0	4.62	4.6530000000000005	4.65	4.626	9.868300692749022	0.011971008300781249	0.08259995727539061	2.597808837890625	-3.536224365234375	-0.965118408203125	9.778518130493163	0.5051765502929687	0.18734627990722655	0.835418701171875	-4.82940673828125	-3.39508056640625	9.975441217041014	0.38247371520996093	-0.18854338073730467	2.70843505859375	-4.8065185546875	-1.91497802734375	
91	0.364	0.0	0.0	0.0	0.0	4.626	4.6530000000000005	4.6530000000000005	4.614	9.87727894897461	0.009576806640625	0.0909796630859375	2.3651123046875	-3.692626953125	-0.95367431640625	9.783905084228515	0.5039794494628906	0.181959326171875	0.6866455078125	-5.14984130859375	-3.444671630859375	9.98501802368164	0.3758896606445312	-0.2041056915283203	2.712249755859375	-4.669189453125	-1.705169677734375	
92	0.368	0.0	0.0	0.0	0.0	4.6290000000000004	4.6530000000000005	4.6530000000000005	4.605	9.866505041503906	0.010175357055664061	0.06943184814453125	2.49481201171875	-3.917694091796875	-1.02996826171875	9.782109432983399	0.507570751953125	0.18435352783203124	0.4730224609375	-5.176544189453125	-3.3416748046875	9.97903251953125	0.3806780639648437	-0.19333178405761717	2.61688232421875	-4.680633544921875	-1.735687255859375	
93	0.372	0.0	0.0	0.0	0.0	4.632	4.6530000000000005	4.6530000000000005	4.614	9.861716638183593	0.008978256225585938	0.06464344482421874	2.60162353515625	-3.757476806640625	-0.980377197265625	9.78031378173828	0.5135562561035156	0.17477672119140625	0.57220458984375	-5.08880615234375	-3.47900390625	9.983820922851562	0.37888241271972656	-0.18854338073730467	2.803802490234375	-4.70733642578125	-1.77764892578125	
94	0.376	0.0	0.0	0.0	0.0	4.6290000000000004	4.647	4.6530000000000005	4.62	9.868300692749022	0.018555062866210937	0.058657940673828124	2.62451171875	-3.692626953125	-0.812530517578125	9.785102185058593	0.5183446594238281	0.16340426330566404	0.614166259765625	-5.1116943359375	-3.41796875	9.97783541870117	0.39324762268066404	-0.1945288848876953	2.796173095703125	-4.749298095703125	-1.80816650390625	
95	0.38	0.0	0.0	0.0	0.0	4.626	4.6530000000000005	4.6530000000000005	4.623	9.871293444824218	0.03232172241210937	0.05746083984375	2.353668212890625	-3.742218017578125	-0.827789306640625	9.782707983398437	0.5153519073486328	0.1753752716064453	0.70953369140625	-4.95147705078125	-3.299713134765625	9.975441217041014	0.39923312683105466	-0.21308394775390624	2.529144287109375	-4.7607421875	-1.888275146484375	
96	0.384	0.0	0.0	0.0	0.0	4.623	4.6530000000000005	4.6530000000000005	4.626	9.86411083984375	0.032920272827148434	0.05686228942871093	2.50244140625	-3.77655029296875	-0.858306884765625	9.777919580078125	0.5333084197998047	0.17357962036132812	0.61798095703125	-4.974365234375	-3.4027099609375	9.973047015380859	0.40761283264160153	-0.19572598571777342	2.857208251953125	-4.924774169921875	-1.89971923828125	
97	0.388	0.0	0.0	0.0	0.0	4.614	4.6530000000000005	4.65	4.626	9.873687646484374	0.0430956298828125	0.052073886108398436	2.529144287109375	-3.803253173828125	-0.698089599609375	9.770736975097655	0.5422866760253906	0.17298106994628906	0.579833984375	-5.0506591796875	-3.429412841796875	9.973645565795898	0.41838674011230464	-0.20231004028320312	2.574920654296875	-4.756927490234375	-1.73187255859375	
98	0.392	0.0	0.0	0.0	0.0	4.626	4.6530000000000005	4.6530000000000005	4.614	9.874286196899414	0.04848258361816406	0.05566518859863281	2.5177001953125	-3.688812255859375	-0.823974609375	9.771934075927733	0.5518634826660156	0.1801636749267578	0.705718994140625	-5.138397216796875	-3.353118896484375	9.977236868286132	0.42317514343261714	-0.2041056915283203	2.559661865234375	-4.69970703125	-1.720428466796875	
99	0.396	0.0	0.0	0.0	0.0	4.6290000000000004	4.6530000000000005	4.6530000000000005	4.605	9.864709390258788	0.06105214233398437	0.03172317199707031	2.471923828125	-3.631591796875	-0.804901123046875	9.777321029663085	0.5686228942871093	0.16280571289062498	0.67138671875	-4.970550537109375	-3.330230712890625	9.982623822021484	0.42377369384765623	-0.21428104858398436	2.67791748046875	-4.749298095703125	-1.7547607421875	
100	0.4	0.0	0.0	0.0	0.0	4.6290000000000004	4.6530000000000005	4.6530000000000005	4.614	9.865906491088866	0.076614453125	0.03950432739257812	2.643585205078125	-3.91387939453125	-0.823974609375	9.78629928588867	0.5530605834960938	0.1592144104003906	0.3204345703125	-4.940032958984375	-3.2806396484375	9.97125136413574	0.41958384094238277	-0.20350714111328125	2.838134765625	-4.82940673828125	-1.789093017578125	
101	0.404	0.0	0.0	0.0	0.0	4.6290000000000004	4.647	4.6530000000000005	4.62	9.868300692749022	0.12988544006347655	0.017357962036132813	2.765655517578125	-3.917694091796875	-1.018524169921875	9.765948571777344	0.6685808135986328	0.16340426330566404	0.67901611328125	-5.279541015625	-3.36456298828125	9.954491952514648	0.5410895751953124	-0.19931728820800781	2.704620361328125	-4.543304443359375	-1.834869384765625	
102	0.40800000000000003	0.0	0.0	0.0	0.0	4.62	4.656	4.656	4.623	9.88266590270996	0.07422025146484375	0.017956512451171875	2.605438232421875	-4.161834716796875	-1.018524169921875	9.762955819702148	0.5111620544433594	0.15682020874023436	0.553131103515625	-4.978179931640625	-3.391265869140625	9.98501802368164	0.3441664886474609	-0.23822306518554687	2.69317626953125	-4.711151123046875	-1.96075439453125	
103	0.41200000000000003	0.0	0.0	0.0	0.0	4.626	4.6530000000000005	4.65	4.626	9.873687646484374	0.1466448516845703	0.016160861206054686	2.819061279296875	-3.83758544921875	-0.9918212890625	9.763554370117188	0.6865373260498047	0.14604630126953125	0.67901611328125	-5.199432373046875	-3.326416015625	9.944316595458984	0.49739539489746093	-0.20350714111328125	2.727508544921875	-4.924774169921875	-1.911163330078125	
104	0.41600000000000004	0.0	0.0	0.0	0.0	4.617	4.6530000000000005	4.647	4.6290000000000004	9.877877499389648	0.17058686828613281	-0.0017956512451171875	2.750396728515625	-3.8909912109375	-0.9613037109375	9.752181912231444	0.6637924102783203	0.15741875915527342	0.5340576171875	-5.214691162109375	-3.27301025390625	9.93354268798828	0.5644330413818359	-0.1693897674560547	2.61688232421875	-4.581451416015625	-1.6326904296875	
105	0.42	0.0	0.0	0.0	0.0	4.6290000000000004	4.6530000000000005	4.656	4.611	9.873687646484374	0.09157821350097656	0.023343466186523436	2.54058837890625	-4.016876220703125	-0.919342041015625	9.765948571777344	0.6117185241699218	0.16639701538085935	0.87738037109375	-4.932403564453125	-3.4942626953125	9.925761532592773	0.4578910675048828	-0.20171148986816406	2.712249755859375	-4.6844482421875	-1.964569091796875	
106	0.424	0.0	0.0	0.0	0.0	4.6290000000000004	4.656	4.6530000000000005	4.605	9.882067352294921	0.13347674255371092	-0.009576806640625	2.841949462890625	-3.936767578125	-1.0986328125	9.76235726928711	0.5985504150390625	0.1466448516845703	0.560760498046875	-4.95147705078125	-3.337860107421875	9.92217023010254	0.4572925170898437	-0.14544775085449219	2.574920654296875	-4.76837158203125	-1.74713134765625	
107	0.428	0.0	0.0	0.0	0.0	4.626	4.6530000000000005	4.6530000000000005	4.614	9.86291373901367	0.20649989318847656	0.058657940673828124	2.811431884765625	-3.726959228515625	-0.850677490234375	9.7683427734375	0.7505822204589844	0.17956512451171874	0.782012939453125	-4.75311279296875	-3.520965576171875	10.026916552734374	0.5572504364013672	-0.26755203552246093	2.658843994140625	-4.718780517578125	-1.9378662109375	
108	0.432	0.0	0.0	0.0	0.0	4.6290000000000004	4.647	4.6530000000000005	4.623	9.87009634399414	0.1657984649658203	0.0047884033203125	2.41851806640625	-3.89862060546875	-0.83160400390625	9.777919580078125	0.651821401977539	0.1657984649658203	0.69427490234375	-5.16510009765625	-3.322601318359375	9.90122096557617	0.45489831542968745	-0.11671733093261719	2.60162353515625	-4.741668701171875	-1.71661376953125	
109	0.436	0.0	0.0	0.0	0.0	4.6290000000000004	4.6530000000000005	4.6530000000000005	4.623	9.85692823486328	0.12389993591308593	0.07122749938964844	2.910614013671875	-3.875732421875	-1.010894775390625	9.764751470947266	0.6386532928466796	0.17417817077636719	0.484466552734375	-5.031585693359375	-3.612518310546875	10.022128149414062	0.39444472351074217	-0.2645592834472656	2.57110595703125	-4.6539306640625	-1.88446044921875	
110	0.44	0.0	0.0	0.0	0.0	4.62	4.6530000000000005	4.6530000000000005	4.626	9.890447058105469	0.21607669982910155	-0.023942016601562498	1.987457275390625	-3.35693359375	-0.782012939453125	9.78629928588867	0.7302315063476562	0.15023615417480468	0.537872314453125	-5.07354736328125	-3.345489501953125	9.928754284667969	0.5608417388916015	-0.07302315063476562	2.704620361328125	-4.547119140625	-1.644134521484375	
111	0.444	0.0	0.0	0.0	0.0	4.617	4.6530000000000005	4.65	4.626	9.84435867614746	0.1388636962890625	0.0796072052001953	2.979278564453125	-4.0283203125	-0.881195068359375	9.788094937133788	0.5853823059082031	0.14784195251464843	0.392913818359375	-5.0201416015625	-3.391265869140625	9.993996279907225	0.4423287567138672	-0.2154781494140625	2.72369384765625	-4.497528076171875	-1.758575439453125	
112	0.448	0.0	0.0	0.0	0.0	4.626	4.6530000000000005	4.656	4.611	9.843760125732421	0.08678981018066406	0.1640028137207031	2.170562744140625	-3.7078857421875	-1.068115234375	9.770736975097655	0.6153098266601562	0.17118541870117188	0.38909912109375	-5.2032470703125	-3.41796875	9.952696301269532	0.5722141967773438	-0.18435352783203124	3.063201904296875	-4.848480224609375	-1.811981201171875	
113	0.452	0.0	0.0	0.0	0.0	4.632	4.656	4.6530000000000005	4.605	9.855132583618163	0.1274912384033203	0.08020575561523437	3.05938720703125	-4.21142578125	-0.8697509765625	9.823409411621093	0.5799953521728515	0.12868833923339842	0.579833984375	-4.932403564453125	-3.536224365234375	10.044873065185547	0.49320554199218747	-0.2292448089599609	2.5787353515625	-4.37164306640625	-2.033233642578125	
114	0.456	0.0	0.0	0.0	0.0	4.626	4.6530000000000005	4.6530000000000005	4.611	9.848548529052733	0.12330138549804687	0.1879448303222656	2.4261474609375	-3.56292724609375	-0.72479248046875	9.704896429443359	0.7350199096679687	0.32501287536621093	0.560760498046875	-5.02777099609375	-3.07464599609375	9.955090502929687	0.6691793640136718	-0.15083470458984374	2.9296875	-4.6844482421875	-1.4801025390625	
115	0.46	0.0	0.0	0.0	0.0	4.626	4.647	4.6530000000000005	4.623	9.9215716796875	-0.16819266662597654	0.05746083984375	1.312255859375	-3.0670166015625	-1.068115234375	9.810241302490233	0.48662148742675776	0.17058686828613281	0.72479248046875	-4.9285888671875	-3.53240966796875	10.069413632202147	0.2262520568847656	-0.2663549346923828	2.685546875	-4.550933837890625	-1.583099365234375	
116	0.464	0.0	0.0	0.0	0.0	4.6290000000000004	4.6530000000000005	4.6530000000000005	4.623	9.83897172241211	0.09935936889648436	0.201112939453125	1.983642578125	-3.215789794921875	-0.843048095703125	9.725247143554688	0.7230489013671875	0.34715924072265625	0.705718994140625	-5.153656005859375	-3.154754638671875	9.964667309570311	0.6655880615234374	-0.14425065002441406	2.51007080078125	-4.64630126953125	-1.76239013671875	
117	0.468	0.0	0.0	0.0	0.0	4.62	4.6530000000000005	4.6530000000000005	4.623	9.931148486328125	-0.1610100616455078	0.03651157531738281	1.033782958984375	-2.63214111328125	-0.80108642578125	9.805452899169921	0.5315127685546874	0.16280571289062498	0.637054443359375	-5.199432373046875	-3.34930419921875	10.103531005859374	0.2711433380126953	-0.27892449340820313	2.899169921875	-4.72259521484375	-1.71661376953125	
118	0.47200000000000003	0.0	0.0	0.0	0.0	4.614	4.6530000000000005	4.65	4.626	9.82580361328125	0.08140285644531249	0.21906945190429686	1.9683837890625	-3.387451171875	-0.95367431640625	9.686341366577148	0.6691793640136718	0.3764882110595703	0.42724609375	-4.917144775390625	-3.0364990234375	9.937732540893554	0.5404910247802734	-0.10354922180175781	2.712249755859375	-4.573822021484375	-1.781463623046875	
119	0.47600000000000003	0.0	0.0	0.0	0.0	4.626	4.6530000000000005	4.6530000000000005	4.611	9.944915145874022	-0.2088940948486328	0.03890577697753906	0.949859619140625	-2.95257568359375	-0.86212158203125	9.91558617553711	0.34057518615722654	0.0987608184814453	0.579833984375	-5.016326904296875	-3.4332275390625	10.129268673706054	0.2442085693359375	-0.3094505645751953	2.72369384765625	-4.61578369140625	-1.91497802734375	
120	0.48	0.0	0.0	0.0	0.0	4.632	4.6530000000000005	4.6530000000000005	4.605	9.874884747314452	0.13646949462890623	0.07003039855957031	2.3040771484375	-3.597259521484375	-0.835418701171875	9.717465988159178	0.7020996368408202	0.3711012573242187	0.5035400390625	-4.970550537109375	-3.307342529296875	9.981426721191406	0.5901707092285156	-0.15023615417480468	2.83050537109375	-4.64630126953125	-1.766204833984375	
121	0.484	0.0	0.0	0.0	0.0	4.6290000000000004	4.6530000000000005	4.6530000000000005	4.614	9.938331091308592	-0.25139117431640623	0.051475335693359374	0.728607177734375	-2.925872802734375	-1.049041748046875	9.90241806640625	0.2998737579345703	0.0909796630859375	0.78582763671875	-4.99725341796875	-3.574371337890625	10.040084661865233	0.19632453613281248	-0.25318682556152344	2.651214599609375	-4.8980712890625	-1.64794921875	
122	0.488	0.0	0.0	0.0	0.0	4.6290000000000004	4.647	4.6530000000000005	4.62	9.880870251464843	0.15083470458984374	0.06584054565429687	2.25067138671875	-3.505706787109375	-0.946044921875	9.730035546875	0.6643909606933593	0.22864625854492185	0.453948974609375	-4.970550537109375	-3.383636474609375	9.97125136413574	0.5913678100585937	-0.17776947326660156	2.559661865234375	-4.825592041015625	-1.7547607421875	
123	0.492	0.0	0.0	0.0	0.0	4.62	4.6530000000000005	4.6530000000000005	4.623	9.95987890625	-0.2825157958984375	0.006584054565429687	3.459930419921875	-4.016876220703125	-0.70953369140625	9.94671079711914	0.28730419921875	0.055066638183593745	0.96893310546875	-4.825592041015625	-3.50189208984375	10.078990438842773	0.20829554443359374	-0.3184288208007812	2.9144287109375	-4.84466552734375	-1.415252685546875	
124	0.496	0.0	0.0	0.0	0.0	4.62	4.6530000000000005	4.6530000000000005	4.623	9.867702142333984	0.1197100830078125	0.06703764648437499	2.407073974609375	-3.57818603515625	-1.003265380859375	9.745597857666015	0.6284779357910156	0.22744915771484372	0.492095947265625	-5.11932373046875	-3.28826904296875	9.982623822021484	0.5404910247802734	-0.21248539733886718	3.04412841796875	-4.8370361328125	-1.88446044921875	
125	0.5	0.0	0.0	0.0	0.0	4.614	4.6530000000000005	4.65	4.6290000000000004	9.860519537353515	0.17417817077636719	0.08439560852050781	3.56292724609375	-4.37164306640625	-0.77056884765625	9.792284790039062	0.316034619140625	0.17477672119140625	0.492095947265625	-5.157470703125	-3.16619873046875	10.056245523071288	0.2214636535644531	-0.3124433166503906	2.83050537109375	-4.604339599609375	-1.621246337890625	
126	0.504	0.0	0.0	0.0	0.0	4.6290000000000004	4.6530000000000005	4.6530000000000005	4.611	9.904812268066406	0.1370680450439453	0.044891281127929686	2.777099609375	-3.99017333984375	-0.797271728515625	9.749189160156249	0.6434416961669921	0.21487959899902342	0.911712646484375	-5.123138427734375	-3.22723388671875	9.848548529052733	0.46627077331542965	-0.07362170104980469	2.31170654296875	-4.550933837890625	-1.9683837890625	
127	0.508	0.0	0.0	0.0	0.0	4.6290000000000004	4.6530000000000005	4.6530000000000005	4.6080000000000005	9.874286196899414	0.15442600708007811	0.03531447448730469	3.856658935546875	-4.459381103515625	-0.5950927734375	9.817423907470703	0.22086510314941404	0.13407529296874998	0.583648681640625	-5.096435546875	-3.139495849609375	10.083180291748047	0.14963760375976562	-0.33698388366699217	2.742767333984375	-4.8065185546875	-1.556396484375	
128	0.512	0.0	0.0	0.0	0.0	4.6290000000000004	4.6530000000000005	4.6530000000000005	4.611	9.862315188598632	0.10414777221679687	0.07841010437011718	3.5247802734375	-4.08935546875	-1.03759765625	9.686939916992188	0.6308721374511719	0.20769699401855468	0.69427490234375	-4.673004150390625	-3.6773681640625	9.80066449584961	0.479438882446289	-0.040701428222656245	2.58636474609375	-4.528045654296875	-2.262115478515625	
129	0.516	0.0	0.0	0.0	0.0	4.626	4.647	4.6530000000000005	4.617	9.861716638183593	0.2166752502441406	0.02693476867675781	4.02069091796875	-4.703521728515625	-0.621795654296875	9.824007962036132	0.23044190979003906	0.11013327636718749	0.72479248046875	-5.2032470703125	-3.269195556640625	9.841365924072266	0.488417138671875	0.0005985504150390625	2.14385986328125	-4.76837158203125	-1.5106201171875	
130	0.52	0.0	0.0	0.0	0.0	4.626	4.6530000000000005	4.656	4.623	9.868899243164062	0.06943184814453125	0.06464344482421874	3.673553466796875	-4.390716552734375	-1.110076904296875	9.69831237487793	0.6153098266601562	0.19692308654785154	0.545501708984375	-4.856109619140625	-3.604888916015625	9.798270294189452	0.42018239135742186	-0.006584054565429687	2.277374267578125	-4.558563232421875	-2.353668212890625	
131	0.524	0.0	0.0	0.0	0.0	4.62	4.6530000000000005	4.6530000000000005	4.623	9.842563024902343	0.2567781280517578	0.02154781494140625	3.85284423828125	-4.72259521484375	-0.732421875	9.680355862426758	0.6667851623535156	0.19812018737792966	0.522613525390625	-5.06591796875	-3.387451171875	9.8311905670166	0.47105917663574215	0.01975216369628906	2.277374267578125	-4.756927490234375	-1.89971923828125	
132	0.528	0.0	0.0	0.0	0.0	4.617	4.6530000000000005	4.65	4.626	9.853336932373047	0.11133037719726561	0.06703764648437499	3.631591796875	-4.222869873046875	-1.079559326171875	9.677363110351562	0.670975015258789	0.21727380065917967	0.766754150390625	-4.93621826171875	-3.692626953125	9.99220062866211	0.3507505432128906	-0.2663549346923828	2.758026123046875	-4.5623779296875	-2.040863037109375	
133	0.532	0.0	0.0	0.0	0.0	4.626	4.6530000000000005	4.656	4.611	9.91438907470703	0.08978256225585937	-0.037708676147460936	2.37274169921875	-3.620147705078125	-1.12152099609375	9.658209497070311	0.6757634185791015	0.20290859069824219	0.682830810546875	-5.207061767578125	-3.162384033203125	9.830592016601562	0.47704468078613277	0.008379705810546874	2.34222412109375	-4.756927490234375	-1.857757568359375	
134	0.536	0.0	0.0	0.0	0.0	4.62	4.656	4.6530000000000005	4.605	9.852738381958007	0.14784195251464843	0.06763619689941405	3.635406494140625	-4.5166015625	-1.026153564453125	9.777321029663085	0.5500678314208984	0.13168109130859373	0.5035400390625	-4.70733642578125	-3.79180908203125	10.016142645263672	0.32441432495117184	-0.30466216125488277	2.887725830078125	-4.486083984375	-2.06756591796875	
135	0.54	0.0	0.0	0.0	0.0	4.62	4.6530000000000005	4.6530000000000005	4.614	9.917381826782226	0.12030863342285156	-0.0430956298828125	2.452850341796875	-3.742218017578125	-1.12152099609375	9.661202249145507	0.7230489013671875	0.22864625854492185	0.858306884765625	-5.4168701171875	-3.326416015625	9.803058697509766	0.5021837982177734	0.013168109130859374	2.841949462890625	-4.81414794921875	-1.79290771484375	
136	0.544	0.0	0.0	0.0	0.0	4.6290000000000004	4.647	4.6530000000000005	4.62	9.841365924072266	0.20709844360351562	0.05686228942871093	2.35748291015625	-3.582000732421875	-1.0223388671875	9.777919580078125	0.5835866546630859	0.1274912384033203	0.621795654296875	-4.81414794921875	-3.83758544921875	10.005368737792969	0.37229835815429685	-0.3190273712158203	3.11279296875	-4.474639892578125	-2.170562744140625	
137	0.548	0.0	0.0	0.0	0.0	4.623	4.656	4.656	4.623	9.923367330932617	0.16220716247558592	-0.06703764648437499	2.35748291015625	-3.86810302734375	-1.224517822265625	9.657012396240233	0.7170633972167968	0.23642741394042968	0.14495849609375	-5.11932373046875	-3.261566162109375	9.917381826782226	0.8068459594726562	-0.15023615417480468	3.025054931640625	-4.63104248046875	-1.239776611328125	
138	0.552	0.0	0.0	0.0	0.0	4.62	4.6530000000000005	4.6530000000000005	4.626	9.922768780517577	-0.10115502014160156	-0.01915361328125	2.300262451171875	-3.612518310546875	-1.0986328125	9.779116680908203	0.5799953521728515	0.12389993591308593	0.63323974609375	-4.726409912109375	-3.879547119140625	10.008361489868163	0.4225765930175781	-0.3705027069091797	2.704620361328125	-4.66156005859375	-2.11334228515625	
139	0.556	0.0	0.0	0.0	0.0	4.62	4.6530000000000005	4.65	4.6290000000000004	9.920374578857421	0.18914193115234373	-0.04967968444824218	2.567291259765625	-4.055023193359375	-1.194000244140625	9.777919580078125	0.7655459808349608	0.22206220397949217	0.225067138671875	-4.913330078125	-3.18145751953125	9.907206469726562	0.8301894256591796	-0.15502455749511718	2.857208251953125	-4.604339599609375	-1.4495849609375	
140	0.56	0.0	0.0	0.0	0.0	4.6290000000000004	4.6530000000000005	4.656	4.614	9.944316595458984	-0.12330138549804687	-0.05087678527832031	2.32696533203125	-4.062652587890625	-1.12152099609375	9.781510882568359	0.5895721588134766	0.1149216796875	0.293731689453125	-5.023956298828125	-3.753662109375	10.229226593017577	0.14484920043945312	-0.49320554199218747	2.826690673828125	-4.528045654296875	-1.8463134765625	
141	0.5640000000000001	0.0	0.0	0.0	0.0	4.626	4.6530000000000005	4.6530000000000005	4.605	9.76894132385254	-0.07422025146484375	0.20231004028320312	1.781463623046875	-3.39508056640625	-0.598907470703125	9.787496386718749	0.7643488800048828	0.18734627990722655	0.041961669921875	-5.096435546875	-3.143310546875	9.89463691101074	0.8972270721435547	-0.14604630126953125	2.960205078125	-4.787445068359375	-1.506805419921875	
142	0.5680000000000001	0.0	0.0	0.0	0.0	4.623	4.6530000000000005	4.6530000000000005	4.611	9.958681805419921	-0.1849520782470703	-0.044292730712890624	2.216339111328125	-3.597259521484375	-0.98419189453125	10.029310754394531	0.201112939453125	-0.13407529296874998	0.484466552734375	-5.001068115234375	-3.34930419921875	10.232817895507813	0.1131260284423828	-0.5009866973876953	2.7313232421875	-4.52423095703125	-2.124786376953125	
143	0.5720000000000001	0.0	0.0	0.0	0.0	4.626	4.647	4.6530000000000005	4.617	9.762955819702148	-0.10594342346191406	0.21787235107421873	1.7852783203125	-3.25775146484375	-0.652313232421875	9.795277542114258	0.7727285858154297	0.16998831787109375	0.049591064453125	-5.100250244140625	-3.0975341796875	10.020931048583984	0.6596025573730468	-0.23403321228027343	2.98309326171875	-4.608154296875	-1.76239013671875	
144	0.5760000000000001	0.0	0.0	0.0	0.0	4.626	4.6530000000000005	4.656	4.623	9.97244846496582	-0.2346317626953125	-0.04249707946777344	2.0751953125	-3.39508056640625	-1.064300537109375	10.022128149414062	0.24899697265624998	-0.09816226806640624	0.835418701171875	-4.734039306640625	-3.162384033203125	10.26035121459961	0.15682020874023436	-0.5201403106689453	2.8076171875	-4.5166015625	-1.598358154296875	
145	0.58	0.0	0.0	0.0	0.0	4.62	4.6530000000000005	4.6530000000000005	4.626	9.753379013061522	-0.17118541870117188	0.2472013214111328	1.529693603515625	-3.662109375	-0.61798095703125	9.685742816162108	0.9062053283691406	0.229843359375	0.774383544921875	-5.176544189453125	-3.200531005859375	9.99160207824707	0.55545478515625	-0.15083470458984374	2.86102294921875	-4.78363037109375	-1.743316650390625	
146	0.584	0.0	0.0	0.0	0.0	4.62	4.6530000000000005	4.65	4.6290000000000004	9.944316595458984	-0.4165910888671875	0.00718260498046875	0.1373291015625	-2.452850341796875	-0.583648681640625	10.001777435302733	0.2902969512939453	-0.06464344482421874	0.57220458984375	-5.14984130859375	-3.475189208984375	10.268132369995117	0.1975216369628906	-0.5410895751953124	2.674102783203125	-4.657745361328125	-1.8768310546875	
147	0.588	0.0	0.0	0.0	0.0	4.6290000000000004	4.656	4.656	4.614	9.742605105590819	-0.18375497741699218	0.2651578338623047	1.24359130859375	-3.269195556640625	-0.45013427734375	9.68454571533203	1.0283096130371092	0.2663549346923828	0.720977783203125	-4.94384765625	-3.223419189453125	9.977236868286132	0.6332663391113281	-0.10175357055664062	2.819061279296875	-4.5318603515625	-1.735687255859375	
148	0.592	0.0	0.0	0.0	0.0	4.626	4.656	4.6530000000000005	4.605	9.920374578857421	-0.4177881896972656	0.04369418029785156	0.270843505859375	-2.57110595703125	-0.545501708984375	9.860519537353515	0.3705027069091797	0.1304839904785156	0.9765625	-5.43212890625	-3.421783447265625	10.089165795898436	-0.047285482788085934	-0.23403321228027343	2.658843994140625	-4.917144775390625	-1.36566162109375	
149	0.596	0.0	0.0	0.0	0.0	4.626	4.6530000000000005	4.6530000000000005	4.614	9.721057290649414	-0.19871873779296872	0.29927520751953124	2.056121826171875	-3.299713134765625	-0.84686279296875	9.688137017822266	1.0761936462402344	0.31184476623535157	0.583648681640625	-4.985809326171875	-3.093719482421875	9.997587582397461	0.6350619903564453	-0.09457096557617187	2.765655517578125	-4.558563232421875	-1.86920166015625	
150	0.6	0.0	0.0	0.0	0.0	4.626	4.647	4.6530000000000005	4.62	9.90241806640625	-0.3178302703857422	0.05626373901367187	0.213623046875	-2.590179443359375	-0.598907470703125	9.86291373901367	0.4375403533935547	0.14784195251464843	0.77056884765625	-4.817962646484375	-3.2806396484375	10.10652375793457	0.031124621582031248	-0.22385785522460935	2.742767333984375	-4.833221435546875	-1.415252685546875	
151	0.604	0.0	0.0	0.0	0.0	4.623	4.6530000000000005	4.656	4.62	9.827000714111328	0.3286041778564453	0.07781155395507812	2.12860107421875	-3.570556640625	-0.850677490234375	9.62109937133789	0.8804676605224608	0.3274070770263672	0.812530517578125	-4.7454833984375	-3.9825439453125	9.73602105102539	0.37229835815429685	0.051475335693359374	2.18963623046875	-4.543304443359375	-2.017974853515625	
152	0.608	0.0	0.0	0.0	0.0	3.33	0.003	0.003	0.003	9.885658654785155	-0.38786066894531246	0.0909796630859375	0.1220703125	-2.498626708984375	-0.48828125	9.886855755615233	0.37888241271972656	0.1370680450439453	0.9918212890625	-5.237579345703125	-3.4942626953125	10.105925207519531	-0.11611878051757812	-0.2501940734863281	2.819061279296875	-4.6844482421875	-1.54876708984375	
153	0.612	0.0	0.0	0.0	0.0	0.006	0.003	0.003	0.003	9.820416659545899	0.30526071166992186	0.06284779357910156	1.895904541015625	-3.147125244140625	-0.8697509765625	9.639055883789062	1.0223241088867188	0.3381809844970703	0.7476806640625	-4.718780517578125	-4.0435791015625	9.750386260986328	0.4477157104492187	0.0718260498046875	2.06756591796875	-4.558563232421875	-2.056121826171875	
154	0.616	0.0	0.0	0.0	0.0	0.003	0.006	0.003	0.006	9.820416659545899	0.8271966735839843	0.07601590270996093	4.665374755859375	-5.096435546875	-0.621795654296875	9.61451531677246	0.5015852478027344	0.3854664672851562	0.57220458984375	-5.199432373046875	-3.2501220703125	9.81263550415039	0.5781997009277343	-0.047884033203124995	2.399444580078125	-4.82940673828125	-1.544952392578125	
155	0.62	0.0	0.0	0.0	0.0	0.003	0.006	0.006	0.006	9.808445651245117	0.13287819213867186	0.08080430603027343	1.24359130859375	-2.727508544921875	-0.93841552734375	9.639055883789062	0.9361328491210937	0.3184288208007812	0.87738037109375	-4.50897216796875	-4.169464111328125	9.744400756835937	0.28730419921875	0.06045359191894531	1.93023681640625	-4.833221435546875	-2.391815185546875	
156	0.624	0.0	0.0	0.0	0.0	0.003	0.006	0.003	0.003	9.83897172241211	0.7829039428710937	0.031124621582031248	4.29534912109375	-4.863739013671875	-0.835418701171875	9.628281976318359	0.508169302368164	0.35673604736328124	0.461578369140625	-5.19561767578125	-3.4332275390625	9.83837317199707	0.5087678527832031	-0.08140285644531249	2.17437744140625	-4.604339599609375	-1.583099365234375	
157	0.628	0.0	0.0	0.0	0.0	0.003	0.006	0.003	0.003	9.798270294189452	0.21487959899902342	0.08259995727539061	0.66375732421875	-2.41851806640625	-0.87738037109375	9.616909518432617	1.13006318359375	0.3393780853271484	0.255584716796875	-5.069732666015625	-3.86810302734375	9.735422500610351	0.47884033203125	0.09277531433105468	2.849578857421875	-4.5013427734375	-1.979827880859375	
158	0.632	0.0	0.0	0.0	0.0	0.006	0.003	0.003	0.009000000000000001	9.829394915771484	0.7978677032470702	0.020949264526367185	4.192352294921875	-4.60052490234375	-0.66375732421875	9.624690673828125	0.5309142181396485	0.3537432952880859	0.652313232421875	-4.87518310546875	-3.337860107421875	9.79348189086914	0.5207388610839844	-0.0430956298828125	2.262115478515625	-4.772186279296875	-1.45721435546875	
159	0.636	0.0	0.0	0.0	0.0	0.003	0.006	0.006	0.006	9.949104998779296	0.5524620330810547	0.04848258361816406	6.03485107421875	-5.8746337890625	-1.026153564453125	9.771335525512695	0.21428104858398436	0.17597382202148437	0.133514404296875	-4.817962646484375	-3.749847412109375	10.006565838623047	0.43155484924316406	-0.38187516479492184	2.716064453125	-4.405975341796875	-2.28118896484375	
160	0.64	0.0	0.0	0.0	0.0	0.003	0.006	0.003	0.003	9.853935482788085	0.8200140686035156	-0.028730419921875	4.352569580078125	-4.61578369140625	-0.67901611328125	9.619902270507811	0.6548141540527344	0.3716998077392578	0.335693359375	-5.046844482421875	-3.559112548828125	9.802460147094726	0.6027402679443359	-0.076614453125	2.20489501953125	-4.886627197265625	-1.35040283203125	
161	0.644	0.0	0.0	0.0	0.0	0.003	0.006	0.003	0.003	9.926360083007811	0.6081272216796875	0.05566518859863281	6.168365478515625	-5.855560302734375	-1.079559326171875	9.722254391479492	0.2813186950683594	0.20829554443359374	0.186920166015625	-5.0048828125	-3.696441650390625	9.969455712890625	0.5105635040283203	-0.36272155151367186	2.658843994140625	-4.352569580078125	-1.99127197265625	
162	0.648	0.0	0.0	0.0	0.0	0.003	0.006	0.003	0.006	9.871293444824218	0.7541735229492187	-0.06284779357910156	4.169464111328125	-5.01251220703125	-0.186920166015625	9.789890588378906	0.2819172454833984	0.11252747802734374	0.171661376953125	-5.18798828125	-2.87628173828125	9.906009368896484	0.8541314422607421	-0.13407529296874998	2.838134765625	-4.63104248046875	-1.522064208984375	
163	0.652	0.0	0.0	0.0	0.0	0.003	0.006	0.003	0.003	9.9461122467041	0.59376201171875	0.005985504150390624	6.317138671875	-6.134033203125	-1.064300537109375	9.749189160156249	0.34536358947753903	0.15382745666503905	0.354766845703125	-4.7454833984375	-3.83758544921875	10.01733974609375	0.4752490295410156	-0.38786066894531246	2.838134765625	-4.2572021484375	-2.353668212890625	
164	0.656	0.0	0.0	0.0	0.0	0.0	0.003	0.003	0.003	9.93952819213867	0.08140285644531249	0.08499415893554688	4.21142578125	-4.886627197265625	-0.9613037109375	9.76116016845703	0.4159925384521484	0.11073182678222655	0.25177001953125	-5.069732666015625	-2.8839111328125	9.877877499389648	0.9379285003662109	-0.12509703674316405	2.8228759765625	-4.619598388671875	-1.682281494140625	
165	0.66	0.0	0.0	0.0	0.0	0.006	0.003	0.006	0.006	9.925162982177733	0.5746083984375	0.017956512451171875	5.95855712890625	-5.664825439453125	-1.1444091796875	9.989806427001952	0.04189852905273437	-0.09576806640624999	0.6866455078125	-5.222320556640625	-3.0670166015625	10.301052642822265	0.037708676147460936	-0.5506663818359374	3.047943115234375	-4.573822021484375	-1.674652099609375	
166	0.664	0.0	0.0	0.0	0.0	0.0	0.003	0.006	0.006	9.94730934753418	-0.011372457885742187	0.06584054565429687	3.91387939453125	-4.730224609375	-1.018524169921875	9.791686239624022	0.3232172241210937	0.06464344482421874	-0.049591064453125	-5.130767822265625	-3.0364990234375	9.917381826782226	0.7457938171386719	-0.18614917907714842	2.9144287109375	-4.85992431640625	-1.789093017578125	
167	0.668	0.0	0.0	0.0	0.0	0.006	0.006	0.003	0.006	10.052055670166014	-0.8044517578125	-0.10235212097167969	0.6256103515625	-3.009796142578125	-1.018524169921875	10.014945544433592	0.044292730712890624	-0.12988544006347655	0.705718994140625	-5.222320556640625	-3.147125244140625	10.34833812561035	0.05027823486328125	-0.6464344482421874	3.02886962890625	-4.50897216796875	-1.77001953125	
168	0.672	0.0	0.0	0.0	0.0	0.006	0.003	0.006	0.006	9.929352835083007	0.00718260498046875	0.1149216796875	3.5400390625	-4.634857177734375	-0.89263916015625	9.734823950195311	0.7152677459716796	0.2753331909179687	0.293731689453125	-5.2032470703125	-2.54058837890625	9.903016616821288	0.8487444885253905	-0.19333178405761717	2.90679931640625	-4.795074462890625	-1.52587890625	
169	0.676	0.0	0.0	0.0	0.0	0.003	0.003	0.003	0.003	10.064026678466796	-0.8888473663330078	-0.08858546142578125	0.507354736328125	-3.0059814453125	-0.919342041015625	10.013748443603514	-0.14604630126953125	-0.1466448516845703	0.598907470703125	-5.092620849609375	-3.093719482421875	10.36210478515625	-0.05027823486328125	-0.699705435180664	3.22723388671875	-4.528045654296875	-1.834869384765625	
170	0.68	0.0	0.0	0.0	0.0	0.003	0.003	0.003	0.006	9.976039767456054	-0.047884033203124995	0.051475335693359374	3.925323486328125	-4.913330078125	-0.6561279296875	9.785700735473633	0.6350619903564453	0.23044190979003906	0.67138671875	-5.25665283203125	-2.75421142578125	10.029310754394531	0.7523778717041015	-0.1292868896484375	2.95257568359375	-4.779815673828125	-1.7242431640625	
171	0.684	0.0	0.0	0.0	0.0	0.003	0.006	0.003	0.006	10.058041174316406	-0.36272155151367186	-0.0909796630859375	2.593994140625	-4.18853759765625	-1.01470947265625	10.008960040283203	0.36212300109863277	0.012569558715820313	1.07574462890625	-5.34820556640625	-3.08990478515625	10.314220751953124	0.15203180541992187	-0.6685808135986328	3.139495849609375	-4.6234130859375	-1.483917236328125	
172	0.6880000000000001	0.0	0.0	0.0	0.0	0.003	0.006	0.003	0.003	9.6151138671875	-0.02693476867675781	0.3585316986083984	1.53350830078125	-3.269195556640625	-0.8697509765625	9.777321029663085	0.3178302703857422	0.21906945190429686	0.568389892578125	-5.04302978515625	-2.5787353515625	9.97783541870117	0.5823895538330078	-0.09157821350097656	3.025054931640625	-4.604339599609375	-1.499176025390625	
173	0.6920000000000001	0.0	0.0	0.0	0.0	0.003	0.003	0.003	0.006	10.062829577636718	-0.11671733093261719	-0.06404489440917968	4.077911376953125	-4.734039306640625	-0.644683837890625	10.074202035522461	-0.04967968444824218	0.0005985504150390625	1.049041748046875	-5.222320556640625	-3.032684326171875	10.187926614379883	0.01915361328125	-0.41958384094238277	2.658843994140625	-5.001068115234375	-1.918792724609375	
174	0.6960000000000001	0.0	0.0	0.0	0.0	0.0	0.006	0.006	0.006	9.63366893005371	-0.1370680450439453	0.3651157531738281	1.89971923828125	-3.482818603515625	-1.1138916015625	9.661800799560547	0.8714894042968749	0.29867665710449215	0.80108642578125	-4.913330078125	-3.6468505859375	10.007762939453125	0.7529764221191406	-0.1005564697265625	2.8228759765625	-4.63104248046875	-1.96075439453125	
175	0.7000000000000001	0.0	0.0	0.0	0.0	0.006	0.006	0.006	0.006	10.022128149414062	-0.10953472595214843	0.01915361328125	-0.12969970703125	-4.993438720703125	-0.70953369140625	10.040084661865233	0.07781155395507812	0.017357962036132813	0.843048095703125	-5.48553466796875	-2.8533935546875	10.114903463745117	0.2807201446533203	-0.34057518615722654	2.399444580078125	-4.848480224609375	-1.613616943359375	
176	0.704	0.0	0.0	0.0	0.0	0.006	0.006	0.006	0.006	9.654019644165038	-0.061650692749023434	0.37708676147460934	1.964569091796875	-3.322601318359375	-0.8392333984375	9.68454571533203	0.7499836700439453	0.28431144714355466	0.850677490234375	-4.955291748046875	-3.139495849609375	9.721655841064452	0.612915625	0.061650692749023434	2.254486083984375	-4.795074462890625	-2.09808349609375	
177	0.708	0.0	0.0	0.0	0.0	0.006	0.006	0.003	0.006	9.727042794799804	-0.05686228942871093	0.19033903198242186	-0.030517578125	-2.34222412109375	-1.0833740234375	10.09395419921875	-0.12210428466796874	-0.029927520751953124	0.362396240234375	-5.084991455078125	-3.185272216796875	10.184933862304687	-0.02633621826171875	-0.40761283264160153	2.52532958984375	-4.894256591796875	-1.64794921875	
178	0.712	0.0	0.0	0.0	0.0	0.006	0.003	0.006	0.006	9.64623848876953	-0.105344873046875	0.40761283264160153	1.6326904296875	-3.04412841796875	-1.117706298828125	9.670180505371093	0.6548141540527344	0.316034619140625	0.926971435546875	-5.0201416015625	-3.50189208984375	9.701903677368163	0.46806642456054687	0.1131260284423828	2.38037109375	-4.7760009765625	-2.582550048828125	
179	0.716	0.0	0.0	0.0	0.0	0.006	0.006	0.003	0.006	9.707290631103515	-0.10594342346191406	0.22206220397949217	-0.072479248046875	-2.109527587890625	-1.15203857421875	9.60793126220703	0.7296329559326171	0.4495113616943359	0.171661376953125	-5.1116943359375	-3.429412841796875	10.168174450683592	0.5416881256103515	-0.4052186309814453	2.506256103515625	-4.886627197265625	-1.739501953125	
180	0.72	0.0	0.0	0.0	0.0	0.003	0.003	0.006	0.006	9.679158761596678	-0.025737667846679687	0.05985504150390625	-0.48065185546875	-1.522064208984375	-1.18255615234375	9.701305126953125	0.9642647186279296	0.25797522888183594	0.67901611328125	-4.92095947265625	-2.92205810546875	9.752780462646484	0.48063598327636714	0.08439560852050781	2.3651123046875	-4.69207763671875	-1.827239990234375	
181	0.724	0.0	0.0	0.0	0.0	0.009000000000000001	0.003	0.006	0.006	9.743203656005859	0.04249707946777344	0.19632453613281248	0.118255615234375	-2.193450927734375	-1.07574462890625	9.626486325073241	0.6362590911865234	0.44592005920410155	0.213623046875	-4.75311279296875	-3.0670166015625	9.739612353515625	0.3387795349121094	0.044891281127929686	2.513885498046875	-4.57763671875	-1.407623291015625	
182	0.728	0.0	0.0	0.0	0.0	0.006	0.003	0.003	0.003	9.834781869506836	0.05805939025878906	0.09277531433105468	-0.125885009765625	-1.983642578125	-0.946044921875	9.619902270507811	0.507570751953125	0.26815058593749996	0.545501708984375	-4.955291748046875	-4.26483154296875	9.726444244384766	0.3938461730957031	0.1131260284423828	2.471923828125	-4.57000732421875	-2.60162353515625	
183	0.732	0.0	0.0	0.0	0.0	0.009000000000000001	0.006	0.006	0.006	9.743203656005859	-0.10235212097167969	0.15861585998535155	0.110626220703125	-2.0751953125	-1.1138916015625	9.548076220703125	1.7016788299560546	0.49799394531249996	0.48828125	-5.13458251953125	-2.437591552734375	9.773131176757811	0.6757634185791015	0.04249707946777344	2.227783203125	-4.7454833984375	-1.689910888671875	
184	0.736	0.0	0.0	0.0	0.0	0.003	0.003	0.003	0.003	9.808445651245117	0.052073886108398436	0.13646949462890623	0.08392333984375	-2.0294189453125	-1.064300537109375	9.719860189819336	-0.7607575775146483	0.28730419921875	0.591278076171875	-4.940032958984375	-4.364013671875	9.91438907470703	0.20171148986816406	-0.16819266662597654	2.44903564453125	-4.547119140625	-2.124786376953125	
185	0.74	0.0	0.0	0.0	0.0	0.006	0.003	0.003	0.003	10.000580334472655	0.24660277099609373	-0.19033903198242186	2.0294189453125	-3.459930419921875	-0.659942626953125	9.536105212402344	1.6747440612792968	0.17357962036132812	0.29754638671875	-5.252838134765625	-2.61688232421875	9.721057290649414	0.642244595336914	0.020949264526367185	2.5177001953125	-4.642486572265625	-1.739501953125	
186	0.744	0.0	0.0	0.0	0.0	0.003	0.003	0.003	0.006	9.90241806640625	0.2980781066894531	0.06943184814453125	1.811981201171875	-2.90679931640625	-0.888824462890625	9.649829791259766	0.5907692596435546	0.25737667846679685	0.347137451171875	-4.70733642578125	-4.825592041015625	9.898826763916015	0.2825157958984375	-0.2136824981689453	2.40325927734375	-4.398345947265625	-1.983642578125	
187	0.748	0.0	0.0	0.0	0.0	0.003	0.003	0.006	0.006	9.99220062866211	0.05386953735351562	-0.181959326171875	3.753662109375	-4.32586669921875	-0.850677490234375	9.649829791259766	0.5494692810058593	0.12629413757324218	0.6256103515625	-4.98199462890625	-2.06756591796875	9.884461553955077	0.5859808563232421	-0.06344634399414062	2.712249755859375	-4.608154296875	-1.628875732421875	
188	0.752	0.0	0.0	0.0	0.0	0.003	0.006	0.003	0.006	9.881468801879882	0.12509703674316405	0.08020575561523437	1.76239013671875	-3.0517578125	-1.01470947265625	9.875483297729492	0.32920272827148434	-0.002992752075195312	0.576019287109375	-4.825592041015625	-4.44793701171875	9.879673150634765	0.21248539733886718	-0.15263035583496093	2.269744873046875	-4.1656494140625	-1.9378662109375	
189	0.756	0.0	0.0	0.0	0.0	0.006	0.003	0.003	0.003	10.011354241943359	0.16699556579589842	-0.22206220397949217	3.971099853515625	-4.93621826171875	-0.782012939453125	9.717465988159178	-0.20231004028320312	0.061650692749023434	0.091552734375	-4.848480224609375	-2.796173095703125	9.833584768676758	0.51714755859375	-0.017956512451171875	2.61688232421875	-4.6844482421875	-1.773834228515625	
190	0.76	0.0	0.0	0.0	0.0	0.003	0.006	0.003	0.006	10.089165795898436	-0.03411737365722656	-0.3190273712158203	5.523681640625	-5.889892578125	-0.659942626953125	9.821015209960937	1.0839748016357422	-0.047884033203124995	0.934600830078125	-5.13458251953125	-3.6773681640625	9.904812268066406	0.34117373657226563	-0.27174188842773433	2.777099609375	-4.547119140625	-1.392364501953125	
191	0.764	0.0	0.0	0.0	0.0	-0.003	0.006	0.006	0.006	10.034099157714843	0.062249243164062495	-0.21428104858398436	4.566192626953125	-5.10406494140625	-0.67901611328125	9.853935482788085	0.1131260284423828	0.2962824554443359	0.881195068359375	-5.2032470703125	-2.536773681640625	9.849147079467773	0.43993455505371093	0.015562310791015624	2.727508544921875	-4.581451416015625	-1.834869384765625	
192	0.768	0.0	0.0	0.0	0.0	0.006	0.003	0.003	0.003	9.9981861328125	-0.15861585998535155	-0.1753752716064453	5.039215087890625	-5.5694580078125	-0.55694580078125	9.810839852905273	0.93852705078125	-0.008379705810546874	0.89263916015625	-5.01251220703125	-2.960205078125	10.287884533691406	0.45070846252441404	-0.49679684448242184	3.0670166015625	-4.581451416015625	-1.552581787109375	
193	0.772	0.0	0.0	0.0	0.0	0.006	0.003	0.006	0.006	10.058639724731444	-0.08559270935058594	-0.2861070983886719	3.437042236328125	-4.57000732421875	-0.438690185546875	9.819219558715819	0.2154781494140625	0.32920272827148434	0.514984130859375	-5.3253173828125	-3.376007080078125	9.847351428222655	0.36750995483398435	0.034715924072265626	2.811431884765625	-4.749298095703125	-1.651763916015625	
194	0.776	0.0	0.0	0.0	0.0	0.003	0.003	0.003	0.003	10.021529598999022	-0.1879448303222656	-0.18315642700195311	4.302978515625	-5.18035888671875	-0.61798095703125	9.967660061645507	0.8577227447509765	0.08319850769042968	1.117706298828125	-4.913330078125	-3.4027099609375	10.331578713989257	0.5943605621337891	-0.5811924530029297	2.86102294921875	-4.43267822265625	-1.48773193359375	
195	0.78	0.0	0.0	0.0	0.0	0.003	0.003	0.003	0.003	9.552864624023437	0.09457096557617187	0.689530078125	2.2430419921875	-3.60107421875	-0.51116943359375	9.74799205932617	0.719457598876953	0.3746925598144531	0.782012939453125	-5.413055419921875	-3.437042236328125	10.070610733032225	0.32022447204589843	-0.07841010437011718	2.95257568359375	-4.64630126953125	-1.5869140625	
196	0.784	0.0	0.0	0.0	0.0	0.003	0.003	0.003	0.003	9.91498762512207	-0.20530279235839843	0.015562310791015624	3.345489501953125	-4.627227783203125	-0.63323974609375	9.941922393798828	0.3705027069091797	0.18435352783203124	0.881195068359375	-5.16510009765625	-3.078460693359375	10.269928021240235	0.5632359405517577	-0.469862075805664	2.899169921875	-4.89044189453125	-1.51824951171875	
197	0.788	0.0	0.0	0.0	0.0	0.009000000000000001	0.006	0.006	0.003	9.525929855346678	0.05805939025878906	0.747589468383789	1.0833740234375	-3.047943115234375	-0.675201416015625	9.777919580078125	0.9995791931152344	0.33758243408203126	0.96893310546875	-4.9896240234375	-3.849029541015625	10.129867224121092	0.3333925811767578	-0.1484405029296875	3.086090087890625	-4.67681884765625	-1.735687255859375	
198	0.792	0.0	0.0	0.0	0.0	0.0	0.003	0.006	0.006	9.83178911743164	0.21128829650878905	0.21906945190429686	-1.377105712890625	-1.201629638671875	-1.33514404296875	9.991003527832031	0.16220716247558592	0.15502455749511718	0.98419189453125	-5.0506591796875	-3.505706787109375	10.20887587890625	0.5309142181396485	-0.5045779998779296	2.90679931640625	-4.64630126953125	-1.712799072265625	
199	0.796	0.0	0.0	0.0	0.0	0.0	0.006	0.006	0.003	9.4864255279541	0.3016694091796875	0.7870937957763672	1.758575439453125	-2.93731689453125	-0.980377197265625	9.578003741455078	1.1264718811035155	0.4273649963378906	0.95367431640625	-4.749298095703125	-3.482818603515625	10.073603485107421	0.36930560607910157	-0.13168109130859373	2.87628173828125	-4.47845458984375	-1.739501953125	
200	0.8	0.0	0.0	0.0	0.0	0.003	0.003	0.006	0.003	9.872490545654296	0.1975216369628906	0.13168109130859373	-0.7476806640625	-1.476287841796875	-1.110076904296875	9.961674557495117	0.2950853546142578	0.2561795776367187	-0.06866455078125	-5.832672119140625	-3.902435302734375	10.159196194458007	0.5518634826660156	-0.5458779785156249	3.078460693359375	-4.85992431640625	-1.8463134765625	
201	0.804	0.0	0.0	0.0	0.0	0.006	0.003	0.003	0.003	9.550470422363281	0.4417302062988281	0.6009446166992187	0.217437744140625	-2.1209716796875	-0.850677490234375	9.68454571533203	1.0342951171875	0.30526071166992186	0.640869140625	-4.39453125	-3.28826904296875	10.174758505249024	0.3806780639648437	-0.22685060729980466	2.288818359375	-4.444122314453125	-1.74713134765625	
202	0.808	0.0	0.0	0.0	0.0	0.009000000000000001	0.003	0.003	0.006	9.87727894897461	0.10953472595214843	-0.02693476867675781	0.701904296875	-2.170562744140625	-1.453399658203125	9.828197814941406	0.17776947326660156	0.13587094421386717	0.1983642578125	-4.99725341796875	-3.414154052734375	10.146626635742187	0.4644751220703125	-0.5374982727050781	2.98309326171875	-4.688262939453125	-1.65557861328125	
203	0.812	0.0	0.0	0.0	0.0	0.006	0.006	0.003	0.006	10.034099157714843	0.2292448089599609	-0.4147954376220703	2.437591552734375	-3.490447998046875	-1.09100341796875	9.612719665527344	0.7721300354003906	0.4171896392822265	0.5340576171875	-4.711151123046875	-3.131866455078125	9.709086282348633	0.35015199279785153	0.018555062866210937	2.407073974609375	-4.852294921875	-1.953125	
204	0.8160000000000001	0.0	0.0	0.0	0.0	0.006	0.006	0.003	0.003	10.017938296508788	0.43993455505371093	-0.27293898925781246	1.83868408203125	-3.231048583984375	-1.392364501953125	9.896432562255859	0.5422866760253906	-0.020350714111328123	0.19073486328125	-4.94384765625	-3.337860107421875	10.148422286987303	0.5781997009277343	-0.5327098693847656	2.92205810546875	-4.726409912109375	-1.434326171875	
205	0.8200000000000001	0.0	0.0	0.0	0.0	0.0	0.006	0.006	0.006	9.982623822021484	-0.16819266662597654	-0.36691140441894526	3.208160400390625	-4.09698486328125	-1.209259033203125	9.713276135253906	0.488417138671875	0.054468087768554684	0.469207763671875	-4.955291748046875	-2.925872802734375	9.749189160156249	0.24301146850585936	0.03950432739257812	2.288818359375	-4.55474853515625	-2.040863037109375	
206	0.8240000000000001	0.0	0.0	0.0	0.0	0.006	0.006	0.006	0.006	9.952097750854492	0.12808978881835936	-0.21906945190429686	4.138946533203125	-5.275726318359375	-0.4425048828125	9.813234054565429	0.7164648468017578	0.05686228942871093	0.4119873046875	-4.940032958984375	-3.482818603515625	9.758167416381836	0.48123453369140623	-0.1292868896484375	2.544403076171875	-4.962921142578125	-2.124786376953125	
207	0.8280000000000001	0.0	0.0	0.0	0.0	0.009000000000000001	0.006	0.003	0.003	9.925162982177733	0.2998737579345703	-0.2376245147705078	4.32586669921875	-4.852294921875	-1.129150390625	9.676166009521484	0.44113165588378905	0.08738836059570312	0.5950927734375	-5.168914794921875	-3.330230712890625	9.685742816162108	0.3794809631347656	0.1083376251220703	2.2735595703125	-4.878997802734375	-1.972198486328125	
208	0.8320000000000001	0.0	0.0	0.0	0.0	0.003	0.006	0.006	0.006	9.80066449584961	-0.35015199279785153	0.0143652099609375	2.552032470703125	-3.841400146484375	-0.797271728515625	9.666589202880859	0.6338648895263671	0.16280571289062498	0.308990478515625	-5.096435546875	-3.246307373046875	9.868300692749022	0.4848258361816406	-0.15502455749511718	2.338409423828125	-5.0811767578125	-2.28118896484375	
209	0.836	0.0	0.0	0.0	0.0	0.006	0.003	0.006	0.003	9.854534033203125	-0.354940396118164	-0.1562216583251953	0.80108642578125	-2.956390380859375	-0.90789794921875	9.626486325073241	0.5776011505126952	0.2507926239013672	0.518798828125	-5.153656005859375	-3.704071044921875	9.912593423461914	0.38367081604003905	-0.143652099609375	2.62451171875	-4.5623779296875	-1.720428466796875	
210	0.84	0.0	0.0	0.0	0.0	0.003	0.003	0.006	0.006	9.734225399780273	0.36152445068359373	0.09576806640624999	3.223419189453125	-4.299163818359375	-0.83160400390625	9.573215338134766	0.5829881042480468	0.22086510314941404	0.4119873046875	-5.16510009765625	-3.18145751953125	9.711480484008788	0.5470750793457031	0.022744915771484374	2.2430419921875	-4.924774169921875	-2.132415771484375	
211	0.844	0.0	0.0	0.0	0.0	0.003	0.006	0.003	0.003	9.929951385498047	-0.2454056701660156	0.14125789794921875	1.483917236328125	-3.093719482421875	-0.904083251953125	9.835380419921874	0.469862075805664	0.1406593475341797	0.621795654296875	-4.6539306640625	-3.383636474609375	9.976039767456054	0.3956418243408203	-0.1867477294921875	2.643585205078125	-4.14276123046875	-1.491546630859375	
212	0.848	0.0	0.0	0.0	0.0	0.003	0.003	0.006	0.003	9.830592016601562	-0.40222587890625	-0.017956512451171875	-0.667572021484375	-1.953125	-0.835418701171875	9.630676177978515	0.45070846252441404	0.2711433380126953	0.438690185546875	-5.25665283203125	-3.6163330078125	9.81263550415039	0.46507367248535153	-0.08738836059570312	2.777099609375	-4.44793701171875	-1.537322998046875	
213	0.852	0.0	0.0	0.0	0.0	0.003	0.006	0.003	0.006	9.906009368896484	0.5476736297607422	0.08020575561523437	3.902435302734375	-4.512786865234375	-0.52642822265625	9.719261639404296	0.6206967803955078	0.1304839904785156	0.423431396484375	-4.852294921875	-3.459930419921875	9.81862100830078	0.4752490295410156	-0.14185644836425781	2.773284912109375	-4.41741943359375	-1.57928466796875	
214	0.856	0.0	0.0	0.0	0.0	0.003	0.003	0.003	0.006	9.907206469726562	0.39145197143554683	-0.13287819213867186	2.559661865234375	-3.971099853515625	-0.7781982421875	9.847351428222655	0.5255272644042969	0.14544775085449219	0.732421875	-5.18798828125	-3.185272216796875	9.931148486328125	0.4608838195800781	-0.09995791931152344	2.864837646484375	-4.642486572265625	-1.590728759765625	
215	0.86	0.0	0.0	0.0	0.0	0.003	0.006	0.006	0.006	9.982623822021484	-0.13826514587402344	-0.008379705810546874	3.90625	-4.5013427734375	-0.732421875	9.795876092529296	0.565031591796875	0.16879121704101563	0.48065185546875	-4.764556884765625	-3.62396240234375	9.999981784057617	0.3010708587646484	-0.17657237243652343	2.5177001953125	-4.39453125	-1.556396484375	
216	0.864	0.0	0.0	0.0	0.0	0.0	0.006	0.006	0.006	9.873687646484374	0.22385785522460935	0.2920926025390625	4.558563232421875	-4.932403564453125	-0.141143798828125	9.76235726928711	0.4572925170898437	0.26695348510742184	0.20599365234375	-5.096435546875	-3.200531005859375	9.83178911743164	0.42377369384765623	0.028131869506835935	2.7008056640625	-4.604339599609375	-1.67083740234375	
217	0.868	0.0	0.0	0.0	0.0	0.006	0.006	0.006	0.006	9.969455712890625	0.5255272644042969	0.013766659545898436	5.5084228515625	-5.558013916015625	-0.301361083984375	9.757568865966796	0.5566518859863281	0.1693897674560547	0.93841552734375	-5.191802978515625	-3.265380859375	10.28549033203125	0.5614402893066406	-0.6165069274902344	2.89154052734375	-4.459381103515625	-1.331329345703125	
218	0.872	0.0	0.0	0.0	0.0	0.003	0.006	0.006	0.006	9.872490545654296	0.25917232971191406	0.3136404174804687	5.21087646484375	-5.2032470703125	-0.9765625	9.885060104370117	0.48243163452148435	0.18315642700195311	0.919342041015625	-5.157470703125	-3.50189208984375	10.037690460205077	0.38786066894531246	-0.10235212097167969	2.666473388671875	-4.730224609375	-1.682281494140625	
219	0.876	0.0	0.0	0.0	0.0	0.006	0.003	0.003	0.006	9.855731134033203	-0.02454056701660156	0.17836802368164062	-0.080108642578125	-2.239227294921875	-0.946044921875	9.929352835083007	0.5799953521728515	0.037708676147460936	0.732421875	-4.711151123046875	-3.2806396484375	10.264541067504883	0.40462008056640625	-0.5063736511230469	3.0517578125	-4.344940185546875	-1.556396484375	
220	0.88	0.0	0.0	0.0	0.0	0.006	0.003	0.003	0.006	9.79946739501953	-0.18914193115234373	0.42975919799804685	2.44903564453125	-3.696441650390625	-0.308990478515625	9.77492682800293	0.6021417175292968	0.18375497741699218	0.25177001953125	-5.25665283203125	-3.30352783203125	9.884461553955077	0.40880993347167965	-0.020949264526367185	2.8839111328125	-4.98199462890625	-1.789093017578125	
221	0.884	0.0	0.0	0.0	0.0	0.006	0.003	0.006	0.009000000000000001	10.047267266845703	0.3687070556640625	-0.1580173095703125	2.25067138671875	-3.74603271484375	-0.86212158203125	10.038887561035155	0.5009866973876953	-0.14425065002441406	0.99945068359375	-4.825592041015625	-2.964019775390625	10.374075793457031	0.3812766143798828	-0.6314706878662109	2.73895263671875	-4.528045654296875	-1.38092041015625	
222	0.888	0.0	0.0	0.0	0.0	0.006	0.003	0.003	0.003	9.859920986938477	0.8337807281494141	0.297479556274414	6.725311279296875	-6.145477294921875	-0.682830810546875	9.658209497070311	0.5835866546630859	0.5207388610839844	0.7476806640625	-4.909515380859375	-3.376007080078125	10.077793338012695	0.27952304382324217	-0.11372457885742186	2.544403076171875	-4.64630126953125	-1.873016357421875	
223	0.892	0.0	0.0	0.0	0.0	0.0	0.003	0.006	0.003	9.847351428222655	-0.6189011291503906	0.24361001892089842	1.094818115234375	-2.89154052734375	-1.491546630859375	9.853935482788085	0.6165069274902344	0.025139117431640625	1.514434814453125	-4.932403564453125	-3.269195556640625	10.14483098449707	0.6015431671142578	-0.2699462371826172	2.544403076171875	-4.98199462890625	-1.8310546875	
224	0.896	0.0	0.0	0.0	0.0	0.003	0.006	0.003	0.006	9.769539874267577	-0.2041056915283203	0.04608838195800781	-0.522613525390625	-1.9683837890625	-0.614166259765625	9.642647186279296	0.6242880828857421	0.5686228942871093	0.08392333984375	-5.176544189453125	-2.971649169921875	10.014945544433592	0.3633201019287109	-0.12090718383789062	2.7618408203125	-4.787445068359375	-1.712799072265625	
225	0.9	0.0	0.0	0.0	0.0	0.006	0.006	0.003	0.003	10.041281762695311	-0.15263035583496093	-0.02633621826171875	-0.28228759765625	-2.079010009765625	-0.42724609375	10.031704956054687	0.5045779998779296	-0.017357962036132813	0.820159912109375	-5.0811767578125	-3.28826904296875	10.220846887207031	0.5063736511230469	-0.4387374542236328	2.666473388671875	-4.703521728515625	-1.6326904296875	
226	0.904	0.0	0.0	0.0	0.0	0.006	0.003	0.006	0.006	9.753977563476562	0.7511807708740234	0.040701428222656245	4.29534912109375	-4.37164306640625	-1.59454345703125	9.564835632324218	0.5895721588134766	0.5907692596435546	0.86212158203125	-5.321502685546875	-3.39508056640625	9.892841259765625	0.3333925811767578	0.001197100830078125	3.025054931640625	-4.863739013671875	-2.048492431640625	
227	0.908	0.0	0.0	0.0	0.0	0.006	0.006	0.006	0.006	9.894038360595703	0.4100070343017578	0.17178396911621094	3.932952880859375	-4.741668701171875	-1.2664794921875	9.929951385498047	0.661398208618164	-0.023343466186523436	1.15966796875	-4.840850830078125	-3.406524658203125	10.000580334472655	0.7015010864257812	-0.27293898925781246	2.696990966796875	-4.856109619140625	-1.434326171875	
228	0.912	0.0	0.0	0.0	0.0	0.006	0.003	0.003	0.009000000000000001	9.751583361816406	-0.5141548065185546	0.08379705810546874	0.102996826171875	-2.445220947265625	-1.6021728515625	9.706692080688477	0.5512649322509765	0.2902969512939453	-0.09918212890625	-4.99725341796875	-3.719329833984375	9.848548529052733	0.15023615417480468	-0.016160861206054686	2.498626708984375	-4.61578369140625	-1.96075439453125	
229	0.916	0.0	0.0	0.0	0.0	0.003	0.006	0.003	0.006	9.83897172241211	-0.1406593475341797	0.03531447448730469	-1.1749267578125	-1.445770263671875	-0.881195068359375	9.995791931152343	0.6009446166992187	-0.03531447448730469	0.579833984375	-5.084991455078125	-3.37982177734375	10.110713610839843	0.6200982299804687	-0.35134909362792965	2.5787353515625	-4.69970703125	-1.7852783203125	
230	0.92	0.0	0.0	0.0	0.0	0.006	0.006	0.003	0.003	9.696516723632811	0.0	0.2041056915283203	-0.461578369140625	-1.934051513671875	-1.25885009765625	9.476250170898437	0.5877765075683593	0.5321113189697265	0.400543212890625	-4.99725341796875	-3.681182861328125	9.584587796020507	0.27174188842773433	0.16041151123046873	2.376556396484375	-4.734039306640625	-2.002716064453125	
231	0.924	0.0	0.0	0.0	0.0	0.003	0.006	0.003	0.003	9.93294413757324	0.181959326171875	-0.1388636962890625	1.544952392578125	-3.269195556640625	-1.06048583984375	9.776123928833007	0.5985504150390625	0.040102877807617184	0.9765625	-5.069732666015625	-3.063201904296875	9.90840357055664	0.6566098052978515	-0.2041056915283203	2.5177001953125	-4.924774169921875	-2.11334228515625	
232	0.928	0.0	0.0	0.0	0.0	0.003	0.006	0.006	0.003	9.84555577697754	0.002992752075195312	0.017956512451171875	3.803253173828125	-4.46319580078125	-1.056671142578125	9.622296472167967	0.4782417816162109	0.4477157104492187	0.308990478515625	-4.962921142578125	-3.92913818359375	9.751583361816406	0.08798691101074219	0.1083376251220703	2.105712890625	-4.566192626953125	-2.23541259765625	
233	0.932	0.0	0.0	0.0	0.0	0.009000000000000001	0.006	0.003	0.006	9.753977563476562	0.2262520568847656	0.11252747802734374	1.522064208984375	-3.25775146484375	-1.007080078125	9.618705169677733	0.642244595336914	0.18555062866210936	0.904083251953125	-5.031585693359375	-3.2806396484375	9.753977563476562	0.6841431243896484	-0.05686228942871093	2.18963623046875	-4.833221435546875	-2.2125244140625	
234	0.936	0.0	0.0	0.0	0.0	0.003	4.635	4.647	4.617	9.801861596679688	0.27892449340820313	0.1005564697265625	3.47137451171875	-4.184722900390625	-0.911712646484375	9.649231240844726	0.5243301635742187	0.16819266662597654	0.209808349609375	-4.528045654296875	-3.353118896484375	9.941922393798828	0.44891281127929683	-0.43454760131835934	2.910614013671875	-4.535675048828125	-1.33514404296875	
235	0.9400000000000001	0.0	0.0	0.0	0.0	4.623	4.65	4.65	4.62	9.809642752075195	0.34237083740234375	0.04249707946777344	2.3651123046875	-3.3111572265625	-0.896453857421875	9.82580361328125	0.4656722229003906	0.02693476867675781	0.568389892578125	-5.168914794921875	-3.1585693359375	9.995791931152343	0.5770026000976562	-0.1466448516845703	2.124786376953125	-4.688262939453125	-2.288818359375	
236	0.9440000000000001	0.0	0.0	0.0	0.0	4.617	4.65	4.6530000000000005	4.623	9.77432827758789	0.09337386474609374	0.11192892761230468	3.11279296875	-3.520965576171875	-1.33514404296875	9.562441430664062	0.5626373901367188	0.3226186737060547	0.064849853515625	-4.486083984375	-3.92913818359375	10.012551342773437	0.32561142578124996	-0.42497079467773435	2.857208251953125	-4.1351318359375	-1.3427734375	
237	0.9480000000000001	0.0	0.0	0.0	0.0	4.62	4.6530000000000005	4.647	4.626	10.059238275146484	-0.07841010437011718	-0.17298106994628906	2.4261474609375	-3.875732421875	-0.499725341796875	9.64025298461914	0.47764323120117186	0.277727392578125	0.61798095703125	-5.33294677734375	-3.177642822265625	9.747393508911133	0.6949170318603515	0.08379705810546874	1.232147216796875	-4.970550537109375	-2.300262451171875	
238	0.9520000000000001	0.0	0.0	0.0	0.0	4.626	4.6530000000000005	4.656	4.614	9.9215716796875	-0.0430956298828125	-0.07601590270996093	1.739501953125	-3.021240234375	-1.0833740234375	9.661800799560547	0.6147112762451171	0.21248539733886718	0.102996826171875	-4.69970703125	-3.60107421875	10.101136804199218	0.3459621398925781	-0.5620388397216797	2.895355224609375	-4.63104248046875	-1.316070556640625	
239	0.9560000000000001	0.0	0.0	0.0	0.0	4.6290000000000004	4.6530000000000005	4.6530000000000005	4.6080000000000005	10.162188946533202	0.00718260498046875	-0.354940396118164	3.07464599609375	-3.90625	-0.5340576171875	9.898826763916015	0.4261678955078125	-0.05327098693847656	0.888824462890625	-5.22613525390625	-3.3416748046875	10.037091909790039	0.41539398803710936	-0.22864625854492185	3.4332275390625	-4.2266845703125	-1.445770263671875	
240	0.96	0.0	0.0	0.0	0.0	4.623	4.6530000000000005	4.6530000000000005	4.614	9.828197814941406	0.2555810272216797	0.09816226806640624	2.5177001953125	-3.387451171875	-0.926971435546875	9.454103805541992	0.7493851196289062	0.40581718139648437	1.094818115234375	-4.894256591796875	-3.2196044921875	9.809642752075195	0.4171896392822265	-0.3028665100097656	2.61688232421875	-4.638671875	-1.68609619140625	
241	0.964	0.0	0.0	0.0	0.0	4.626	4.647	4.6530000000000005	4.62	10.099341152954102	0.19931728820800781	-0.2501940734863281	4.650115966796875	-5.30242919921875	-0.637054443359375	9.826402163696288	0.4010287780761719	0.032920272827148434	0.659942626953125	-5.382537841796875	-2.994537353515625	10.001777435302733	0.5680243438720702	-0.28311434631347654	3.5247802734375	-4.5166015625	-1.262664794921875	
242	0.968	0.0	0.0	0.0	0.0	4.623	4.656	4.656	4.626	10.160991845703125	0.1484405029296875	-0.32561142578124996	6.908416748046875	-6.29425048828125	-0.58746337890625	9.964667309570311	0.5776011505126952	-0.054468087768554684	0.949859619140625	-4.64630126953125	-3.44085693359375	10.254365710449218	0.2902969512939453	-0.16280571289062498	2.50244140625	-4.329681396484375	-1.735687255859375	
243	0.972	0.0	0.0	0.0	0.0	4.62	4.65	4.6530000000000005	4.626	10.040084661865233	0.21009119567871093	-0.2154781494140625	4.100799560546875	-4.840850830078125	-0.469207763671875	9.705494979858399	0.5620388397216797	0.047285482788085934	0.934600830078125	-5.252838134765625	-3.444671630859375	9.90122096557617	0.6512228515624999	-0.3184288208007812	3.48663330078125	-4.45556640625	-1.285552978515625	
244	0.976	0.0	0.0	0.0	0.0	4.623	4.6530000000000005	4.65	4.626	9.96047745666504	0.39743747558593745	0.06763619689941405	6.702423095703125	-6.374359130859375	-0.659942626953125	9.91438907470703	0.604535919189453	-0.14245499877929688	1.1138916015625	-5.02777099609375	-3.265380859375	10.22204398803711	0.5339069702148437	-0.4632780212402344	2.819061279296875	-4.581451416015625	-1.62506103515625	
245	0.98	0.0	0.0	0.0	0.0	4.626	4.6530000000000005	4.656	4.611	10.073004934692381	0.17178396911621094	-0.21487959899902342	3.71551513671875	-4.306793212890625	-0.812530517578125	9.866505041503906	0.6374561920166015	0.17357962036132812	0.949859619140625	-5.59234619140625	-2.910614013671875	10.06163247680664	0.21607669982910155	0.00718260498046875	2.471923828125	-4.669189453125	-2.010345458984375	
246	0.984	0.0	0.0	0.0	0.0	4.626	4.6530000000000005	4.6530000000000005	4.605	10.00417163696289	0.020350714111328123	-0.12210428466796874	5.51605224609375	-5.527496337890625	-0.7476806640625	9.862315188598632	0.4638765716552734	0.08080430603027343	0.885009765625	-4.7607421875	-3.326416015625	10.365097537231446	0.5620388397216797	-0.7661445312499999	3.162384033203125	-4.703521728515625	-1.6632080078125	
247	0.988	0.0	0.0	0.0	0.0	4.632	4.6530000000000005	4.6530000000000005	4.614	9.546280569458007	0.4908113403320312	0.5111620544433594	4.7149658203125	-5.336761474609375	-0.514984130859375	9.68514426574707	0.8541314422607421	0.421978042602539	0.45013427734375	-5.39398193359375	-3.284454345703125	9.955689053344726	0.4578910675048828	-0.3028665100097656	3.16619873046875	-4.95147705078125	-1.567840576171875	
248	0.992	0.0	0.0	0.0	0.0	4.6290000000000004	4.647	4.6530000000000005	0.006	10.121487518310547	0.21188684692382811	-0.2262520568847656	5.85174560546875	-5.767822265625	-0.41961669921875	10.114304913330077	0.3459621398925781	-0.059256491088867186	0.3814697265625	-5.184173583984375	-3.35693359375	10.366893188476562	0.4752490295410156	-0.5428852264404297	1.987457275390625	-4.283905029296875	-1.40380859375	
249	0.996	0.0	0.0	0.0	0.0	0.006	0.003	0.006	0.003	9.654618194580078	0.2041056915283203	0.3124433166503906	4.711151123046875	-5.096435546875	-0.96893310546875	9.822212310791015	0.679953271484375	0.24600422058105467	0.89263916015625	-5.0811767578125	-2.902984619140625	10.067019430541992	0.2136824981689453	-0.051475335693359374	2.6702880859375	-4.974365234375	-2.079010009765625	
250	1.0	0.0	0.0	0.0	0.0	0.003	0.006	0.006	0.006	9.766547122192382	-0.1657984649658203	0.20051438903808594	-0.34332275390625	-2.559661865234375	-0.980377197265625	9.964667309570311	0.4531026641845703	0.04189852905273437	0.6103515625	-5.100250244140625	-3.30352783203125	10.014346994018554	0.6111199737548828	-0.16699556579589842	2.674102783203125	-5.0048828125	-2.01416015625	
251	1.004	0.0	0.0	0.0	0.0	0.009000000000000001	0.003	0.006	0.003	9.6396544342041	0.2280477081298828	0.32561142578124996	4.2877197265625	-5.100250244140625	-0.60272216796875	9.622296472167967	0.8684966522216796	0.36571430358886714	0.392913818359375	-5.245208740234375	-3.086090087890625	10.052654220581054	0.3082534637451172	-0.11791443176269531	3.021240234375	-4.92095947265625	-1.53350830078125	
252	1.008	0.0	0.0	0.0	0.0	0.003	0.006	0.006	0.003	9.819818109130859	-0.11013327636718749	0.15861585998535155	0.232696533203125	-2.25067138671875	-1.438140869140625	10.150217938232421	0.35613749694824215	-0.14125789794921875	0.946044921875	-5.458831787109375	-3.50189208984375	10.225635290527343	0.44891281127929683	-0.2950853546142578	2.330780029296875	-4.627227783203125	-1.9989013671875	
253	1.012	0.0	0.0	0.0	0.0	0.003	0.006	0.006	0.006	9.536105212402344	0.17238251953125	0.4638765716552734	4.306793212890625	-5.01251220703125	-0.652313232421875	9.61451531677246	0.7924807495117187	0.3441664886474609	0.736236572265625	-5.161285400390625	-3.345489501953125	9.658808047485351	0.24361001892089842	0.2771288421630859	2.185821533203125	-4.650115966796875	-2.05230712890625	
254	1.016	0.0	0.0	0.0	0.0	0.003	0.003	0.003	0.003	9.720458740234374	-0.016160861206054686	0.2867056488037109	0.057220458984375	-2.5787353515625	-0.980377197265625	9.627084875488281	0.4997895965576172	0.4165910888671875	0.35858154296875	-5.092620849609375	-3.490447998046875	10.160393295288085	0.6398503936767578	-0.42796354675292964	2.87628173828125	-5.1727294921875	-1.74713134765625	
255	1.02	0.0	0.0	0.0	0.0	0.006	0.006	0.006	0.009000000000000001	9.804854348754882	-0.10175357055664062	0.07122749938964844	-1.4190673828125	-1.171112060546875	-1.537322998046875	9.760561618041992	0.7122749938964843	0.2861070983886719	0.392913818359375	-4.894256591796875	-3.360748291015625	9.797073193359374	0.20649989318847656	0.11911153259277343	2.201080322265625	-4.61578369140625	-1.99127197265625	
256	1.024	0.0	0.0	0.0	0.0	0.003	0.003	0.006	0.003	9.73063409729004	-0.15263035583496093	0.26396073303222656	0.11444091796875	-2.353668212890625	-1.0986328125	9.668983404541015	0.3699041564941406	0.4064157318115234	0.26702880859375	-4.791259765625	-3.45611572265625	9.83777462158203	0.3806780639648437	-0.040102877807617184	2.44903564453125	-4.79888916015625	-2.269744873046875	
257	1.028	0.0	0.0	0.0	0.0	0.006	0.006	0.003	0.003	9.721057290649414	-0.016160861206054686	0.15502455749511718	-1.15966796875	-1.651763916015625	-1.31988525390625	9.507374792480467	0.9977835418701171	0.3286041778564453	0.858306884765625	-5.04302978515625	-3.89862060546875	9.612719665527344	0.4147954376220703	0.18255787658691405	2.64739990234375	-4.64630126953125	-1.86920166015625	
258	1.032	0.0	0.0	0.0	0.0	0.003	0.003	0.006	0.006	9.816226806640625	-0.2454056701660156	0.1227028350830078	2.696990966796875	-3.88336181640625	-0.919342041015625	9.750984811401366	0.34835634155273437	0.32082302246093747	0.339508056640625	-5.092620849609375	-3.314971923828125	9.853336932373047	0.43035774841308594	-0.07601590270996093	2.349853515625	-4.787445068359375	-2.117156982421875	
259	1.036	0.0	0.0	0.0	0.0	0.006	0.006	0.006	0.003	9.826402163696288	-0.18375497741699218	-0.013766659545898436	-1.148223876953125	-1.251220703125	-1.40380859375	9.669581954956055	0.5967547637939453	0.20949264526367187	0.438690185546875	-4.787445068359375	-3.826141357421875	9.763554370117188	0.23044190979003906	0.22385785522460935	2.78472900390625	-4.405975341796875	-2.01416015625	
260	1.04	0.0	0.0	0.0	0.0	0.006	0.006	0.006	0.003	9.889249957275391	0.3333925811767578	-0.076614453125	3.45611572265625	-4.299163818359375	-0.885009765625	9.589974749755859	0.4064157318115234	0.4626794708251953	0.55694580078125	-5.031585693359375	-3.284454345703125	9.730035546875	0.44891281127929683	-0.06943184814453125	2.468109130859375	-4.5166015625	-2.079010009765625	
261	1.044	0.0	0.0	0.0	0.0	0.006	0.003	0.006	0.003	9.836577520751952	0.025139117431640625	-0.016160861206054686	-0.980377197265625	-1.583099365234375	-1.140594482421875	9.597157354736327	0.7044938385009765	0.2041056915283203	0.54931640625	-5.069732666015625	-3.875732421875	9.814431155395507	0.5500678314208984	-0.2214636535644531	2.590179443359375	-4.46319580078125	-1.556396484375	
262	1.048	0.0	0.0	0.0	0.0	0.009000000000000001	0.006	0.003	0.006	9.994594830322265	0.12449848632812499	-0.2549824768066406	2.948760986328125	-3.971099853515625	-0.95367431640625	9.779715231323241	0.3477577911376953	0.04548983154296875	0.423431396484375	-4.90570068359375	-3.45611572265625	9.93354268798828	0.35673604736328124	-0.21068974609375	2.384185791015625	-4.795074462890625	-2.292633056640625	
263	1.052	0.0	0.0	0.0	0.0	0.0	0.003	0.006	0.006	9.97843396911621	0.2645592834472656	-0.08559270935058594	5.641937255859375	-5.550384521484375	-0.492095947265625	9.598354455566406	0.6631938598632812	0.1945288848876953	0.606536865234375	-4.535675048828125	-3.467559814453125	9.861716638183593	0.4381389038085937	-0.17417817077636719	2.567291259765625	-4.31060791015625	-1.781463623046875	
264	1.056	0.0	0.0	0.0	0.0	0.003	0.003	0.003	0.003	9.916184725952148	0.3238157745361328	-0.20350714111328125	4.1351318359375	-4.90570068359375	-0.640869140625	9.634267480468749	0.4417302062988281	0.08798691101074219	0.37384033203125	-5.36346435546875	-3.459930419921875	9.710881933593749	0.38187516479492184	0.10714052429199218	2.643585205078125	-4.61578369140625	-1.544952392578125	
265	1.06	0.0	0.0	0.0	0.0	0.0	0.006	0.006	0.006	10.059238275146484	0.0909796630859375	-0.23523031311035156	5.340576171875	-5.748748779296875	-0.66375732421875	9.955689053344726	0.5105635040283203	-0.12330138549804687	0.759124755859375	-4.962921142578125	-3.246307373046875	9.962273107910155	0.4327519500732422	-0.28790274963378903	2.54058837890625	-4.57000732421875	-1.73187255859375	
266	1.064	0.0	0.0	0.0	0.0	0.006	0.003	0.006	0.003	9.967061511230469	0.21068974609375	-0.2759317413330078	4.611968994140625	-5.18035888671875	-0.61798095703125	9.72345149230957	0.4339490509033203	-0.010773907470703125	0.1678466796875	-5.100250244140625	-3.391265869140625	9.955090502929687	0.33758243408203126	-0.14245499877929688	2.70843505859375	-4.772186279296875	-1.682281494140625	
267	1.068	0.0	0.0	0.0	0.0	0.003	0.003	0.006	0.003	9.936535440063476	0.09516951599121093	-0.0430956298828125	5.18035888671875	-5.6915283203125	-0.568389892578125	9.78629928588867	0.49260699157714843	0.05805939025878906	0.942230224609375	-5.222320556640625	-3.177642822265625	10.197503421020507	0.49380409240722656	-0.42497079467773435	2.8228759765625	-4.35638427734375	-1.560211181640625	
268	1.072	0.0	0.0	0.0	0.0	0.006	0.006	0.006	0.003	9.745597857666015	-0.06823474731445311	0.4608838195800781	3.143310546875	-4.192352294921875	-0.576019287109375	9.788693487548828	0.6817489227294922	0.3387795349121094	0.675201416015625	-5.397796630859375	-2.99072265625	9.884461553955077	0.44532150878906246	-0.028730419921875	2.574920654296875	-4.688262939453125	-1.59454345703125	
269	1.076	0.0	0.0	0.0	0.0	0.003	0.006	0.003	0.003	10.034099157714843	-0.09217676391601562	-0.14125789794921875	5.36346435546875	-5.680084228515625	-0.446319580078125	9.945513696289062	0.4722562774658203	-0.04548983154296875	0.881195068359375	-5.214691162109375	-3.3721923828125	10.43871923828125	0.4129997863769531	-0.6512228515624999	2.849578857421875	-4.180908203125	-1.575469970703125	
270	1.08	0.0	0.0	0.0	0.0	0.006	0.006	0.003	0.006	9.651625442504882	-0.10953472595214843	0.7009025360107421	2.72369384765625	-3.84521484375	-0.492095947265625	9.71686743774414	0.6296750366210937	0.5057751007080078	0.69427490234375	-5.184173583984375	-3.28826904296875	9.795277542114258	0.4997895965576172	0.09337386474609374	2.90679931640625	-4.5013427734375	-1.85394287109375	
271	1.084	0.0	0.0	0.0	0.0	0.003	0.006	0.003	0.003	9.86411083984375	-0.10115502014160156	0.12569558715820311	-0.789642333984375	-1.678466796875	-1.239776611328125	9.859322436523437	0.6093243225097655	0.24660277099609373	1.140594482421875	-5.023956298828125	-3.76129150390625	10.24658455505371	0.6177040283203125	-0.5787982513427734	2.95257568359375	-4.489898681640625	-1.392364501953125	
272	1.088	0.0	0.0	0.0	0.0	0.006	0.006	0.006	0.003	9.758765966796874	0.03890577697753906	0.5009866973876953	1.15203857421875	-2.819061279296875	-0.58746337890625	9.88386300354004	0.5470750793457031	0.38307226562499996	0.7781982421875	-5.054473876953125	-3.21197509765625	10.216657034301758	0.31483751831054685	-0.33698388366699217	2.918243408203125	-4.6844482421875	-1.422882080078125	
273	1.092	0.0	0.0	0.0	0.0	0.003	0.003	0.006	0.003	9.944316595458984	-0.011971008300781249	-0.002992752075195312	-0.164031982421875	-2.02178955078125	-1.377105712890625	9.962273107910155	0.5907692596435546	0.0939724151611328	1.02996826171875	-4.669189453125	-3.35693359375	10.318410604858398	0.5153519073486328	-0.5057751007080078	3.009796142578125	-4.474639892578125	-1.54876708984375	
274	1.096	0.0	0.0	0.0	0.0	0.006	0.003	0.003	0.003	9.641450085449218	0.32501287536621093	0.651821401977539	2.08282470703125	-3.44085693359375	-0.7476806640625	9.539696514892578	0.6602011077880859	0.44113165588378905	0.431060791015625	-5.01251220703125	-3.498077392578125	9.91438907470703	0.38367081604003905	-0.06943184814453125	2.796173095703125	-4.55474853515625	-1.697540283203125	
275	1.1	0.0	0.0	0.0	0.0	0.0	0.006	0.006	0.006	10.050858569335936	0.033518823242187495	-0.19153613281249998	0.274658203125	-2.34222412109375	-1.102447509765625	10.007762939453125	0.7230489013671875	-0.03411737365722656	1.0986328125	-4.993438720703125	-3.265380859375	10.098144052124022	0.6200982299804687	-0.46806642456054687	3.101348876953125	-4.840850830078125	-1.728057861328125	
276	1.104	0.0	0.0	0.0	0.0	0.006	0.003	0.003	0.006	9.967061511230469	0.14245499877929688	-0.2615665313720703	3.02886962890625	-3.963470458984375	-1.224517822265625	9.759364517211914	0.6015431671142578	0.19333178405761717	0.682830810546875	-5.008697509765625	-3.269195556640625	10.204087475585936	0.3130418670654297	-0.2741360900878906	3.173828125	-4.57000732421875	-1.42669677734375	
277	1.108	0.0	0.0	0.0	0.0	0.006	0.003	0.003	0.006	9.923965881347655	-0.03591302490234375	0.022744915771484374	2.593994140625	-3.406524658203125	-0.919342041015625	9.792284790039062	0.6087257720947266	0.051475335693359374	0.46539306640625	-5.02777099609375	-3.509521484375	10.034697708129881	0.5027823486328125	-0.3238157745361328	2.613067626953125	-4.852294921875	-1.804351806640625	
278	1.112	0.0	0.0	0.0	0.0	0.009000000000000001	0.006	0.003	0.003	9.777321029663085	0.09935936889648436	0.17178396911621094	2.35748291015625	-3.9215087890625	-1.033782958984375	9.56962403564453	0.8092401611328125	0.45070846252441404	0.331878662109375	-5.146026611328125	-3.2196044921875	9.587580548095703	0.4842272857666015	0.19512743530273435	2.262115478515625	-4.7149658203125	-2.185821533203125	
279	1.116	0.0	0.0	0.0	0.0	0.003	0.006	0.006	0.006	10.006565838623047	0.04129997863769531	-0.06344634399414062	2.35748291015625	-3.597259521484375	-1.190185546875	9.934739788818359	0.5919663604736328	-0.03950432739257812	0.4730224609375	-5.023956298828125	-3.448486328125	10.259154113769531	0.5033808990478515	-0.5219359619140624	2.620697021484375	-4.756927490234375	-1.5411376953125	
280	1.12	0.0	0.0	0.0	0.0	0.006	0.003	0.003	0.003	9.765948571777344	-0.08559270935058594	0.17238251953125	0.2593994140625	-2.15911865234375	-1.453399658203125	9.584587796020507	0.6739677673339843	0.4944026428222656	-0.072479248046875	-4.512786865234375	-3.734588623046875	9.807847100830077	0.2741360900878906	0.0383072265625	2.414703369140625	-4.64630126953125	-2.17437744140625	
281	1.124	0.0	0.0	0.0	0.0	0.006	0.003	0.003	0.003	9.694122521972655	0.2914940521240234	0.19931728820800781	0.949859619140625	-2.84576416015625	-1.1749267578125	9.758167416381836	0.6949170318603515	0.12030863342285156	0.507354736328125	-5.096435546875	-3.398895263671875	9.952696301269532	0.6404489440917969	-0.2651578338623047	2.46429443359375	-4.669189453125	-2.017974853515625	
282	1.1280000000000001	0.0	0.0	0.0	0.0	0.006	0.003	0.006	0.003	9.906009368896484	-0.047285482788085934	-0.03591302490234375	-0.041961669921875	-2.2735595703125	-1.45721435546875	9.643245736694336	0.5776011505126952	0.2813186950683594	0.179290771484375	-4.974365234375	-3.4332275390625	9.737816702270507	0.3393780853271484	0.08140285644531249	2.246856689453125	-4.669189453125	-1.918792724609375	
283	1.1320000000000001	0.0	0.0	0.0	0.0	0.003	0.003	0.006	0.006	9.964667309570311	-0.15322890625	-0.19632453613281248	1.117706298828125	-2.674102783203125	-0.820159912109375	9.937133990478515	0.479438882446289	-0.025737667846679687	0.64849853515625	-4.573822021484375	-3.23486328125	9.993397729492187	0.47644613037109373	-0.14724340209960937	2.34222412109375	-4.573822021484375	-1.9989013671875	
284	1.1360000000000001	0.0	0.0	0.0	0.0	0.003	0.006	0.006	0.006	9.766547122192382	-0.003591302490234375	0.14724340209960937	3.879547119140625	-4.589080810546875	-1.83868408203125	9.395445864868163	0.6051344696044921	0.5823895538330078	0.0	-4.64630126953125	-3.665924072265625	9.476848721313477	0.29448680419921874	0.2753331909179687	2.54058837890625	-5.0811767578125	-2.25830078125	
285	1.1400000000000001	0.0	0.0	0.0	0.0	0.003	0.003	0.006	0.006	9.808445651245117	0.181959326171875	0.032920272827148434	1.38092041015625	-3.2501220703125	-0.743865966796875	9.642647186279296	0.5614402893066406	0.15203180541992187	0.972747802734375	-5.584716796875	-3.2806396484375	9.752780462646484	0.757166275024414	-0.047884033203124995	2.162933349609375	-4.669189453125	-1.796722412109375	
286	1.1440000000000001	0.0	0.0	0.0	0.0	0.006	0.006	0.006	0.003	10.004770187377929	0.13168109130859373	-0.12988544006347655	3.47900390625	-4.0283203125	-0.736236572265625	9.782707983398437	0.5398924743652344	0.20051438903808594	0.278472900390625	-4.665374755859375	-3.635406494140625	10.177751257324218	0.21128829650878905	-0.3848679168701172	2.696990966796875	-4.512786865234375	-1.628875732421875	
287	1.1480000000000001	0.0	0.0	0.0	0.0	0.003	0.006	0.003	0.003	9.753977563476562	0.32022447204589843	0.11192892761230468	2.60162353515625	-3.536224365234375	-0.98419189453125	9.637858782958984	0.46028526916503903	0.1592144104003906	0.84686279296875	-5.237579345703125	-3.5552978515625	9.763554370117188	0.6099228729248046	-0.044891281127929686	2.330780029296875	-4.82177734375	-2.094268798828125	
288	1.1520000000000001	0.0	0.0	0.0	0.0	0.003	0.006	0.003	0.006	9.81862100830078	0.31064766540527344	0.19033903198242186	3.97491455078125	-4.9896240234375	-0.698089599609375	9.618705169677733	0.6183025787353515	0.24121581726074218	0.476837158203125	-5.084991455078125	-3.246307373046875	9.769539874267577	0.43155484924316406	-0.24001871643066405	3.021240234375	-4.863739013671875	-1.476287841796875	
289	1.156	0.0	0.0	0.0	0.0	0.006	0.003	0.006	4.59	10.127473022460936	0.07781155395507812	-0.18854338073730467	4.0435791015625	-4.7760009765625	-0.614166259765625	9.91498762512207	0.4848258361816406	-0.1227028350830078	0.560760498046875	-5.14984130859375	-3.173828125	9.991003527832031	0.5386953735351562	-0.05686228942871093	2.67791748046875	-4.7454833984375	-1.678466796875	
290	1.16	0.0	0.0	0.0	0.0	4.614	4.647	4.65	4.614	9.983222372436522	0.06883329772949218	-0.11791443176269531	5.031585693359375	-4.8675537109375	-0.934600830078125	9.776123928833007	0.3399766357421875	0.14125789794921875	0.400543212890625	-4.72259521484375	-3.65447998046875	10.001178884887695	0.07481880187988281	-0.2855085479736328	2.925872802734375	-4.215240478515625	-1.506805419921875	
291	1.164	0.0	0.0	0.0	0.0	4.623	4.6530000000000005	4.6530000000000005	4.62	9.965265859985351	-0.0939724151611328	0.08140285644531249	4.08172607421875	-5.31768798828125	-0.431060791015625	9.7162688873291	0.6745663177490234	0.25318682556152344	0.682830810546875	-5.4779052734375	-3.231048583984375	9.703100778198241	0.565630142211914	0.07422025146484375	2.655029296875	-4.69970703125	-1.873016357421875	
292	1.168	0.0	0.0	0.0	0.0	4.62	4.65	4.6530000000000005	4.623	9.976039767456054	0.20051438903808594	-0.07003039855957031	4.00543212890625	-4.8675537109375	-0.48065185546875	9.808445651245117	0.5829881042480468	0.02454056701660156	0.49591064453125	-4.909515380859375	-3.337860107421875	10.02332525024414	0.37409400939941406	-0.42497079467773435	2.9296875	-4.894256591796875	-1.495361328125	
293	1.172	0.0	0.0	0.0	0.0	4.617	4.6530000000000005	4.65	4.626	10.161590396118163	0.013766659545898436	-0.22026655273437498	4.741668701171875	-4.82940673828125	-0.732421875	10.026916552734374	0.34656069030761716	-0.03591302490234375	0.64849853515625	-5.260467529296875	-3.177642822265625	10.154407791137695	0.2136824981689453	-0.23882161560058593	2.902984619140625	-4.543304443359375	-1.800537109375	
294	1.176	0.0	0.0	0.0	0.0	4.626	4.6530000000000005	4.65	4.614	9.94012674255371	-0.06943184814453125	0.11791443176269531	4.67681884765625	-4.825592041015625	-0.698089599609375	9.918578927612304	0.5590460876464843	0.008978256225585938	1.148223876953125	-5.298614501953125	-3.35693359375	10.244190353393554	0.5183446594238281	-0.5249287139892578	3.04412841796875	-4.364013671875	-1.495361328125	
295	1.18	0.0	0.0	0.0	0.0	4.6290000000000004	4.6530000000000005	4.6530000000000005	4.605	10.01075569152832	0.2771288421630859	0.06584054565429687	4.673004150390625	-5.36346435546875	-0.63323974609375	9.753977563476562	0.6560112548828124	0.21188684692382811	0.83160400390625	-5.43212890625	-3.162384033203125	9.828197814941406	0.5482721801757812	-0.09935936889648436	2.8076171875	-4.886627197265625	-1.552581787109375	
296	1.184	0.0	0.0	0.0	0.0	4.626	4.65	4.6530000000000005	4.614	10.105326657104492	-0.10654197387695312	-0.09277531433105468	4.566192626953125	-4.978179931640625	-0.732421875	10.189722265624999	0.3459621398925781	-0.25318682556152344	0.99945068359375	-4.848480224609375	-3.21197509765625	10.575787283325194	0.35134909362792965	-0.7697358337402344	3.30352783203125	-4.547119140625	-1.190185546875	
297	1.188	0.0	0.0	0.0	0.0	4.626	4.647	4.6530000000000005	4.623	10.001178884887695	-0.05686228942871093	0.06045359191894531	3.131866455078125	-4.856109619140625	-0.6866455078125	9.76116016845703	0.6039373687744141	0.258573779296875	0.728607177734375	-5.06591796875	-3.387451171875	10.135852728271484	0.19931728820800781	-0.21906945190429686	3.131866455078125	-4.848480224609375	-2.20489501953125	
298	1.192	0.0	0.0	0.0	0.0	4.626	4.656	4.656	4.626	9.926360083007811	0.20829554443359374	0.08259995727539061	4.547119140625	-5.100250244140625	-0.6103515625	9.822212310791015	0.690128628540039	0.020350714111328123	0.782012939453125	-5.28717041015625	-3.185272216796875	10.09395419921875	0.6739677673339843	-0.5686228942871093	2.994537353515625	-4.619598388671875	-1.041412353515625	
299	1.196	0.0	0.0	0.0	0.0	4.62	4.6530000000000005	4.6530000000000005	4.623	9.679757312011718	0.07422025146484375	0.2166752502441406	4.20379638671875	-5.016326904296875	-0.7476806640625	9.828197814941406	0.6458358978271485	0.1693897674560547	0.980377197265625	-5.428314208984375	-2.613067626953125	10.168174450683592	0.2819172454833984	-0.29388825378417965	3.032684326171875	-4.886627197265625	-1.6021728515625	
