	time	dac1	dac2	dac3	dac4	adc1.3	adc2.3	adc3.3	adc4.3	imu1accx	imu1accy	imu1accz	imu1gyrox	imu1gyroy	imu1gyroz	imu2accx	imu2accy	imu2accz	imu2gyrox	imu2gyroy	imu2gyroz	imu3accx	imu3accy	imu3accz	imu3gyrox	imu3gyroy	imu3gyroz	log
0	0.0	0.0	0.0	0.0	0.0	0.003	0.003	0.006	0.003	9.860519537353515	0.0430956298828125	0.06643909606933593	2.51007080078125	-3.780364990234375	-0.865936279296875	9.773131176757811	0.5572504364013672	0.18315642700195311	0.530242919921875	-5.130767822265625	-3.36456298828125	9.97244846496582	0.430956298828125	-0.19871873779296872	2.60162353515625	-4.57763671875	-1.739501953125	Estabizou em 10s, 2299 rpm
1	0.004	0.0	0.0	0.0	0.0	0.003	0.006	0.006	0.006	9.86291373901367	0.051475335693359374	0.055066638183593745	2.605438232421875	-3.92913818359375	-0.66375732421875	9.778518130493163	0.5608417388916015	0.17776947326660156	0.545501708984375	-4.98199462890625	-3.23486328125	9.97184991455078	0.4321533996582031	-0.2041056915283203	2.8076171875	-4.848480224609375	-1.720428466796875	Started
2	0.008	0.0	0.0	0.0	0.0	0.003	0.006	0.006	0.003	9.86291373901367	0.05327098693847656	0.061650692749023434	2.6397705078125	-3.620147705078125	-0.965118408203125	9.777321029663085	0.5620388397216797	0.18255787658691405	0.812530517578125	-5.0811767578125	-3.253936767578125	9.97783541870117	0.42437224426269526	-0.20470424194335937	2.69317626953125	-4.76837158203125	-1.796722412109375	IMU1|LSM6DS3|0x6A|I2C-1|±2g (±19,6m/s²)|±125º/s|400Hz
3	0.012	0.0	0.0	0.0	0.0	0.009000000000000001	0.006	0.006	0.006	9.872490545654296	0.06404489440917968	0.0796072052001953	2.536773681640625	-3.704071044921875	-0.926971435546875	9.780912332153319	0.5590460876464843	0.18136077575683593	0.84686279296875	-5.16510009765625	-3.437042236328125	9.97184991455078	0.4273649963378906	-0.20470424194335937	2.6092529296875	-4.638671875	-1.861572265625	IMU2|LSM6DS3|0x6B|I2C-1|±2g (±19,6m/s²)|±125º/s|400Hz
4	0.016	0.0	0.0	0.0	0.0	0.003	0.006	0.003	0.006	9.873687646484374	0.06284779357910156	0.07481880187988281	2.40325927734375	-3.662109375	-0.820159912109375	9.771934075927733	0.565630142211914	0.1849520782470703	0.5950927734375	-4.8980712890625	-3.21197509765625	9.97843396911621	0.4381389038085937	-0.19991583862304688	2.849578857421875	-4.70733642578125	-1.766204833984375	IMU3|LSM6DS3|0x6B|I2C-2|±2g (±19,6m/s²)|±125º/s|400Hz
5	0.02	0.0	0.0	0.0	0.0	0.006	0.003	0.006	0.006	9.878476049804688	0.059256491088867186	0.07122749938964844	2.460479736328125	-3.82232666015625	-0.81634521484375	9.779116680908203	0.5662286926269531	0.1879448303222656	0.644683837890625	-5.298614501953125	-3.39508056640625	9.97783541870117	0.4291606475830078	-0.19931728820800781	2.742767333984375	-4.772186279296875	-1.911163330078125	ADC|ADS1015|0|0|1|0|±6,144 V|2400 SPS
6	0.024	0.0	0.0	0.0	0.0	0.003	0.006	0.003	0.003	9.873687646484374	0.06464344482421874	0.06823474731445311	2.605438232421875	-3.681182861328125	-0.904083251953125	9.771934075927733	0.5710170959472656	0.17896657409667968	0.5950927734375	-5.07354736328125	-3.36456298828125	9.966462960815429	0.4375403533935547	-0.20949264526367187	2.666473388671875	-4.688262939453125	-1.8768310546875	Gen1|Disabled
7	0.028	0.0	0.0	0.0	0.0	0.003	0.003	0.006	0.006	9.866505041503906	0.0652419952392578	0.06883329772949218	2.391815185546875	-3.692626953125	-0.797271728515625	9.771934075927733	0.5710170959472656	0.18255787658691405	0.6103515625	-5.229949951171875	-3.448486328125	9.97903251953125	0.4387374542236328	-0.19632453613281248	2.719879150390625	-4.852294921875	-1.888275146484375	Gen2|Enabled|Noise|0.0|10.0|1668
8	0.032	0.0	0.0	0.0	0.0	0.003	0.003	0.003	0.006	9.858125335693359	0.06883329772949218	0.07362170104980469	2.41851806640625	-3.662109375	-0.812530517578125	9.765948571777344	0.5704185455322265	0.19033903198242186	0.545501708984375	-5.084991455078125	-3.582000732421875	9.980229620361328	0.4447229583740234	-0.17956512451171874	2.5787353515625	-4.608154296875	-1.720428466796875	Gen3|Enabled|Noise|0.0|10.0|128
9	0.036000000000000004	0.0	0.0	0.0	0.0	0.003	0.003	0.003	0.006	9.87069489440918	0.06584054565429687	0.07242460021972656	2.66265869140625	-3.879547119140625	-0.72479248046875	9.77432827758789	0.5722141967773438	0.19213468322753904	1.01470947265625	-5.146026611328125	-3.322601318359375	9.981426721191406	0.44053310546874996	-0.19393033447265623	2.964019775390625	-4.848480224609375	-1.796722412109375	Gen4|Enabled|Noise|0.0|10.0|128
10	0.04	0.0	0.0	0.0	0.0	0.003	0.003	0.006	0.003	9.862315188598632	0.06763619689941405	0.07003039855957031	2.292633056640625	-3.665924072265625	-0.9765625	9.771934075927733	0.5758054992675781	0.17776947326660156	0.67901611328125	-5.107879638671875	-3.4027099609375	9.976638317871092	0.4465186096191406	-0.18914193115234373	2.536773681640625	-4.5623779296875	-1.60980224609375	Ctrl|Disabled
11	0.044	0.0	0.0	0.0	0.0	0.003	0.006	0.006	0.006	9.865906491088866	0.07242460021972656	0.08439560852050781	2.399444580078125	-3.742218017578125	-0.98419189453125	9.770736975097655	0.5811924530029297	0.19871873779296872	0.6103515625	-5.10406494140625	-3.3416748046875	9.987412225341796	0.4483142608642578	-0.18614917907714842	2.742767333984375	-4.76837158203125	-1.880645751953125	
12	0.048	0.0	0.0	0.0	0.0	0.003	0.003	0.003	0.003	9.858125335693359	0.07302315063476562	0.08379705810546874	2.361297607421875	-3.84521484375	-1.003265380859375	9.772532626342773	0.5770026000976562	0.20051438903808594	0.7476806640625	-5.30242919921875	-3.566741943359375	9.983820922851562	0.44412440795898434	-0.18375497741699218	2.857208251953125	-4.688262939453125	-1.834869384765625	
13	0.052000000000000005	0.0	0.0	0.0	0.0	0.003	0.003	0.006	0.003	9.865307940673828	0.07122749938964844	0.0796072052001953	2.5177001953125	-3.59344482421875	-0.926971435546875	9.770138424682617	0.575206948852539	0.18734627990722655	0.67138671875	-5.016326904296875	-3.44085693359375	9.97783541870117	0.4471171600341797	-0.181959326171875	2.735137939453125	-4.94384765625	-1.728057861328125	
14	0.056	0.0	0.0	0.0	0.0	0.003	0.006	0.006	0.006	9.864709390258788	0.07242460021972656	0.08499415893554688	2.227783203125	-3.711700439453125	-0.827789306640625	9.767145672607422	0.5776011505126952	0.181959326171875	0.499725341796875	-4.871368408203125	-3.383636474609375	9.974244116210937	0.45190556335449217	-0.19093758239746092	2.658843994140625	-4.57763671875	-1.911163330078125	
15	0.06	0.0	0.0	0.0	0.0	0.006	0.003	0.003	0.006	9.867103591918944	0.08319850769042968	0.0718260498046875	2.620697021484375	-3.5400390625	-0.957489013671875	9.76894132385254	0.5823895538330078	0.1879448303222656	0.579833984375	-5.0201416015625	-3.23486328125	9.966462960815429	0.4537012145996093	-0.19632453613281248	2.655029296875	-4.329681396484375	-1.74713134765625	
16	0.064	0.0	0.0	0.0	0.0	0.0	0.003	0.006	0.006	9.86411083984375	0.07481880187988281	0.07302315063476562	2.658843994140625	-3.6468505859375	-0.926971435546875	9.76894132385254	0.5829881042480468	0.18136077575683593	0.61798095703125	-5.2337646484375	-3.3111572265625	9.970652813720703	0.4578910675048828	-0.20051438903808594	2.6397705078125	-4.611968994140625	-1.8157958984375	
17	0.068	0.0	0.0	0.0	0.0	0.003	0.006	0.006	0.003	9.860519537353515	0.0796072052001953	0.06883329772949218	2.574920654296875	-3.62396240234375	-0.766754150390625	9.759364517211914	0.5895721588134766	0.19093758239746092	0.69427490234375	-5.008697509765625	-3.5247802734375	9.974244116210937	0.45010991210937495	-0.19991583862304688	2.834320068359375	-4.5013427734375	-1.7852783203125	
18	0.07200000000000001	0.0	0.0	0.0	0.0	0.009000000000000001	0.006	0.006	0.003	9.85752678527832	0.0796072052001953	0.06344634399414062	2.52532958984375	-3.88336181640625	-0.728607177734375	9.776123928833007	0.5859808563232421	0.20051438903808594	0.67138671875	-5.069732666015625	-3.387451171875	9.981426721191406	0.45549686584472654	-0.20709844360351562	2.605438232421875	-4.505157470703125	-1.6937255859375	
19	0.076	0.0	0.0	0.0	0.0	0.009000000000000001	0.003	0.006	0.006	9.86351228942871	0.07900865478515624	0.06464344482421874	2.231597900390625	-3.7841796875	-1.110076904296875	9.770736975097655	0.5817910034179687	0.18914193115234373	0.560760498046875	-5.023956298828125	-3.3416748046875	9.970054263305663	0.45489831542968745	-0.20769699401855468	2.574920654296875	-4.650115966796875	-1.873016357421875	
20	0.08	0.0	0.0	0.0	0.0	0.003	0.003	0.006	0.006	9.867702142333984	0.08140285644531249	0.051475335693359374	2.55584716796875	-3.7994384765625	-0.766754150390625	9.77432827758789	0.5871779571533203	0.20290859069824219	0.759124755859375	-5.1116943359375	-3.54766845703125	9.974842666625976	0.4537012145996093	-0.19931728820800781	2.765655517578125	-4.66156005859375	-1.76239013671875	
21	0.084	0.0	0.0	0.0	0.0	0.006	0.003	0.003	0.003	9.866505041503906	0.07721300354003906	0.06284779357910156	2.574920654296875	-3.650665283203125	-0.820159912109375	9.765350021362304	0.5776011505126952	0.18614917907714842	0.579833984375	-5.16510009765625	-3.231048583984375	9.982025271606444	0.4542997650146484	-0.2059013427734375	2.628326416015625	-4.669189453125	-1.617431640625	
22	0.088	0.0	0.0	0.0	0.0	0.003	0.006	0.003	0.003	9.866505041503906	0.07481880187988281	0.07481880187988281	2.471923828125	-3.7384033203125	-0.9307861328125	9.773131176757811	0.5811924530029297	0.18076222534179687	0.69427490234375	-5.18798828125	-3.459930419921875	9.982623822021484	0.4447229583740234	-0.19213468322753904	2.74658203125	-4.703521728515625	-1.583099365234375	
23	0.092	0.0	0.0	0.0	0.0	0.009000000000000001	0.006	0.006	0.006	9.865307940673828	0.076614453125	0.08259995727539061	2.63214111328125	-3.795623779296875	-0.835418701171875	9.776123928833007	0.5764040496826172	0.1801636749267578	0.81634521484375	-5.046844482421875	-3.536224365234375	9.976039767456054	0.45669396667480466	-0.19812018737792966	2.63214111328125	-4.413604736328125	-1.667022705078125	
24	0.096	0.0	0.0	0.0	0.0	0.006	0.003	0.006	0.003	9.858723886108399	0.07003039855957031	0.08140285644531249	2.529144287109375	-3.749847412109375	-0.69427490234375	9.773131176757811	0.5811924530029297	0.17477672119140625	0.682830810546875	-5.161285400390625	-3.4637451171875	9.973047015380859	0.45489831542968745	-0.19871873779296872	2.620697021484375	-4.913330078125	-1.74713134765625	
25	0.1	0.0	0.0	0.0	0.0	0.006	0.003	0.006	0.003	9.868899243164062	0.06045359191894531	0.06763619689941405	2.44903564453125	-3.84521484375	-0.8544921875	9.77432827758789	0.5776011505126952	0.1867477294921875	0.49591064453125	-4.8370361328125	-3.2958984375	9.968258612060547	0.45010991210937495	-0.20290859069824219	2.696990966796875	-4.73785400390625	-1.64794921875	
26	0.10400000000000001	0.0	0.0	0.0	0.0	0.003	0.006	0.003	0.006	9.873089096069336	0.06464344482421874	0.07601590270996093	2.696990966796875	-3.753662109375	-0.827789306640625	9.779715231323241	0.5716156463623047	0.1849520782470703	0.461578369140625	-5.130767822265625	-3.326416015625	9.974244116210937	0.44532150878906246	-0.19931728820800781	2.7923583984375	-4.756927490234375	-1.903533935546875	
27	0.108	0.0	0.0	0.0	0.0	0.009000000000000001	0.006	0.003	0.003	9.877877499389648	0.059256491088867186	0.06823474731445311	2.590179443359375	-4.1046142578125	-0.965118408203125	9.775525378417969	0.5644330413818359	0.18854338073730467	0.530242919921875	-5.04302978515625	-3.2806396484375	9.97244846496582	0.4339490509033203	-0.19812018737792966	2.655029296875	-4.85992431640625	-1.850128173828125	
28	0.112	0.0	0.0	0.0	0.0	0.003	0.006	0.006	0.006	9.867103591918944	0.059256491088867186	0.07302315063476562	2.3956298828125	-3.5858154296875	-0.850677490234375	9.764152920532226	0.5638344909667968	0.18614917907714842	0.652313232421875	-5.092620849609375	-3.444671630859375	9.974244116210937	0.4321533996582031	-0.20290859069824219	2.72369384765625	-4.85992431640625	-1.88446044921875	
29	0.116	0.0	0.0	0.0	0.0	0.006	0.003	0.006	0.003	9.868899243164062	0.05327098693847656	0.06404489440917968	2.49481201171875	-3.711700439453125	-0.90789794921875	9.777321029663085	0.5626373901367188	0.18375497741699218	0.644683837890625	-4.917144775390625	-3.27301025390625	9.983820922851562	0.42975919799804685	-0.2041056915283203	2.61688232421875	-4.3792724609375	-1.79290771484375	
30	0.12	0.0	0.0	0.0	0.0	0.003	0.003	0.006	0.003	9.866505041503906	0.05386953735351562	0.06883329772949218	2.49481201171875	-3.692626953125	-0.980377197265625	9.771934075927733	0.5614402893066406	0.17956512451171874	0.370025634765625	-4.61578369140625	-3.33404541015625	9.968258612060547	0.42317514343261714	-0.19812018737792966	2.655029296875	-4.673004150390625	-1.77001953125	
31	0.124	0.0	0.0	0.0	0.0	0.003	0.006	0.003	0.006	9.853336932373047	0.0526724365234375	0.07900865478515624	2.628326416015625	-3.879547119140625	-0.8697509765625	9.771335525512695	0.5590460876464843	0.17776947326660156	0.614166259765625	-5.222320556640625	-3.36456298828125	9.976638317871092	0.42317514343261714	-0.19871873779296872	2.674102783203125	-4.70733642578125	-1.861572265625	
32	0.128	0.0	0.0	0.0	0.0	0.009000000000000001	0.006	0.003	0.0	9.865307940673828	0.047884033203124995	0.07062894897460938	2.34222412109375	-3.54766845703125	-0.74005126953125	9.765948571777344	0.5572504364013672	0.17477672119140625	0.850677490234375	-5.283355712890625	-3.27301025390625	9.977236868286132	0.41958384094238277	-0.20290859069824219	2.63214111328125	-4.749298095703125	-1.8310546875	
33	0.132	0.0	0.0	0.0	0.0	0.006	0.006	0.003	0.003	9.871891995239258	0.061650692749023434	0.06284779357910156	2.63214111328125	-3.940582275390625	-0.888824462890625	9.78031378173828	0.5446808776855468	0.18255787658691405	0.41961669921875	-4.924774169921875	-3.314971923828125	9.97783541870117	0.41958384094238277	-0.2088940948486328	2.849578857421875	-4.856109619140625	-1.6937255859375	
34	0.136	0.0	0.0	0.0	0.0	0.006	0.003	0.006	0.006	9.86411083984375	0.05327098693847656	0.06344634399414062	2.3651123046875	-3.841400146484375	-0.74005126953125	9.777919580078125	0.5500678314208984	0.18734627990722655	0.61798095703125	-4.962921142578125	-3.4942626953125	9.981426721191406	0.42018239135742186	-0.20290859069824219	2.7008056640625	-4.5928955078125	-1.79290771484375	
35	0.14	0.0	0.0	0.0	0.0	0.006	0.003	0.003	0.006	9.866505041503906	0.04967968444824218	0.06464344482421874	2.34222412109375	-3.559112548828125	-1.03759765625	9.779116680908203	0.5566518859863281	0.18914193115234373	0.60272216796875	-4.993438720703125	-3.41033935546875	9.975441217041014	0.4165910888671875	-0.21068974609375	2.55584716796875	-4.749298095703125	-1.628875732421875	
36	0.14400000000000002	0.0	0.0	0.0	0.0	0.006	0.006	0.003	0.006	9.861118087768554	0.05327098693847656	0.06763619689941405	2.75421142578125	-3.520965576171875	-1.049041748046875	9.78031378173828	0.5608417388916015	0.17776947326660156	0.820159912109375	-5.252838134765625	-3.376007080078125	9.968857162475585	0.421978042602539	-0.21248539733886718	2.864837646484375	-4.70733642578125	-1.8463134765625	
37	0.148	0.0	0.0	0.0	0.0	0.003	0.003	0.003	0.006	9.849147079467773	0.05566518859863281	0.06943184814453125	2.323150634765625	-3.68499755859375	-0.865936279296875	9.776722479248047	0.5596446380615234	0.17118541870117188	0.7171630859375	-5.1727294921875	-3.4332275390625	9.986215124511718	0.42497079467773435	-0.20709844360351562	2.712249755859375	-4.7760009765625	-2.00653076171875	
38	0.152	0.0	0.0	0.0	0.0	0.006	0.006	0.003	0.003	9.862315188598632	0.058657940673828124	0.05566518859863281	2.31170654296875	-3.696441650390625	-0.843048095703125	9.776123928833007	0.5566518859863281	0.16998831787109375	0.52642822265625	-5.146026611328125	-3.36456298828125	9.974244116210937	0.4285620971679687	-0.2059013427734375	2.864837646484375	-4.791259765625	-1.773834228515625	
39	0.156	0.0	0.0	0.0	0.0	0.003	0.006	0.006	0.006	9.867103591918944	0.051475335693359374	0.06045359191894531	2.445220947265625	-3.86810302734375	-0.9613037109375	9.770736975097655	0.5518634826660156	0.17357962036132812	0.568389892578125	-5.184173583984375	-3.42559814453125	9.981426721191406	0.4327519500732422	-0.21068974609375	2.590179443359375	-4.718780517578125	-1.89971923828125	
40	0.16	0.0	0.0	0.0	0.0	0.003	0.006	0.003	0.006	9.866505041503906	0.059256491088867186	0.05985504150390625	2.567291259765625	-3.635406494140625	-0.774383544921875	9.76894132385254	0.5542576843261718	0.1753752716064453	0.43487548828125	-4.978179931640625	-3.41796875	9.97843396911621	0.430956298828125	-0.2136824981689453	2.8228759765625	-4.8065185546875	-1.9378662109375	
41	0.164	0.0	0.0	0.0	0.0	0.0	0.003	0.006	0.003	9.865906491088866	0.06105214233398437	0.0652419952392578	2.532958984375	-3.5400390625	-0.873565673828125	9.77492682800293	0.5512649322509765	0.18076222534179687	0.881195068359375	-5.1422119140625	-3.421783447265625	9.981426721191406	0.42437224426269526	-0.20171148986816406	2.8839111328125	-4.57763671875	-1.71661376953125	
42	0.168	0.0	0.0	0.0	0.0	0.003	0.006	0.003	0.006	9.86351228942871	0.055066638183593745	0.06763619689941405	2.490997314453125	-3.719329833984375	-0.9002685546875	9.782707983398437	0.5596446380615234	0.17118541870117188	0.58746337890625	-5.11932373046875	-3.3721923828125	9.967061511230469	0.4369418029785156	-0.19572598571777342	2.777099609375	-4.75311279296875	-1.96075439453125	
43	0.17200000000000001	0.0	0.0	0.0	0.0	0.003	0.006	0.006	0.006	9.86411083984375	0.06344634399414062	0.062249243164062495	2.353668212890625	-3.665924072265625	-0.949859619140625	9.776722479248047	0.5728127471923827	0.17357962036132812	0.606536865234375	-4.924774169921875	-3.383636474609375	9.97783541870117	0.43933600463867184	-0.20470424194335937	2.67791748046875	-4.81414794921875	-1.811981201171875	
44	0.176	0.0	0.0	0.0	0.0	0.003	0.006	0.003	0.006	9.866505041503906	0.061650692749023434	0.06464344482421874	2.399444580078125	-3.307342529296875	-0.9918212890625	9.779116680908203	0.5674257934570313	0.19393033447265623	0.64849853515625	-5.16510009765625	-3.200531005859375	9.976638317871092	0.4387374542236328	-0.2041056915283203	2.689361572265625	-4.695892333984375	-1.74713134765625	
45	0.18	0.0	0.0	0.0	0.0	0.003	0.003	0.003	0.006	9.85692823486328	0.0526724365234375	0.08020575561523437	2.51007080078125	-3.9215087890625	-0.934600830078125	9.776722479248047	0.5638344909667968	0.18136077575683593	0.759124755859375	-5.237579345703125	-3.47137451171875	9.977236868286132	0.4327519500732422	-0.21188684692382811	2.590179443359375	-4.627227783203125	-1.9683837890625	
46	0.184	0.0	0.0	0.0	0.0	0.0	0.003	0.003	0.003	9.861716638183593	0.05626373901367187	0.08319850769042968	2.54058837890625	-3.772735595703125	-0.949859619140625	9.778518130493163	0.5698199951171875	0.19033903198242186	0.46539306640625	-5.161285400390625	-3.4332275390625	9.97244846496582	0.4339490509033203	-0.20290859069824219	2.74658203125	-4.505157470703125	-1.800537109375	
47	0.188	0.0	0.0	0.0	0.0	0.006	0.003	0.003	0.006	9.865307940673828	0.05566518859863281	0.07541735229492187	2.46429443359375	-3.7689208984375	-0.8087158203125	9.778518130493163	0.5680243438720702	0.18854338073730467	0.637054443359375	-5.016326904296875	-3.326416015625	9.977236868286132	0.44412440795898434	-0.20769699401855468	2.803802490234375	-4.63104248046875	-1.811981201171875	
48	0.192	0.0	0.0	0.0	0.0	0.006	0.006	0.006	0.003	9.86291373901367	0.07003039855957031	0.07302315063476562	2.681732177734375	-3.498077392578125	-0.8087158203125	9.78031378173828	0.5692214447021484	0.19033903198242186	0.514984130859375	-5.14984130859375	-3.33404541015625	9.981426721191406	0.4387374542236328	-0.19692308654785154	2.81524658203125	-4.85992431640625	-1.827239990234375	
49	0.196	0.0	0.0	0.0	0.0	0.003	0.006	0.003	0.006	9.867103591918944	0.06464344482421874	0.07062894897460938	2.567291259765625	-3.95965576171875	-0.74005126953125	9.773131176757811	0.5698199951171875	0.19692308654785154	0.545501708984375	-4.993438720703125	-3.3416748046875	9.982623822021484	0.43574470214843747	-0.20171148986816406	2.841949462890625	-4.718780517578125	-1.6937255859375	
50	0.2	0.0	0.0	0.0	0.0	0.003	0.006	0.006	0.003	9.862315188598632	0.07721300354003906	0.076614453125	2.38800048828125	-3.74603271484375	-0.92315673828125	9.775525378417969	0.5770026000976562	0.19153613281249998	0.60272216796875	-5.19561767578125	-3.45611572265625	9.974244116210937	0.4435258575439453	-0.19393033447265623	2.5787353515625	-4.634857177734375	-1.79290771484375	
51	0.20400000000000001	0.0	0.0	0.0	0.0	0.003	0.006	0.003	0.006	9.862315188598632	0.06404489440917968	0.08319850769042968	2.3040771484375	-3.68499755859375	-0.9918212890625	9.769539874267577	0.5674257934570313	0.19093758239746092	0.606536865234375	-4.95147705078125	-3.4637451171875	9.976638317871092	0.4483142608642578	-0.19812018737792966	2.76947021484375	-4.53948974609375	-1.77001953125	
52	0.20800000000000002	0.0	0.0	0.0	0.0	0.006	0.006	0.003	0.003	9.858723886108399	0.0718260498046875	0.08319850769042968	2.574920654296875	-3.80706787109375	-0.8544921875	9.765948571777344	0.5686228942871093	0.19033903198242186	0.57220458984375	-5.214691162109375	-3.429412841796875	9.986215124511718	0.43993455505371093	-0.1945288848876953	2.6702880859375	-4.64630126953125	-1.773834228515625	
53	0.212	0.0	0.0	0.0	0.0	0.006	0.003	0.006	0.003	9.85752678527832	0.06883329772949218	0.07900865478515624	2.407073974609375	-3.620147705078125	-0.90789794921875	9.765948571777344	0.5740098480224609	0.19812018737792966	0.431060791015625	-4.75311279296875	-3.330230712890625	9.97783541870117	0.4471171600341797	-0.19093758239746092	2.788543701171875	-4.7149658203125	-1.773834228515625	
54	0.216	0.0	0.0	0.0	0.0	0.006	0.003	0.003	0.006	9.859920986938477	0.0652419952392578	0.08858546142578125	2.498626708984375	-3.936767578125	-1.064300537109375	9.770138424682617	0.5722141967773438	0.20350714111328125	0.54931640625	-5.146026611328125	-3.414154052734375	9.975441217041014	0.4495113616943359	-0.1897404815673828	2.513885498046875	-4.611968994140625	-1.766204833984375	
55	0.22	0.0	0.0	0.0	0.0	0.003	0.006	0.006	0.003	9.860519537353515	0.05985504150390625	0.08200140686035155	2.61688232421875	-3.9215087890625	-0.980377197265625	9.765948571777344	0.5698199951171875	0.20769699401855468	0.598907470703125	-4.970550537109375	-3.48663330078125	9.97244846496582	0.44891281127929683	-0.19632453613281248	2.666473388671875	-4.44793701171875	-1.59454345703125	
56	0.224	0.0	0.0	0.0	0.0	0.003	0.003	0.006	0.006	9.85632968444824	0.06584054565429687	0.07601590270996093	2.6397705078125	-3.70025634765625	-0.8544921875	9.76894132385254	0.5686228942871093	0.1975216369628906	0.64849853515625	-4.993438720703125	-3.1890869140625	9.974244116210937	0.4531026641845703	-0.20231004028320312	2.643585205078125	-4.34112548828125	-1.8768310546875	
57	0.228	0.0	0.0	0.0	0.0	0.006	0.003	0.006	0.006	9.85692823486328	0.06883329772949218	0.08080430603027343	2.391815185546875	-3.631591796875	-0.934600830078125	9.773729727172851	0.5758054992675781	0.19333178405761717	0.69427490234375	-4.978179931640625	-3.337860107421875	9.967061511230469	0.4477157104492187	-0.1879448303222656	2.7923583984375	-4.63104248046875	-1.766204833984375	
58	0.232	0.0	0.0	0.0	0.0	0.003	0.006	0.006	0.0	9.86411083984375	0.06943184814453125	0.07721300354003906	2.582550048828125	-3.54766845703125	-0.934600830078125	9.773729727172851	0.5787982513427734	0.1897404815673828	0.54168701171875	-4.978179931640625	-3.414154052734375	9.964068759155273	0.44053310546874996	-0.19393033447265623	2.76947021484375	-4.520416259765625	-1.77764892578125	
59	0.23600000000000002	0.0	0.0	0.0	0.0	0.003	0.006	0.003	0.006	9.861716638183593	0.06703764648437499	0.08200140686035155	2.593994140625	-3.917694091796875	-1.007080078125	9.777919580078125	0.5728127471923827	0.1879448303222656	0.6561279296875	-4.917144775390625	-3.360748291015625	9.975441217041014	0.44113165588378905	-0.19093758239746092	2.605438232421875	-4.589080810546875	-1.7547607421875	
60	0.24	0.0	0.0	0.0	0.0	0.009000000000000001	0.006	0.006	0.003	9.860519537353515	0.059256491088867186	0.07601590270996093	2.651214599609375	-3.887176513671875	-0.919342041015625	9.773729727172851	0.5674257934570313	0.19572598571777342	0.606536865234375	-5.321502685546875	-3.47900390625	9.973047015380859	0.4429273071289062	-0.19393033447265623	2.010345458984375	-4.87518310546875	-1.70135498046875	
61	0.244	0.0	0.0	0.0	0.0	0.006	0.003	0.003	0.003	9.868300692749022	0.05985504150390625	0.07362170104980469	2.57110595703125	-3.63922119140625	-0.90789794921875	9.780912332153319	0.5758054992675781	0.17657237243652343	0.797271728515625	-5.275726318359375	-3.337860107421875	9.974244116210937	0.4369418029785156	-0.19333178405761717	2.826690673828125	-4.95147705078125	-1.86920166015625	
62	0.248	0.0	0.0	0.0	0.0	0.006	0.003	0.006	0.006	9.85692823486328	0.06763619689941405	0.08200140686035155	2.582550048828125	-3.704071044921875	-0.873565673828125	9.770138424682617	0.5692214447021484	0.17836802368164062	0.32806396484375	-4.8065185546875	-3.398895263671875	9.97184991455078	0.43454760131835934	-0.201112939453125	2.69317626953125	-4.5928955078125	-1.781463623046875	
63	0.252	0.0	0.0	0.0	0.0	0.006	0.006	0.006	0.003	9.86411083984375	0.06643909606933593	0.07721300354003906	2.605438232421875	-3.810882568359375	-0.957489013671875	9.770138424682617	0.5692214447021484	0.18255787658691405	0.70953369140625	-4.856109619140625	-3.307342529296875	9.98501802368164	0.43574470214843747	-0.21128829650878905	2.567291259765625	-4.78363037109375	-1.804351806640625	
64	0.256	0.0	0.0	0.0	0.0	0.003	0.006	0.006	0.003	9.87668039855957	0.062249243164062495	0.07242460021972656	2.63214111328125	-3.894805908203125	-0.75531005859375	9.77432827758789	0.5674257934570313	0.19153613281249998	0.46539306640625	-4.98199462890625	-3.47900390625	9.980828170776366	0.4375403533935547	-0.21787235107421873	2.685546875	-4.718780517578125	-1.8463134765625	
65	0.26	0.0	0.0	0.0	0.0	0.003	0.006	0.006	0.003	9.860519537353515	0.07122749938964844	0.06883329772949218	2.414703369140625	-3.612518310546875	-0.9002685546875	9.777919580078125	0.5722141967773438	0.1897404815673828	0.507354736328125	-5.02777099609375	-3.2958984375	9.970652813720703	0.4465186096191406	-0.20709844360351562	2.75421142578125	-4.520416259765625	-1.651763916015625	
66	0.264	0.0	0.0	0.0	0.0	0.003	0.006	0.006	0.006	9.860519537353515	0.058657940673828124	0.05626373901367187	2.414703369140625	-3.8909912109375	-0.84686279296875	9.777321029663085	0.5710170959472656	0.1849520782470703	0.5035400390625	-5.07354736328125	-3.48663330078125	9.983820922851562	0.42796354675292964	-0.21128829650878905	2.69317626953125	-4.734039306640625	-1.682281494140625	
67	0.268	0.0	0.0	0.0	0.0	0.006	0.003	0.003	0.006	9.859322436523437	0.05386953735351562	0.062249243164062495	2.429962158203125	-3.570556640625	-0.86212158203125	9.776123928833007	0.5662286926269531	0.17776947326660156	0.78582763671875	-4.924774169921875	-3.292083740234375	9.97184991455078	0.43155484924316406	-0.20290859069824219	2.685546875	-4.730224609375	-1.800537109375	
68	0.272	0.0	0.0	0.0	0.0	0.0	0.003	0.003	0.006	9.852139831542969	0.06823474731445311	0.05985504150390625	2.3651123046875	-3.841400146484375	-0.766754150390625	9.770138424682617	0.5764040496826172	0.17178396911621094	0.6866455078125	-5.161285400390625	-3.429412841796875	9.955689053344726	0.4465186096191406	-0.20171148986816406	2.66265869140625	-4.665374755859375	-1.995086669921875	
69	0.276	0.0	0.0	0.0	0.0	0.003	0.006	0.003	0.003	9.85752678527832	0.06823474731445311	0.047285482788085934	2.536773681640625	-3.65447998046875	-0.90789794921875	9.777919580078125	0.5734112976074218	0.1580173095703125	0.74005126953125	-5.035400390625	-3.5247802734375	9.974244116210937	0.4531026641845703	-0.21188684692382811	2.811431884765625	-4.72259521484375	-1.861572265625	
70	0.28	0.0	0.0	0.0	0.0	0.003	0.006	0.006	0.006	9.859322436523437	0.06883329772949218	0.05087678527832031	2.54058837890625	-3.894805908203125	-0.7781982421875	9.778518130493163	0.5566518859863281	0.1657984649658203	0.42724609375	-4.9896240234375	-3.498077392578125	9.986215124511718	0.43155484924316406	-0.2184709014892578	2.75421142578125	-4.611968994140625	-1.88446044921875	
71	0.28400000000000003	0.0	0.0	0.0	0.0	0.006	0.006	0.006	0.006	9.866505041503906	0.07781155395507812	0.05626373901367187	2.529144287109375	-3.704071044921875	-0.736236572265625	9.773131176757811	0.5787982513427734	0.17178396911621094	0.5950927734375	-5.084991455078125	-3.39508056640625	9.982025271606444	0.44412440795898434	-0.19692308654785154	2.811431884765625	-4.634857177734375	-1.71661376953125	
72	0.28800000000000003	0.0	0.0	0.0	0.0	0.003	0.003	0.006	0.003	9.872490545654296	0.08319850769042968	0.04548983154296875	2.52532958984375	-3.665924072265625	-0.86212158203125	9.783905084228515	0.5889736083984375	0.16639701538085935	0.553131103515625	-4.913330078125	-3.276824951171875	9.983820922851562	0.45190556335449217	-0.2041056915283203	2.483367919921875	-4.764556884765625	-1.934051513671875	
73	0.292	0.0	0.0	0.0	0.0	0.003	0.006	0.003	0.006	9.87009634399414	0.059256491088867186	0.04129997863769531	2.47955322265625	-3.711700439453125	-0.92315673828125	9.779715231323241	0.5518634826660156	0.1801636749267578	0.652313232421875	-5.035400390625	-3.582000732421875	9.980229620361328	0.43514615173339843	-0.21727380065917967	2.76947021484375	-4.8065185546875	-1.8463134765625	
74	0.296	0.0	0.0	0.0	0.0	0.006	0.006	0.006	0.006	9.867702142333984	0.07601590270996093	0.05566518859863281	2.536773681640625	-3.814697265625	-0.873565673828125	9.770138424682617	0.5680243438720702	0.18076222534179687	0.652313232421875	-4.8675537109375	-3.444671630859375	9.963470208740233	0.4375403533935547	-0.20709844360351562	2.49481201171875	-4.61578369140625	-1.76239013671875	
75	0.3	0.0	0.0	0.0	0.0	0.003	0.003	0.003	0.003	9.855731134033203	0.07841010437011718	0.0430956298828125	2.498626708984375	-3.993988037109375	-0.79345703125	9.760561618041992	0.5746083984375	0.18734627990722655	0.637054443359375	-5.031585693359375	-3.4637451171875	9.975441217041014	0.4495113616943359	-0.2041056915283203	2.685546875	-4.680633544921875	-1.65557861328125	
76	0.304	0.0	0.0	0.0	0.0	0.006	0.006	0.006	0.006	9.860519537353515	0.05626373901367187	0.047884033203124995	2.41851806640625	-3.5247802734375	-1.0528564453125	9.776123928833007	0.5536591339111328	0.17417817077636719	0.705718994140625	-5.279541015625	-3.299713134765625	9.983222372436522	0.42796354675292964	-0.21428104858398436	2.76947021484375	-4.741668701171875	-1.956939697265625	
77	0.308	0.0	0.0	0.0	0.0	0.006	0.003	0.006	0.003	9.865307940673828	0.059256491088867186	0.05985504150390625	2.445220947265625	-3.757476806640625	-0.988006591796875	9.777919580078125	0.5602431884765625	0.17776947326660156	0.60272216796875	-5.1727294921875	-3.406524658203125	9.982025271606444	0.4285620971679687	-0.20649989318847656	2.61688232421875	-4.58526611328125	-1.88446044921875	
78	0.312	0.0	0.0	0.0	0.0	0.003	0.003	0.003	0.006	9.85094273071289	0.07362170104980469	0.06404489440917968	2.559661865234375	-3.917694091796875	-0.682830810546875	9.7683427734375	0.5835866546630859	0.1849520782470703	0.5645751953125	-4.825592041015625	-3.360748291015625	9.96586441040039	0.4477157104492187	-0.1897404815673828	2.796173095703125	-4.61578369140625	-1.76239013671875	
79	0.316	0.0	0.0	0.0	0.0	0.006	0.003	0.003	0.003	9.867702142333984	0.05626373901367187	0.06643909606933593	2.57110595703125	-3.925323486328125	-0.89263916015625	9.780912332153319	0.5596446380615234	0.17657237243652343	0.579833984375	-5.054473876953125	-3.376007080078125	9.97244846496582	0.42975919799804685	-0.19991583862304688	2.872467041015625	-4.6844482421875	-1.689910888671875	
80	0.32	0.0	0.0	0.0	0.0	0.006	0.003	0.006	0.003	9.86411083984375	0.04249707946777344	0.054468087768554684	2.544403076171875	-3.97491455078125	-0.9918212890625	9.782707983398437	0.5428852264404297	0.16639701538085935	0.6866455078125	-5.2642822265625	-3.448486328125	9.988010775756836	0.41898529052734373	-0.2136824981689453	2.7618408203125	-4.73785400390625	-2.002716064453125	
81	0.324	0.0	0.0	0.0	0.0	0.006	0.006	0.003	0.009000000000000001	9.85752678527832	0.06045359191894531	0.05746083984375	2.513885498046875	-3.77655029296875	-1.03759765625	9.773131176757811	0.5668272430419922	0.18076222534179687	0.335693359375	-5.31005859375	-3.45611572265625	9.967061511230469	0.44412440795898434	-0.19692308654785154	2.81524658203125	-4.482269287109375	-1.74713134765625	
82	0.328	0.0	0.0	0.0	0.0	0.003	0.003	0.003	0.006	9.86291373901367	0.06284779357910156	0.062249243164062495	2.216339111328125	-3.566741943359375	-0.86212158203125	9.771934075927733	0.5620388397216797	0.17597382202148437	0.57220458984375	-4.932403564453125	-3.505706787109375	9.964667309570311	0.43454760131835934	-0.20051438903808594	2.83050537109375	-4.787445068359375	-1.89208984375	
83	0.332	0.0	0.0	0.0	0.0	-0.003	0.006	0.006	0.003	9.854534033203125	0.058657940673828124	0.05985504150390625	2.544403076171875	-4.077911376953125	-0.865936279296875	9.775525378417969	0.5482721801757812	0.18435352783203124	0.55694580078125	-5.031585693359375	-3.37982177734375	9.97184991455078	0.4339490509033203	-0.1927332336425781	2.666473388671875	-4.5928955078125	-1.617431640625	
84	0.336	0.0	0.0	0.0	0.0	0.003	0.003	0.003	0.003	9.849745629882811	0.07781155395507812	0.05386953735351562	2.513885498046875	-4.024505615234375	-0.74005126953125	9.759963067626952	0.5805939025878906	0.17896657409667968	0.553131103515625	-4.772186279296875	-3.322601318359375	9.968857162475585	0.45010991210937495	-0.18734627990722655	2.777099609375	-4.57763671875	-1.842498779296875	
85	0.34	0.0	0.0	0.0	0.0	0.006	0.006	0.006	0.003	9.873089096069336	0.08678981018066406	0.05386953735351562	2.4566650390625	-3.932952880859375	-0.865936279296875	9.765350021362304	0.5901707092285156	0.181959326171875	0.713348388671875	-4.9591064453125	-3.276824951171875	9.976039767456054	0.46208092041015625	-0.21248539733886718	2.74658203125	-4.695892333984375	-1.789093017578125	
86	0.34400000000000003	0.0	0.0	0.0	0.0	0.012	0.006	0.003	0.006	9.904812268066406	0.07721300354003906	0.08439560852050781	2.552032470703125	-3.7841796875	-0.75531005859375	9.782707983398437	0.5668272430419922	0.18315642700195311	0.42724609375	-5.05828857421875	-3.24249267578125	9.982025271606444	0.4339490509033203	-0.229843359375	2.651214599609375	-4.764556884765625	-1.85394287109375	
87	0.34800000000000003	0.0	0.0	0.0	0.0	0.0	0.003	0.003	0.006	9.87009634399414	0.04369418029785156	0.1131260284423828	2.735137939453125	-3.856658935546875	-0.79345703125	9.783306533813477	0.5542576843261718	0.22385785522460935	0.591278076171875	-5.19561767578125	-3.47137451171875	9.977236868286132	0.42437224426269526	-0.17956512451171874	2.681732177734375	-4.57763671875	-1.97601318359375	
88	0.352	0.0	0.0	0.0	0.0	0.009000000000000001	0.006	0.003	0.003	9.871293444824218	0.009576806640625	0.0939724151611328	2.3956298828125	-3.48663330078125	-0.942230224609375	9.807847100830077	0.5129577056884765	0.21068974609375	0.621795654296875	-4.8828125	-3.261566162109375	10.02392380065918	0.37409400939941406	-0.1693897674560547	2.956390380859375	-4.520416259765625	-1.743316650390625	
89	0.356	0.0	0.0	0.0	0.0	0.003	0.003	0.003	0.006	9.888052856445311	0.004189852905273437	0.07242460021972656	2.5482177734375	-3.79180908203125	-0.972747802734375	9.797073193359374	0.49200844116210934	0.1975216369628906	0.6103515625	-5.05828857421875	-3.4027099609375	10.008960040283203	0.33698388366699217	-0.1849520782470703	2.513885498046875	-4.627227783203125	-1.65557861328125	
90	0.36	0.0	0.0	0.0	0.0	0.003	0.006	0.006	0.006	9.8311905670166	0.04908113403320312	0.08379705810546874	2.742767333984375	-3.7689208984375	-1.056671142578125	9.73063409729004	0.5662286926269531	0.22206220397949217	0.61798095703125	-5.077362060546875	-3.30352783203125	9.929951385498047	0.4333505004882812	-0.17118541870117188	2.834320068359375	-4.8828125	-1.93023681640625	
91	0.364	0.0	0.0	0.0	0.0	0.006	0.003	0.006	0.006	9.823409411621093	0.034715924072265626	0.06943184814453125	2.674102783203125	-3.6468505859375	-0.820159912109375	9.743802206420899	0.5506663818359374	0.2154781494140625	0.507354736328125	-5.06591796875	-3.406524658203125	9.938331091308592	0.4100070343017578	-0.14484920043945312	2.8076171875	-4.779815673828125	-1.73187255859375	
92	0.368	0.0	0.0	0.0	0.0	0.006	0.006	0.006	0.003	9.867103591918944	-0.003591302490234375	0.06763619689941405	2.62451171875	-3.7689208984375	-0.949859619140625	9.782707983398437	0.4860229370117187	0.17477672119140625	0.823974609375	-5.25665283203125	-3.482818603515625	10.005368737792969	0.34117373657226563	-0.20949264526367187	2.780914306640625	-4.695892333984375	-1.735687255859375	
93	0.372	0.0	0.0	0.0	0.0	0.003	0.003	0.006	0.003	9.84555577697754	0.04548983154296875	0.08379705810546874	2.666473388671875	-3.696441650390625	-0.865936279296875	9.755773214721678	0.5776011505126952	0.21068974609375	0.576019287109375	-4.726409912109375	-3.398895263671875	9.961076007080077	0.44532150878906246	-0.16340426330566404	2.92205810546875	-4.69970703125	-1.89208984375	
94	0.376	0.0	0.0	0.0	0.0	0.006	0.006	0.003	0.003	9.880870251464843	0.08379705810546874	0.09516951599121093	2.490997314453125	-3.932952880859375	-0.9918212890625	9.784503634643555	0.5961562133789062	0.19512743530273435	0.69427490234375	-5.06591796875	-3.330230712890625	9.976638317871092	0.4674678741455078	-0.1867477294921875	2.742767333984375	-4.596710205078125	-1.5869140625	
95	0.38	0.0	0.0	0.0	0.0	0.009000000000000001	0.003	0.003	0.003	9.90122096557617	0.04967968444824218	0.05626373901367187	2.5482177734375	-3.452301025390625	-0.904083251953125	9.802460147094726	0.5572504364013672	0.16280571289062498	0.7476806640625	-4.89044189453125	-3.376007080078125	10.013748443603514	0.4273649963378906	-0.22744915771484372	2.536773681640625	-4.7607421875	-1.6632080078125	
96	0.384	0.0	0.0	0.0	0.0	0.003	0.003	0.006	0.003	9.879673150634765	0.09217676391601562	0.08080430603027343	2.410888671875	-3.871917724609375	-0.812530517578125	9.771335525512695	0.5817910034179687	0.18734627990722655	0.545501708984375	-5.035400390625	-3.421783447265625	9.976638317871092	0.4626794708251953	-0.19931728820800781	2.597808837890625	-4.428863525390625	-1.88446044921875	
97	0.388	0.0	0.0	0.0	0.0	0.003	0.006	0.006	0.006	9.859920986938477	0.10474632263183593	0.07841010437011718	2.719879150390625	-4.00543212890625	-1.0223388671875	9.763554370117188	0.6111199737548828	0.18854338073730467	0.644683837890625	-5.168914794921875	-3.39508056640625	9.950302099609374	0.49320554199218747	-0.20171148986816406	2.8228759765625	-4.764556884765625	-1.64794921875	
98	0.392	0.0	0.0	0.0	0.0	0.006	0.006	0.006	0.003	9.868300692749022	0.06883329772949218	0.05626373901367187	2.4261474609375	-3.795623779296875	-0.926971435546875	9.783905084228515	0.5608417388916015	0.17058686828613281	0.57220458984375	-4.73785400390625	-3.2958984375	9.983820922851562	0.4483142608642578	-0.2136824981689453	2.742767333984375	-4.608154296875	-1.79290771484375	
99	0.396	0.0	0.0	0.0	0.0	0.003	0.003	0.006	0.003	9.861716638183593	0.05626373901367187	0.05087678527832031	2.54058837890625	-3.673553466796875	-0.84686279296875	9.777321029663085	0.5536591339111328	0.16879121704101563	0.499725341796875	-4.8370361328125	-3.41033935546875	9.979631069946288	0.42377369384765623	-0.21188684692382811	2.6397705078125	-4.520416259765625	-1.77764892578125	
100	0.4	0.0	0.0	0.0	0.0	0.003	0.003	0.006	0.006	9.843760125732421	0.08918401184082031	0.06464344482421874	2.361297607421875	-3.849029541015625	-0.95367431640625	9.76116016845703	0.5967547637939453	0.1879448303222656	0.7476806640625	-5.07354736328125	-3.45611572265625	9.96047745666504	0.4644751220703125	-0.18076222534179687	2.529144287109375	-4.718780517578125	-1.842498779296875	
101	0.404	0.0	0.0	0.0	0.0	0.003	0.006	0.003	0.003	9.847351428222655	0.08798691101074219	0.06344634399414062	2.4261474609375	-3.673553466796875	-0.782012939453125	9.76235726928711	0.5967547637939453	0.16819266662597654	0.57220458984375	-4.787445068359375	-3.345489501953125	9.955090502929687	0.47165772705078124	-0.19333178405761717	2.7923583984375	-4.795074462890625	-1.7547607421875	
102	0.40800000000000003	0.0	0.0	0.0	0.0	0.003	0.006	0.006	0.003	9.859322436523437	0.07062894897460938	0.02454056701660156	2.513885498046875	-3.7689208984375	-0.713348388671875	9.775525378417969	0.5698199951171875	0.16160861206054686	0.6256103515625	-5.001068115234375	-3.4332275390625	9.980828170776366	0.4267664459228515	-0.21068974609375	2.918243408203125	-4.69970703125	-1.811981201171875	
103	0.41200000000000003	0.0	0.0	0.0	0.0	0.006	0.003	0.006	0.006	9.85692823486328	0.09038111267089843	0.033518823242187495	2.315521240234375	-3.9520263671875	-0.8392333984375	9.7683427734375	0.5967547637939453	0.17298106994628906	0.537872314453125	-4.8980712890625	-3.51715087890625	9.97783541870117	0.4578910675048828	-0.22505495605468748	2.727508544921875	-4.73785400390625	-1.800537109375	
104	0.41600000000000004	0.0	0.0	0.0	0.0	0.006	0.006	0.006	0.003	9.85692823486328	0.1149216796875	0.05566518859863281	2.3651123046875	-3.765106201171875	-0.95367431640625	9.759963067626952	0.6362590911865234	0.16699556579589842	0.392913818359375	-5.001068115234375	-3.265380859375	9.956287603759765	0.5015852478027344	-0.21308394775390624	2.864837646484375	-4.634857177734375	-1.7852783203125	
105	0.42	0.0	0.0	0.0	0.0	0.003	0.006	0.006	0.003	9.877877499389648	0.1149216796875	0.05746083984375	2.567291259765625	-3.810882568359375	-0.858306884765625	9.785102185058593	0.6171054779052734	0.14185644836425781	0.682830810546875	-5.18798828125	-3.467559814453125	9.973645565795898	0.4860229370117187	-0.23403321228027343	2.613067626953125	-4.730224609375	-1.735687255859375	
106	0.424	0.0	0.0	0.0	0.0	0.003	0.006	0.003	0.003	9.889249957275391	0.11731588134765625	0.017956512451171875	2.29644775390625	-3.70025634765625	-0.8544921875	9.79348189086914	0.6171054779052734	0.1484405029296875	0.774383544921875	-5.344390869140625	-3.543853759765625	10.001777435302733	0.479438882446289	-0.2472013214111328	2.788543701171875	-4.589080810546875	-1.93023681640625	
107	0.428	0.0	0.0	0.0	0.0	0.006	0.006	0.003	0.006	9.873089096069336	0.1370680450439453	0.04189852905273437	2.35748291015625	-3.60107421875	-0.949859619140625	9.779715231323241	0.6392518432617187	0.16639701538085935	0.46539306640625	-4.985809326171875	-3.25775146484375	9.965265859985351	0.5069722015380859	-0.229843359375	3.11279296875	-4.8980712890625	-1.651763916015625	
108	0.432	0.0	0.0	0.0	0.0	0.003	0.006	0.003	0.006	9.867702142333984	0.11073182678222655	0.047285482788085934	2.529144287109375	-3.7689208984375	-0.823974609375	9.775525378417969	0.6171054779052734	0.16220716247558592	0.865936279296875	-4.98199462890625	-3.3111572265625	9.973047015380859	0.4782417816162109	-0.22086510314941404	2.574920654296875	-4.730224609375	-1.712799072265625	
109	0.436	0.0	0.0	0.0	0.0	0.006	0.006	0.003	0.003	9.861716638183593	0.06943184814453125	0.047285482788085934	2.55584716796875	-3.803253173828125	-0.74005126953125	9.782707983398437	0.5847837554931641	0.15562310791015624	0.782012939453125	-5.0201416015625	-3.2501220703125	9.983820922851562	0.4477157104492187	-0.22445640563964842	2.67791748046875	-4.69207763671875	-1.766204833984375	
110	0.44	0.0	0.0	0.0	0.0	0.006	0.006	0.003	0.003	9.85094273071289	0.08200140686035155	0.04848258361816406	2.3040771484375	-3.490447998046875	-0.87738037109375	9.744400756835937	0.5889736083984375	0.1801636749267578	0.518798828125	-5.11932373046875	-3.543853759765625	9.964068759155273	0.46208092041015625	-0.20171148986816406	2.613067626953125	-4.665374755859375	-1.97601318359375	
111	0.444	0.0	0.0	0.0	0.0	0.006	0.003	0.003	0.006	9.847949978637695	0.08259995727539061	0.06344634399414062	2.64739990234375	-3.8299560546875	-0.8392333984375	9.750386260986328	0.5907692596435546	0.18914193115234373	0.713348388671875	-5.13458251953125	-3.238677978515625	9.952097750854492	0.4626794708251953	-0.1897404815673828	2.43377685546875	-4.650115966796875	-1.758575439453125	
112	0.448	0.0	0.0	0.0	0.0	0.006	0.003	0.006	0.006	9.862315188598632	0.047285482788085934	0.0430956298828125	2.7313232421875	-3.8604736328125	-0.91552734375	9.770138424682617	0.5572504364013672	0.1753752716064453	0.804901123046875	-5.07354736328125	-3.444671630859375	9.981426721191406	0.4387374542236328	-0.2059013427734375	2.92205810546875	-4.772186279296875	-1.76239013671875	
113	0.452	0.0	0.0	0.0	0.0	0.003	0.003	0.003	0.003	9.871891995239258	0.04608838195800781	0.05327098693847656	2.4871826171875	-3.826141357421875	-0.926971435546875	9.776123928833007	0.5488707305908203	0.17776947326660156	0.377655029296875	-5.37109375	-3.467559814453125	9.988609326171874	0.4225765930175781	-0.19213468322753904	2.605438232421875	-4.67681884765625	-1.705169677734375	
114	0.456	0.0	0.0	0.0	0.0	0.0	0.006	0.006	0.003	9.859322436523437	0.058657940673828124	0.07481880187988281	2.35748291015625	-3.421783447265625	-0.759124755859375	9.764751470947266	0.5668272430419922	0.18914193115234373	0.423431396484375	-4.99725341796875	-3.387451171875	9.968857162475585	0.43993455505371093	-0.19153613281249998	2.60162353515625	-4.70733642578125	-1.644134521484375	
115	0.46	0.0	0.0	0.0	0.0	0.003	0.006	0.006	0.0	9.861716638183593	0.055066638183593745	0.07721300354003906	2.57110595703125	-3.94439697265625	-0.9307861328125	9.773131176757811	0.5584475372314452	0.18614917907714842	0.530242919921875	-5.0506591796875	-3.292083740234375	9.974244116210937	0.43933600463867184	-0.19991583862304688	2.50244140625	-4.6844482421875	-1.7852783203125	
116	0.464	0.0	0.0	0.0	0.0	0.006	0.006	0.003	0.003	9.871293444824218	0.04908113403320312	0.07841010437011718	2.25830078125	-3.56292724609375	-0.682830810546875	9.776722479248047	0.5422866760253906	0.17896657409667968	0.69427490234375	-5.237579345703125	-3.528594970703125	9.982025271606444	0.41060558471679687	-0.19871873779296872	2.773284912109375	-4.5318603515625	-1.89208984375	
117	0.468	0.0	0.0	0.0	0.0	0.0	0.003	0.003	0.006	9.862315188598632	0.047884033203124995	0.09636661682128905	2.46429443359375	-3.925323486328125	-1.0223388671875	9.775525378417969	0.5512649322509765	0.201112939453125	0.629425048828125	-5.21087646484375	-3.42559814453125	9.975441217041014	0.4207809417724609	-0.1945288848876953	2.635955810546875	-4.589080810546875	-1.644134521484375	
118	0.47200000000000003	0.0	0.0	0.0	0.0	0.0	0.006	0.003	0.003	9.864709390258788	0.03950432739257812	0.10354922180175781	2.50244140625	-3.574371337890625	-0.90789794921875	9.78031378173828	0.5494692810058593	0.2232593048095703	0.6866455078125	-4.978179931640625	-3.41796875	9.975441217041014	0.42497079467773435	-0.17178396911621094	2.643585205078125	-4.70733642578125	-1.781463623046875	
119	0.47600000000000003	0.0	0.0	0.0	0.0	0.003	0.006	0.003	0.003	9.87668039855957	0.020949264526367185	0.08798691101074219	2.4871826171875	-3.72314453125	-0.90789794921875	9.788094937133788	0.508169302368164	0.2059013427734375	0.537872314453125	-5.08880615234375	-3.452301025390625	9.998784683227539	0.3896563201904297	-0.18375497741699218	2.62451171875	-4.909515380859375	-1.766204833984375	
120	0.48	0.0	0.0	0.0	0.0	0.003	0.006	0.003	0.006	9.858723886108399	0.008978256225585938	0.08379705810546874	2.338409423828125	-3.7078857421875	-0.81634521484375	9.781510882568359	0.5003881469726562	0.20290859069824219	0.469207763671875	-5.146026611328125	-3.398895263671875	9.98501802368164	0.37409400939941406	-0.18315642700195311	2.55584716796875	-4.5166015625	-1.983642578125	
121	0.484	0.0	0.0	0.0	0.0	0.009000000000000001	0.006	0.003	0.003	9.847351428222655	0.011372457885742187	0.10175357055664062	2.3651123046875	-3.726959228515625	-0.84686279296875	9.76116016845703	0.5213374114990235	0.21966800231933592	0.705718994140625	-5.207061767578125	-3.34930419921875	9.970652813720703	0.39444472351074217	-0.15083470458984374	2.536773681640625	-4.543304443359375	-1.76239013671875	
122	0.488	0.0	0.0	0.0	0.0	0.003	0.006	0.003	0.003	9.861118087768554	-0.00718260498046875	0.09457096557617187	2.628326416015625	-3.9825439453125	-0.762939453125	9.765948571777344	0.5063736511230469	0.21727380065917967	0.423431396484375	-4.93621826171875	-3.47900390625	9.973047015380859	0.38666356811523434	-0.14963760375976562	2.5177001953125	-4.67681884765625	-1.789093017578125	
123	0.492	0.0	0.0	0.0	0.0	0.003	0.003	0.006	0.003	9.867702142333984	-0.015562310791015624	0.08259995727539061	2.37274169921875	-3.696441650390625	-0.896453857421875	9.779116680908203	0.5027823486328125	0.20709844360351562	0.8544921875	-5.035400390625	-3.612518310546875	9.980229620361328	0.35015199279785153	-0.16160861206054686	2.773284912109375	-4.67681884765625	-1.79290771484375	
124	0.496	0.0	0.0	0.0	0.0	0.006	0.003	0.006	0.006	9.861716638183593	-0.007781155395507812	0.08858546142578125	2.376556396484375	-3.612518310546875	-0.93841552734375	9.779116680908203	0.5105635040283203	0.22385785522460935	0.537872314453125	-4.993438720703125	-3.3721923828125	9.979631069946288	0.3842693664550781	-0.1693897674560547	2.765655517578125	-4.72259521484375	-1.83868408203125	
125	0.5	0.0	0.0	0.0	0.0	0.003	0.003	0.006	0.003	9.868300692749022	0.008978256225585938	0.10115502014160156	2.674102783203125	-3.8604736328125	-0.797271728515625	9.772532626342773	0.5213374114990235	0.20829554443359374	0.83160400390625	-5.352020263671875	-3.4332275390625	9.982025271606444	0.3908534210205078	-0.16220716247558592	2.719879150390625	-4.547119140625	-1.800537109375	
126	0.504	0.0	0.0	0.0	0.0	0.003	0.003	0.006	0.006	9.868899243164062	0.008379705810546874	0.09696516723632811	2.58636474609375	-3.734588623046875	-0.9918212890625	9.780912332153319	0.5021837982177734	0.20769699401855468	0.583648681640625	-5.031585693359375	-3.41033935546875	9.986813674926758	0.364517202758789	-0.17657237243652343	2.735137939453125	-4.70733642578125	-1.873016357421875	
127	0.508	0.0	0.0	0.0	0.0	0.003	0.006	0.003	0.003	9.871891995239258	0.023942016601562498	0.09217676391601562	2.429962158203125	-3.59344482421875	-0.6866455078125	9.785102185058593	0.5213374114990235	0.20350714111328125	0.75531005859375	-4.894256591796875	-3.498077392578125	9.982623822021484	0.3800795135498047	-0.18076222534179687	2.7008056640625	-4.634857177734375	-1.74713134765625	
128	0.512	0.0	0.0	0.0	0.0	0.003	0.003	0.006	0.003	9.879074600219726	0.0430956298828125	0.08798691101074219	2.643585205078125	-3.90625	-0.8697509765625	9.770736975097655	0.5422866760253906	0.1879448303222656	0.42724609375	-4.962921142578125	-3.299713134765625	9.975441217041014	0.4207809417724609	-0.1867477294921875	2.8228759765625	-4.75311279296875	-1.68609619140625	
129	0.516	0.0	0.0	0.0	0.0	0.0	0.006	0.003	0.0	9.867103591918944	0.05027823486328125	0.07781155395507812	2.643585205078125	-3.742218017578125	-0.89263916015625	9.777919580078125	0.5530605834960938	0.1879448303222656	0.7171630859375	-5.001068115234375	-3.56292724609375	9.983820922851562	0.4129997863769531	-0.1975216369628906	2.765655517578125	-4.741668701171875	-1.804351806640625	
130	0.52	0.0	0.0	0.0	0.0	0.012	0.003	0.003	0.006	9.86411083984375	0.04608838195800781	0.07422025146484375	2.3651123046875	-3.543853759765625	-0.850677490234375	9.778518130493163	0.546476528930664	0.17597382202148437	0.6256103515625	-4.940032958984375	-3.543853759765625	9.97783541870117	0.4070142822265625	-0.201112939453125	2.918243408203125	-4.61578369140625	-1.880645751953125	
131	0.524	0.0	0.0	0.0	0.0	0.009000000000000001	0.006	0.006	0.0	9.852139831542969	0.05686228942871093	0.07422025146484375	2.532958984375	-4.085540771484375	-0.797271728515625	9.76116016845703	0.5638344909667968	0.1867477294921875	0.54931640625	-5.4168701171875	-3.326416015625	9.963470208740233	0.4207809417724609	-0.20709844360351562	2.593994140625	-4.566192626953125	-1.613616943359375	
132	0.528	0.0	0.0	0.0	0.0	0.009000000000000001	0.003	0.003	0.003	9.851541281127929	0.06823474731445311	0.07242460021972656	2.445220947265625	-3.551483154296875	-0.87738037109375	9.765350021362304	0.5710170959472656	0.19393033447265623	0.60272216796875	-5.062103271484375	-3.35693359375	9.968258612060547	0.43634325256347656	-0.20290859069824219	2.536773681640625	-4.84466552734375	-1.689910888671875	
133	0.532	0.0	0.0	0.0	0.0	0.003	0.006	0.003	0.0	9.85752678527832	0.07541735229492187	0.04848258361816406	2.471923828125	-3.8604736328125	-0.934600830078125	9.771934075927733	0.5710170959472656	0.17058686828613281	0.52642822265625	-5.222320556640625	-3.360748291015625	9.983222372436522	0.4381389038085937	-0.21428104858398436	2.803802490234375	-4.66156005859375	-1.766204833984375	
134	0.536	0.0	0.0	0.0	0.0	0.0	0.006	0.003	0.006	9.861118087768554	0.08798691101074219	0.034715924072265626	2.5482177734375	-3.8909912109375	-0.919342041015625	9.773729727172851	0.5901707092285156	0.16160861206054686	0.621795654296875	-4.98199462890625	-3.44085693359375	9.973047015380859	0.4495113616943359	-0.2166752502441406	2.544403076171875	-4.543304443359375	-1.7547607421875	
135	0.54	0.0	0.0	0.0	0.0	0.0	0.006	0.003	0.006	9.85692823486328	0.10295067138671875	0.04369418029785156	2.4871826171875	-3.734588623046875	-1.003265380859375	9.765350021362304	0.6117185241699218	0.16639701538085935	0.675201416015625	-5.1727294921875	-3.37982177734375	9.963470208740233	0.4734533782958984	-0.22445640563964842	2.83050537109375	-4.840850830078125	-1.781463623046875	
136	0.544	0.0	0.0	0.0	0.0	0.006	0.006	0.006	0.003	9.865307940673828	0.10893617553710937	0.04189852905273437	2.5787353515625	-3.810882568359375	-0.8544921875	9.767145672607422	0.6015431671142578	0.14724340209960937	0.6256103515625	-5.107879638671875	-3.47900390625	9.967660061645507	0.4878185882568359	-0.2328361114501953	2.838134765625	-4.8065185546875	-1.987457275390625	
137	0.548	0.0	0.0	0.0	0.0	0.003	0.003	0.006	0.003	9.867702142333984	0.11911153259277343	0.04189852905273437	2.44903564453125	-3.749847412109375	-0.89263916015625	9.77492682800293	0.6272808349609375	0.14963760375976562	0.560760498046875	-4.852294921875	-3.4637451171875	9.974244116210937	0.4991910461425781	-0.23822306518554687	2.796173095703125	-4.856109619140625	-1.728057861328125	
138	0.552	0.0	0.0	0.0	0.0	0.006	0.006	0.003	0.003	9.87009634399414	0.13407529296874998	0.037708676147460936	2.58636474609375	-3.849029541015625	-0.629425048828125	9.773131176757811	0.6410474945068358	0.14245499877929688	0.774383544921875	-5.16510009765625	-3.299713134765625	9.975441217041014	0.507570751953125	-0.23343466186523437	2.765655517578125	-4.825592041015625	-1.800537109375	
139	0.556	0.0	0.0	0.0	0.0	0.003	0.003	0.006	0.003	9.868899243164062	0.13646949462890623	0.023942016601562498	2.50244140625	-3.692626953125	-1.03759765625	9.777321029663085	0.6476315490722656	0.14963760375976562	0.827789306640625	-5.123138427734375	-3.63922119140625	9.975441217041014	0.5057751007080078	-0.24660277099609373	2.696990966796875	-4.596710205078125	-1.617431640625	
140	0.56	0.0	0.0	0.0	0.0	0.003	0.006	0.006	0.006	9.86411083984375	0.13168109130859373	0.013168109130859374	2.544403076171875	-3.734588623046875	-0.782012939453125	9.770736975097655	0.6386532928466796	0.14185644836425781	0.675201416015625	-5.100250244140625	-3.44085693359375	9.981426721191406	0.4944026428222656	-0.24121581726074218	2.78472900390625	-4.550933837890625	-1.796722412109375	
141	0.5640000000000001	0.0	0.0	0.0	0.0	0.003	0.006	0.003	0.006	9.872490545654296	0.1370680450439453	0.017357962036132813	2.620697021484375	-3.753662109375	-0.8392333984375	9.765350021362304	0.6350619903564453	0.1484405029296875	0.431060791015625	-4.978179931640625	-3.345489501953125	9.970652813720703	0.49859249572753905	-0.2442085693359375	2.536773681640625	-4.6539306640625	-1.873016357421875	
142	0.5680000000000001	0.0	0.0	0.0	0.0	0.003	0.006	0.006	0.003	9.85094273071289	0.1352723937988281	0.022744915771484374	2.521514892578125	-3.76129150390625	-0.87738037109375	9.763554370117188	0.6434416961669921	0.15083470458984374	0.675201416015625	-4.8828125	-3.391265869140625	9.958681805419921	0.5009866973876953	-0.23223756103515625	2.6397705078125	-4.665374755859375	-1.773834228515625	
143	0.5720000000000001	0.0	0.0	0.0	0.0	0.006	0.006	0.003	0.003	9.859920986938477	0.12868833923339842	0.023942016601562498	2.658843994140625	-3.60870361328125	-0.957489013671875	9.776722479248047	0.6404489440917969	0.14784195251464843	0.6866455078125	-5.207061767578125	-3.5552978515625	9.973047015380859	0.5015852478027344	-0.22864625854492185	2.86102294921875	-4.7760009765625	-1.819610595703125	
144	0.5760000000000001	0.0	0.0	0.0	0.0	0.006	0.006	0.006	0.006	9.86411083984375	0.12629413757324218	0.02633621826171875	2.468109130859375	-3.62396240234375	-0.7781982421875	9.777919580078125	0.6338648895263671	0.14125789794921875	0.48065185546875	-4.974365234375	-3.4332275390625	9.974244116210937	0.4991910461425781	-0.22685060729980466	2.521514892578125	-4.344940185546875	-1.678466796875	
145	0.58	0.0	0.0	0.0	0.0	0.009000000000000001	0.006	0.006	0.003	9.871293444824218	0.12808978881835936	0.044292730712890624	2.285003662109375	-3.551483154296875	-1.09100341796875	9.780912332153319	0.632667788696289	0.16041151123046873	0.675201416015625	-4.825592041015625	-3.39508056640625	9.963470208740233	0.5021837982177734	-0.2316390106201172	2.67791748046875	-4.749298095703125	-1.728057861328125	
146	0.584	0.0	0.0	0.0	0.0	0.003	0.003	0.006	0.006	9.861118087768554	0.11133037719726561	0.05087678527832031	2.605438232421875	-3.814697265625	-0.865936279296875	9.780912332153319	0.6314706878662109	0.15682020874023436	0.637054443359375	-5.107879638671875	-3.650665283203125	9.97184991455078	0.4908113403320312	-0.21966800231933592	2.620697021484375	-4.7760009765625	-1.96075439453125	
147	0.588	0.0	0.0	0.0	0.0	0.006	0.006	0.006	0.006	9.867103591918944	0.10235212097167969	0.04848258361816406	2.32696533203125	-3.604888916015625	-0.8544921875	9.773729727172851	0.6123170745849609	0.16519991455078123	0.6561279296875	-5.008697509765625	-3.345489501953125	9.974244116210937	0.4848258361816406	-0.2184709014892578	2.658843994140625	-4.680633544921875	-1.83868408203125	
148	0.592	0.0	0.0	0.0	0.0	0.006	0.006	0.006	0.003	9.855731134033203	0.10175357055664062	0.05626373901367187	2.353668212890625	-3.612518310546875	-0.965118408203125	9.773131176757811	0.604535919189453	0.16460136413574217	0.698089599609375	-4.85992431640625	-3.536224365234375	9.975441217041014	0.47285482788085936	-0.2232593048095703	2.712249755859375	-4.70733642578125	-1.80816650390625	
149	0.596	0.0	0.0	0.0	0.0	0.0	0.003	0.006	0.003	9.850344180297851	0.08499415893554688	0.059256491088867186	2.475738525390625	-3.5552978515625	-0.84686279296875	9.769539874267577	0.5925649108886718	0.17776947326660156	0.75531005859375	-5.06591796875	-3.51715087890625	9.97184991455078	0.46686932373046874	-0.20470424194335937	2.6092529296875	-4.505157470703125	-1.8463134765625	
150	0.6	0.0	0.0	0.0	0.0	0.006	0.003	0.006	0.003	9.859322436523437	0.07302315063476562	0.0652419952392578	2.506256103515625	-3.643035888671875	-0.827789306640625	9.7683427734375	0.5668272430419922	0.18614917907714842	0.54168701171875	-4.886627197265625	-3.459930419921875	9.980828170776366	0.4435258575439453	-0.20290859069824219	2.712249755859375	-4.665374755859375	-1.82342529296875	
151	0.604	0.0	0.0	0.0	0.0	0.006	0.003	0.006	0.006	9.867702142333984	0.0526724365234375	0.08259995727539061	2.60162353515625	-3.6773681640625	-0.865936279296875	9.770736975097655	0.5440823272705078	0.201112939453125	0.591278076171875	-5.4473876953125	-3.490447998046875	9.969455712890625	0.4273649963378906	-0.18136077575683593	2.597808837890625	-4.60052490234375	-1.789093017578125	
152	0.608	0.0	0.0	0.0	0.0	0.003	0.003	0.006	0.009000000000000001	9.861716638183593	0.03651157531738281	0.0796072052001953	2.55584716796875	-3.925323486328125	-1.007080078125	9.77492682800293	0.5446808776855468	0.20709844360351562	0.41961669921875	-4.6234130859375	-3.3721923828125	9.968258612060547	0.4129997863769531	-0.18255787658691405	2.834320068359375	-4.70733642578125	-1.651763916015625	
153	0.612	0.0	0.0	0.0	0.0	0.003	0.006	0.006	0.006	9.854534033203125	0.03531447448730469	0.09756371765136718	2.445220947265625	-3.627777099609375	-0.52642822265625	9.78031378173828	0.5315127685546874	0.20829554443359374	0.72479248046875	-5.123138427734375	-3.4332275390625	9.982623822021484	0.39145197143554683	-0.16699556579589842	2.86865234375	-4.69970703125	-1.67083740234375	
154	0.616	0.0	0.0	0.0	0.0	0.006	0.003	0.006	0.006	9.865906491088866	0.0053869537353515625	0.09217676391601562	2.506256103515625	-3.795623779296875	-0.93841552734375	9.782707983398437	0.5159504577636719	0.20649989318847656	0.606536865234375	-5.168914794921875	-3.330230712890625	9.980229620361328	0.38247371520996093	-0.17477672119140625	2.7923583984375	-4.90570068359375	-1.9378662109375	
155	0.62	0.0	0.0	0.0	0.0	0.003	0.003	0.003	0.003	9.862315188598632	0.0017956512451171875	0.1005564697265625	2.5177001953125	-3.814697265625	-0.965118408203125	9.780912332153319	0.5027823486328125	0.21068974609375	0.568389892578125	-4.734039306640625	-3.429412841796875	9.98501802368164	0.3800795135498047	-0.16819266662597654	2.7923583984375	-4.566192626953125	-1.62506103515625	
156	0.624	0.0	0.0	0.0	0.0	0.003	0.003	0.006	0.003	9.87069489440918	-0.011971008300781249	0.10893617553710937	2.6092529296875	-3.662109375	-0.797271728515625	9.77492682800293	0.4997895965576172	0.22086510314941404	0.621795654296875	-4.98199462890625	-3.30352783203125	9.987412225341796	0.3705027069091797	-0.16819266662597654	2.696990966796875	-4.638671875	-1.74713134765625	
157	0.628	0.0	0.0	0.0	0.0	0.0	0.006	0.003	0.006	9.871891995239258	-0.011971008300781249	0.11073182678222655	2.597808837890625	-3.574371337890625	-0.629425048828125	9.782109432983399	0.49260699157714843	0.22744915771484372	0.759124755859375	-5.168914794921875	-3.520965576171875	9.987412225341796	0.354341845703125	-0.15562310791015624	2.826690673828125	-4.825592041015625	-1.651763916015625	
158	0.632	0.0	0.0	0.0	0.0	0.003	0.006	0.003	0.003	9.866505041503906	-0.013766659545898436	0.09696516723632811	2.483367919921875	-3.88336181640625	-0.77056884765625	9.775525378417969	0.4830301849365234	0.2292448089599609	0.457763671875	-5.756378173828125	-3.444671630859375	9.99220062866211	0.3537432952880859	-0.15741875915527342	2.83050537109375	-4.459381103515625	-1.74713134765625	
159	0.636	0.0	0.0	0.0	0.0	0.003	0.003	0.006	0.006	9.865307940673828	-0.020350714111328123	0.1083376251220703	2.529144287109375	-3.86810302734375	-0.804901123046875	9.77432827758789	0.4944026428222656	0.23582886352539062	0.659942626953125	-4.85992431640625	-3.322601318359375	9.992799179077148	0.35134909362792965	-0.1514332550048828	2.620697021484375	-4.57000732421875	-1.804351806640625	
160	0.64	0.0	0.0	0.0	0.0	0.003	0.006	0.003	0.003	9.861118087768554	-0.023942016601562498	0.10773907470703124	2.47955322265625	-3.65447998046875	-0.850677490234375	9.779116680908203	0.4896142395019531	0.2292448089599609	0.492095947265625	-5.01251220703125	-3.265380859375	9.97903251953125	0.3603273498535156	-0.15502455749511718	2.674102783203125	-4.791259765625	-1.97601318359375	
161	0.644	0.0	0.0	0.0	0.0	0.003	0.006	0.006	0.006	9.860519537353515	-0.029328970336914062	0.10295067138671875	2.60162353515625	-3.856658935546875	-0.926971435546875	9.779116680908203	0.48243163452148435	0.21727380065917967	0.278472900390625	-5.0811767578125	-3.520965576171875	9.97184991455078	0.35314474487304687	-0.1657984649658203	2.655029296875	-4.58526611328125	-1.6937255859375	
162	0.648	0.0	0.0	0.0	0.0	0.006	0.003	0.006	0.006	9.85692823486328	-0.018555062866210937	0.10235212097167969	2.605438232421875	-3.704071044921875	-0.86212158203125	9.769539874267577	0.488417138671875	0.22206220397949217	0.690460205078125	-5.199432373046875	-3.570556640625	9.973645565795898	0.36152445068359373	-0.17058686828613281	2.0599365234375	-4.810333251953125	-1.743316650390625	
163	0.652	0.0	0.0	0.0	0.0	0.003	0.006	0.006	0.006	9.861716638183593	-0.01915361328125	0.10295067138671875	2.5787353515625	-3.864288330078125	-0.8392333984375	9.771934075927733	0.4944026428222656	0.21727380065917967	0.461578369140625	-4.90570068359375	-3.30352783203125	9.988609326171874	0.36930560607910157	-0.16639701538085935	2.666473388671875	-4.512786865234375	-1.6937255859375	
164	0.656	0.0	0.0	0.0	0.0	0.0	0.003	0.006	0.006	9.855132583618163	-0.001197100830078125	0.08379705810546874	2.490997314453125	-3.65447998046875	-0.67901611328125	9.783905084228515	0.4997895965576172	0.20350714111328125	0.52642822265625	-5.039215087890625	-3.44085693359375	9.989806427001952	0.3752911102294922	-0.17956512451171874	2.658843994140625	-4.69207763671875	-1.689910888671875	
165	0.66	0.0	0.0	0.0	0.0	0.003	0.003	0.003	0.003	9.868300692749022	0.010773907470703125	0.06943184814453125	2.69317626953125	-3.871917724609375	-0.827789306640625	9.785102185058593	0.5105635040283203	0.19033903198242186	0.4119873046875	-4.89044189453125	-3.4027099609375	9.981426721191406	0.3872621185302734	-0.1945288848876953	2.613067626953125	-4.573822021484375	-1.873016357421875	
166	0.664	0.0	0.0	0.0	0.0	0.003	0.006	0.006	0.003	9.866505041503906	0.018555062866210937	0.07362170104980469	2.55584716796875	-3.65447998046875	-0.904083251953125	9.782707983398437	0.5285200164794922	0.19033903198242186	0.66375732421875	-5.08880615234375	-3.39508056640625	9.980229620361328	0.39743747558593745	-0.1945288848876953	2.666473388671875	-4.734039306640625	-1.773834228515625	
167	0.668	0.0	0.0	0.0	0.0	0.003	0.006	0.003	0.006	9.874884747314452	0.031124621582031248	0.07422025146484375	2.43377685546875	-3.505706787109375	-0.885009765625	9.780912332153319	0.5404910247802734	0.19093758239746092	0.5340576171875	-5.039215087890625	-3.4332275390625	9.973047015380859	0.4171896392822265	-0.20231004028320312	2.658843994140625	-4.695892333984375	-1.91497802734375	
168	0.672	0.0	0.0	0.0	0.0	0.006	0.003	0.006	0.006	9.87009634399414	0.051475335693359374	0.07362170104980469	2.429962158203125	-3.795623779296875	-1.007080078125	9.777919580078125	0.5470750793457031	0.18136077575683593	0.63323974609375	-5.069732666015625	-3.56292724609375	9.982623822021484	0.43035774841308594	-0.21248539733886718	2.742767333984375	-4.825592041015625	-1.6326904296875	
169	0.676	0.0	0.0	0.0	0.0	0.003	0.003	0.003	0.006	9.86351228942871	0.061650692749023434	0.05327098693847656	2.376556396484375	-3.871917724609375	-0.72479248046875	9.773131176757811	0.5662286926269531	0.16280571289062498	0.568389892578125	-5.3253173828125	-3.2806396484375	9.980229620361328	0.4291606475830078	-0.201112939453125	2.727508544921875	-4.791259765625	-1.82342529296875	
170	0.68	0.0	0.0	0.0	0.0	0.003	0.006	0.003	0.006	9.866505041503906	0.06284779357910156	0.03651157531738281	2.69317626953125	-3.704071044921875	-0.79345703125	9.769539874267577	0.5883750579833984	0.17357962036132812	0.698089599609375	-5.084991455078125	-3.452301025390625	9.974244116210937	0.44412440795898434	-0.21607669982910155	2.635955810546875	-4.711151123046875	-1.934051513671875	
171	0.684	0.0	0.0	0.0	0.0	0.0	0.003	0.003	0.003	9.879673150634765	0.07781155395507812	0.03950432739257812	2.4566650390625	-3.612518310546875	-1.049041748046875	9.773131176757811	0.5955576629638671	0.16041151123046873	0.591278076171875	-5.05828857421875	-3.314971923828125	9.963470208740233	0.4626794708251953	-0.2292448089599609	2.73895263671875	-4.608154296875	-1.77764892578125	
172	0.6880000000000001	0.0	0.0	0.0	0.0	0.006	0.003	0.006	0.006	9.865906491088866	0.086191259765625	0.037110125732421874	2.704620361328125	-3.662109375	-0.568389892578125	9.763554370117188	0.6081272216796875	0.15203180541992187	0.782012939453125	-5.046844482421875	-3.322601318359375	9.974244116210937	0.4746504791259765	-0.22864625854492185	2.79998779296875	-4.589080810546875	-1.7547607421875	
173	0.6920000000000001	0.0	0.0	0.0	0.0	0.009000000000000001	0.006	0.006	0.003	9.853336932373047	0.10893617553710937	0.029927520751953124	2.50244140625	-3.627777099609375	-0.980377197265625	9.770736975097655	0.6165069274902344	0.14484920043945312	0.6256103515625	-5.16510009765625	-3.44085693359375	9.968857162475585	0.4914098907470703	-0.23822306518554687	2.498626708984375	-4.5318603515625	-1.7852783203125	
174	0.6960000000000001	0.0	0.0	0.0	0.0	0.006	0.006	0.006	0.006	9.867702142333984	0.11911153259277343	0.029927520751953124	2.5787353515625	-3.71551513671875	-0.804901123046875	9.773729727172851	0.63206923828125	0.13946224670410157	0.713348388671875	-5.352020263671875	-3.41033935546875	9.980828170776366	0.49859249572753905	-0.23582886352539062	2.719879150390625	-4.67681884765625	-1.598358154296875	
175	0.7000000000000001	0.0	0.0	0.0	0.0	0.006	0.006	0.003	0.003	9.864709390258788	0.13587094421386717	0.02454056701660156	2.25830078125	-3.681182861328125	-0.873565673828125	9.779715231323241	0.6410474945068358	0.1406593475341797	0.83160400390625	-5.30242919921875	-3.566741943359375	9.967660061645507	0.5057751007080078	-0.24121581726074218	2.498626708984375	-4.5928955078125	-1.64794921875	
176	0.704	0.0	0.0	0.0	0.0	0.003	0.003	0.006	0.003	9.864709390258788	0.14903905334472656	0.01975216369628906	2.67791748046875	-3.80706787109375	-0.77056884765625	9.773131176757811	0.6536170532226562	0.14125789794921875	0.63323974609375	-4.749298095703125	-3.253936767578125	9.97125136413574	0.5135562561035156	-0.2501940734863281	2.674102783203125	-4.718780517578125	-1.941680908203125	
177	0.708	0.0	0.0	0.0	0.0	0.006	0.003	0.006	0.006	9.864709390258788	0.1484405029296875	0.02633621826171875	2.338409423828125	-3.86810302734375	-0.8392333984375	9.767145672607422	0.6530185028076172	0.13946224670410157	0.640869140625	-4.89044189453125	-3.57818603515625	9.967660061645507	0.5225345123291015	-0.24660277099609373	2.716064453125	-4.93621826171875	-1.796722412109375	
178	0.712	0.0	0.0	0.0	0.0	0.0	0.003	0.006	0.006	9.860519537353515	0.14185644836425781	0.029328970336914062	2.7313232421875	-3.90625	-0.7781982421875	9.756970315551758	0.6548141540527344	0.1406593475341797	0.308990478515625	-5.2642822265625	-3.45611572265625	9.968258612060547	0.5231330627441406	-0.23702596435546874	2.5482177734375	-4.55474853515625	-1.64031982421875	
179	0.716	0.0	0.0	0.0	0.0	0.012	0.003	0.006	0.006	9.86411083984375	0.14305354919433594	0.022744915771484374	2.6092529296875	-3.719329833984375	-0.873565673828125	9.773131176757811	0.6512228515624999	0.14724340209960937	0.78582763671875	-5.260467529296875	-3.42559814453125	9.956287603759765	0.5159504577636719	-0.2328361114501953	2.777099609375	-4.791259765625	-1.689910888671875	
180	0.72	0.0	0.0	0.0	0.0	0.003	0.006	0.003	0.003	9.868899243164062	0.14125789794921875	0.03531447448730469	2.4261474609375	-3.7689208984375	-1.010894775390625	9.777919580078125	0.6530185028076172	0.15442600708007811	0.64849853515625	-5.30242919921875	-3.322601318359375	9.969455712890625	0.5213374114990235	-0.22565350646972654	2.7618408203125	-4.6844482421875	-1.86920166015625	
181	0.724	0.0	0.0	0.0	0.0	0.003	0.006	0.006	0.003	9.871891995239258	0.14125789794921875	0.029927520751953124	2.452850341796875	-3.85284423828125	-0.8087158203125	9.778518130493163	0.651821401977539	0.15562310791015624	0.396728515625	-5.176544189453125	-3.177642822265625	9.980229620361328	0.5225345123291015	-0.22445640563964842	2.532958984375	-4.41741943359375	-1.8463134765625	
182	0.728	0.0	0.0	0.0	0.0	0.003	0.003	0.006	0.003	9.861716638183593	0.13467384338378904	0.03890577697753906	2.483367919921875	-3.5247802734375	-0.90789794921875	9.76894132385254	0.6368576416015624	0.16998831787109375	0.522613525390625	-5.2337646484375	-3.444671630859375	9.967061511230469	0.5057751007080078	-0.21308394775390624	2.4566650390625	-4.528045654296875	-1.79290771484375	
183	0.732	0.0	0.0	0.0	0.0	0.006	0.006	0.003	0.003	9.868899243164062	0.1227028350830078	0.05566518859863281	2.52532958984375	-3.63922119140625	-0.980377197265625	9.7683427734375	0.6236895324707031	0.18076222534179687	0.43487548828125	-4.82177734375	-3.143310546875	9.973047015380859	0.49799394531249996	-0.21068974609375	2.750396728515625	-4.535675048828125	-1.76239013671875	
184	0.736	0.0	0.0	0.0	0.0	0.006	0.003	0.006	0.006	9.871293444824218	0.12569558715820311	0.05746083984375	2.544403076171875	-3.7384033203125	-1.03759765625	9.771934075927733	0.6200982299804687	0.1801636749267578	0.537872314453125	-5.107879638671875	-3.54766845703125	9.97244846496582	0.4848258361816406	-0.20171148986816406	2.75421142578125	-4.38690185546875	-1.71661376953125	
185	0.74	0.0	0.0	0.0	0.0	0.003	0.003	0.006	0.0	9.859920986938477	0.10235212097167969	0.0652419952392578	2.31170654296875	-3.902435302734375	-0.701904296875	9.780912332153319	0.6051344696044921	0.1849520782470703	0.335693359375	-5.016326904296875	-3.307342529296875	9.97244846496582	0.4752490295410156	-0.20051438903808594	2.872467041015625	-4.7760009765625	-1.73187255859375	
186	0.744	0.0	0.0	0.0	0.0	0.006	0.003	0.006	0.003	9.858125335693359	0.09157821350097656	0.07003039855957031	2.2735595703125	-3.79180908203125	-0.904083251953125	9.783905084228515	0.5847837554931641	0.1897404815673828	0.4119873046875	-4.90570068359375	-3.437042236328125	9.974244116210937	0.46148236999511716	-0.19393033447265623	2.712249755859375	-4.60052490234375	-2.056121826171875	
187	0.748	0.0	0.0	0.0	0.0	0.003	0.003	0.006	0.003	9.868899243164062	0.07900865478515624	0.08319850769042968	2.52532958984375	-3.787994384765625	-0.675201416015625	9.782707983398437	0.5811924530029297	0.18914193115234373	0.46539306640625	-5.153656005859375	-3.31878662109375	9.982623822021484	0.44891281127929683	-0.1849520782470703	2.6092529296875	-4.45556640625	-1.5716552734375	
188	0.752	0.0	0.0	0.0	0.0	0.006	0.006	0.006	0.006	9.872490545654296	0.06763619689941405	0.08858546142578125	2.66265869140625	-3.631591796875	-0.667572021484375	9.777919580078125	0.5644330413818359	0.20649989318847656	0.743865966796875	-5.245208740234375	-3.448486328125	9.981426721191406	0.43454760131835934	-0.1801636749267578	2.78472900390625	-4.711151123046875	-1.781463623046875	
189	0.756	0.0	0.0	0.0	0.0	0.006	0.006	0.006	0.003	9.86411083984375	0.05027823486328125	0.08858546142578125	2.651214599609375	-3.7689208984375	-0.9002685546875	9.773131176757811	0.5542576843261718	0.20949264526367187	0.110626220703125	-4.856109619140625	-3.39508056640625	9.97843396911621	0.4225765930175781	-0.17118541870117188	2.49481201171875	-4.467010498046875	-1.758575439453125	
190	0.76	0.0	0.0	0.0	0.0	0.003	0.006	0.006	0.009000000000000001	9.861716638183593	0.03531447448730469	0.08200140686035155	2.47955322265625	-3.711700439453125	-0.92315673828125	9.777321029663085	0.546476528930664	0.21068974609375	0.705718994140625	-5.176544189453125	-3.448486328125	9.965265859985351	0.411802685546875	-0.17238251953125	2.777099609375	-4.6539306640625	-1.56402587890625	
191	0.764	0.0	0.0	0.0	0.0	0.006	0.006	0.006	0.006	9.867702142333984	0.03172317199707031	0.0939724151611328	2.353668212890625	-3.63922119140625	-0.7781982421875	9.78031378173828	0.5189432098388671	0.21607669982910155	0.507354736328125	-4.96673583984375	-3.604888916015625	9.973047015380859	0.4016273284912109	-0.17896657409667968	2.777099609375	-4.45556640625	-1.804351806640625	
192	0.768	0.0	0.0	0.0	0.0	0.003	0.006	0.006	0.003	9.86351228942871	0.011971008300781249	0.09277531433105468	2.7923583984375	-3.875732421875	-0.8544921875	9.776123928833007	0.5105635040283203	0.21248539733886718	0.64849853515625	-5.06591796875	-3.42559814453125	9.97184991455078	0.3890577697753906	-0.1610100616455078	2.758026123046875	-4.58526611328125	-1.811981201171875	
193	0.772	0.0	0.0	0.0	0.0	0.006	0.006	0.006	0.006	9.864709390258788	-0.0005985504150390625	0.1005564697265625	2.55584716796875	-3.79180908203125	-0.820159912109375	9.773131176757811	0.5021837982177734	0.2184709014892578	0.86212158203125	-5.126953125	-3.391265869140625	9.97783541870117	0.3699041564941406	-0.15442600708007811	2.529144287109375	-4.566192626953125	-1.682281494140625	
194	0.776	0.0	0.0	0.0	0.0	0.0	0.003	0.003	0.003	9.865307940673828	-0.011971008300781249	0.09935936889648436	2.643585205078125	-3.505706787109375	-0.820159912109375	9.779715231323241	0.49021278991699213	0.21966800231933592	0.652313232421875	-4.669189453125	-3.314971923828125	9.970652813720703	0.3705027069091797	-0.16460136413574217	2.780914306640625	-4.772186279296875	-1.964569091796875	
195	0.78	0.0	0.0	0.0	0.0	0.006	0.003	0.003	0.006	9.86351228942871	-0.01975216369628906	0.08918401184082031	2.58636474609375	-3.582000732421875	-1.06048583984375	9.775525378417969	0.49380409240722656	0.20470424194335937	0.61798095703125	-5.13458251953125	-3.41796875	9.97244846496582	0.36391865234375	-0.16759411621093748	2.605438232421875	-4.57000732421875	-1.5716552734375	
196	0.784	0.0	0.0	0.0	0.0	0.006	0.003	0.003	0.003	9.868899243164062	-0.013766659545898436	0.07302315063476562	2.593994140625	-3.726959228515625	-0.911712646484375	9.78031378173828	0.49260699157714843	0.21188684692382811	0.568389892578125	-5.161285400390625	-3.406524658203125	9.979631069946288	0.35673604736328124	-0.17896657409667968	2.513885498046875	-4.5928955078125	-1.8157958984375	
197	0.788	0.0	0.0	0.0	0.0	0.003	0.003	0.006	0.006	9.864709390258788	-0.016160861206054686	0.08738836059570312	2.57110595703125	-3.932952880859375	-1.07574462890625	9.782707983398437	0.4848258361816406	0.20829554443359374	0.63323974609375	-4.978179931640625	-3.459930419921875	9.981426721191406	0.35194764404296874	-0.18136077575683593	2.765655517578125	-4.695892333984375	-1.682281494140625	
198	0.792	0.0	0.0	0.0	0.0	0.012	0.003	0.003	0.006	9.87069489440918	-0.017357962036132813	0.09277531433105468	2.44903564453125	-3.65447998046875	-0.72479248046875	9.784503634643555	0.47764323120117186	0.19991583862304688	0.743865966796875	-5.001068115234375	-3.398895263671875	9.982623822021484	0.3447650390625	-0.17118541870117188	2.696990966796875	-4.6234130859375	-1.62506103515625	
199	0.796	0.0	0.0	0.0	0.0	0.003	0.006	0.003	0.006	9.865307940673828	-0.014963760375976562	0.0796072052001953	2.689361572265625	-3.86810302734375	-0.9613037109375	9.782707983398437	0.48123453369140623	0.19572598571777342	0.54931640625	-4.98199462890625	-3.284454345703125	9.980229620361328	0.3603273498535156	-0.18614917907714842	2.78472900390625	-4.825592041015625	-1.64031982421875	
200	0.8	0.0	0.0	0.0	0.0	0.009000000000000001	0.003	0.003	0.006	9.864709390258788	-0.012569558715820313	0.07122749938964844	2.43377685546875	-3.692626953125	-0.896453857421875	9.782707983398437	0.49380409240722656	0.19033903198242186	0.774383544921875	-5.10406494140625	-3.60107421875	9.987412225341796	0.3585316986083984	-0.19393033447265623	2.811431884765625	-4.817962646484375	-1.9378662109375	
201	0.804	0.0	0.0	0.0	0.0	0.0	0.006	0.003	0.006	9.85094273071289	-0.011971008300781249	0.06584054565429687	2.407073974609375	-3.66973876953125	-1.0223388671875	9.773131176757811	0.5015852478027344	0.181959326171875	0.675201416015625	-5.18798828125	-3.4027099609375	9.980229620361328	0.3711012573242187	-0.1945288848876953	2.7313232421875	-4.749298095703125	-1.5716552734375	
202	0.808	0.0	0.0	0.0	0.0	0.006	0.006	0.006	0.003	9.862315188598632	-0.008379705810546874	0.0430956298828125	2.475738525390625	-3.932952880859375	-0.843048095703125	9.777919580078125	0.5117606048583984	0.17357962036132812	0.8544921875	-4.993438720703125	-3.444671630859375	9.97244846496582	0.3758896606445312	-0.1945288848876953	2.5787353515625	-4.665374755859375	-1.7852783203125	
203	0.812	0.0	0.0	0.0	0.0	0.003	0.006	0.003	0.003	9.861716638183593	0.005985504150390624	0.051475335693359374	2.46429443359375	-3.543853759765625	-0.5950927734375	9.77432827758789	0.5225345123291015	0.17238251953125	0.6561279296875	-4.901885986328125	-3.35693359375	9.974244116210937	0.39145197143554683	-0.201112939453125	2.849578857421875	-4.550933837890625	-1.89208984375	
204	0.8160000000000001	0.0	0.0	0.0	0.0	0.003	0.003	0.006	0.003	9.858125335693359	0.02454056701660156	0.05087678527832031	2.582550048828125	-3.71551513671875	-0.77056884765625	9.771934075927733	0.5374982727050781	0.17417817077636719	0.591278076171875	-5.146026611328125	-3.322601318359375	9.968857162475585	0.3950432739257812	-0.21128829650878905	2.704620361328125	-4.638671875	-2.079010009765625	
205	0.8200000000000001	0.0	0.0	0.0	0.0	0.006	0.006	0.003	0.003	9.861716638183593	0.031124621582031248	0.054468087768554684	2.3651123046875	-3.65447998046875	-0.804901123046875	9.77432827758789	0.5386953735351562	0.16519991455078123	0.4730224609375	-4.8675537109375	-3.44085693359375	9.976039767456054	0.4177881896972656	-0.21607669982910155	2.689361572265625	-4.764556884765625	-1.857757568359375	
206	0.8240000000000001	0.0	0.0	0.0	0.0	0.006	0.006	0.006	0.009000000000000001	9.862315188598632	0.04668693237304687	0.05746083984375	2.414703369140625	-3.63922119140625	-0.95367431640625	9.770138424682617	0.5572504364013672	0.1592144104003906	0.568389892578125	-5.16510009765625	-3.429412841796875	9.990404977416992	0.43035774841308594	-0.22685060729980466	2.643585205078125	-4.604339599609375	-1.979827880859375	
207	0.8280000000000001	0.0	0.0	0.0	0.0	0.006	0.006	0.006	0.003	9.865906491088866	0.06643909606933593	0.05087678527832031	2.674102783203125	-3.72314453125	-0.690460205078125	9.76894132385254	0.5704185455322265	0.15981296081542967	0.80108642578125	-5.168914794921875	-3.631591796875	9.98501802368164	0.4447229583740234	-0.22445640563964842	2.777099609375	-4.58526611328125	-1.781463623046875	
208	0.8320000000000001	0.0	0.0	0.0	0.0	0.006	0.003	0.006	0.006	9.859322436523437	0.07362170104980469	0.047884033203124995	2.70843505859375	-3.681182861328125	-0.988006591796875	9.76894132385254	0.5829881042480468	0.17178396911621094	0.6256103515625	-5.06591796875	-3.47137451171875	9.981426721191406	0.4531026641845703	-0.239420166015625	2.834320068359375	-4.75311279296875	-1.76239013671875	
209	0.836	0.0	0.0	0.0	0.0	0.003	0.003	0.006	0.003	9.86291373901367	0.08140285644531249	0.03411737365722656	2.63214111328125	-3.971099853515625	-0.904083251953125	9.780912332153319	0.59376201171875	0.15682020874023436	0.690460205078125	-5.016326904296875	-3.421783447265625	9.987412225341796	0.4638765716552734	-0.20949264526367187	2.590179443359375	-4.55474853515625	-1.83868408203125	
210	0.84	0.0	0.0	0.0	0.0	0.003	0.006	0.003	0.003	9.86411083984375	0.1005564697265625	0.040102877807617184	2.529144287109375	-3.894805908203125	-0.888824462890625	9.7683427734375	0.6069301208496093	0.15861585998535155	0.392913818359375	-5.023956298828125	-3.185272216796875	9.986215124511718	0.4752490295410156	-0.23523031311035156	2.6397705078125	-4.7607421875	-1.804351806640625	
211	0.844	0.0	0.0	0.0	0.0	0.006	0.003	0.003	0.003	9.871891995239258	0.12090718383789062	0.027533319091796873	2.54058837890625	-3.73077392578125	-1.09100341796875	9.773729727172851	0.6117185241699218	0.16041151123046873	0.79345703125	-5.2947998046875	-3.459930419921875	9.973645565795898	0.48123453369140623	-0.22565350646972654	2.6092529296875	-4.70733642578125	-1.62506103515625	
212	0.848	0.0	0.0	0.0	0.0	0.006	0.003	0.006	0.003	9.87009634399414	0.12629413757324218	0.03591302490234375	2.49481201171875	-3.7384033203125	-0.858306884765625	9.765948571777344	0.6290764862060546	0.15382745666503905	0.621795654296875	-5.084991455078125	-3.307342529296875	9.970054263305663	0.4908113403320312	-0.23702596435546874	2.727508544921875	-4.5928955078125	-1.636505126953125	
213	0.852	0.0	0.0	0.0	0.0	0.006	0.006	0.006	0.006	9.877877499389648	0.13347674255371092	0.033518823242187495	2.552032470703125	-3.59344482421875	-0.87738037109375	9.78629928588867	0.6165069274902344	0.1466448516845703	0.766754150390625	-4.9285888671875	-3.44085693359375	9.974244116210937	0.5021837982177734	-0.21487959899902342	2.9296875	-4.608154296875	-1.644134521484375	
214	0.856	0.0	0.0	0.0	0.0	0.006	0.006	0.003	0.003	9.85692823486328	0.16340426330566404	0.037110125732421874	2.643585205078125	-3.917694091796875	-1.033782958984375	9.764751470947266	0.6057330200195312	0.1657984649658203	0.621795654296875	-5.069732666015625	-3.60870361328125	9.958681805419921	0.430956298828125	-0.18854338073730467	2.391815185546875	-4.45556640625	-1.7852783203125	
215	0.86	0.0	0.0	0.0	0.0	0.003	0.003	0.006	0.003	9.874286196899414	0.20350714111328125	0.03172317199707031	2.666473388671875	-3.60870361328125	-0.762939453125	9.764751470947266	0.7529764221191406	0.1562216583251953	0.48065185546875	-5.191802978515625	-3.448486328125	9.938331091308592	0.6554127044677734	-0.20470424194335937	2.552032470703125	-4.764556884765625	-1.865386962890625	
216	0.864	0.0	0.0	0.0	0.0	0.003	0.003	0.003	0.003	9.846154327392577	0.12449848632812499	0.05746083984375	2.6702880859375	-3.95965576171875	-0.705718994140625	9.77492682800293	0.5105635040283203	0.17118541870117188	0.858306884765625	-5.31005859375	-3.429412841796875	9.934739788818359	0.38247371520996093	-0.19093758239746092	2.61688232421875	-4.70733642578125	-1.708984375	
217	0.868	0.0	0.0	0.0	0.0	0.003	0.003	0.006	0.0	9.878476049804688	0.16998831787109375	0.047285482788085934	2.6702880859375	-3.936767578125	-0.980377197265625	9.749189160156249	0.6524199523925781	0.16220716247558592	0.69427490234375	-5.06591796875	-3.54766845703125	9.935936889648437	0.5871779571533203	-0.19812018737792966	2.605438232421875	-4.589080810546875	-2.170562744140625	
218	0.872	0.0	0.0	0.0	0.0	0.003	0.003	0.003	0.003	9.841964474487304	0.22864625854492185	0.08020575561523437	2.2735595703125	-3.475189208984375	-0.75531005859375	9.75517466430664	0.7068880401611328	0.18555062866210936	0.49591064453125	-4.993438720703125	-3.2958984375	9.952097750854492	0.6302735870361328	-0.17896657409667968	2.902984619140625	-4.764556884765625	-1.667022705078125	
219	0.876	0.0	0.0	0.0	0.0	0.0	0.003	0.003	0.006	9.865906491088866	0.08080430603027343	0.09157821350097656	2.46429443359375	-3.6773681640625	-0.888824462890625	9.749189160156249	0.5632359405517577	0.18734627990722655	0.640869140625	-4.924774169921875	-3.2958984375	9.96047745666504	0.43574470214843747	-0.1927332336425781	2.655029296875	-4.512786865234375	-1.773834228515625	
220	0.88	0.0	0.0	0.0	0.0	0.003	0.003	0.006	0.006	9.894038360595703	0.003591302490234375	0.020350714111328123	2.11334228515625	-3.73077392578125	-0.9918212890625	9.767145672607422	0.5728127471923827	0.1867477294921875	0.659942626953125	-5.161285400390625	-3.444671630859375	9.950302099609374	0.3956418243408203	-0.16280571289062498	2.74658203125	-4.619598388671875	-1.93023681640625	
221	0.884	0.0	0.0	0.0	0.0	0.003	0.003	0.006	0.006	9.87009634399414	0.17657237243652343	0.09516951599121093	2.35748291015625	-3.833770751953125	-0.9307861328125	9.742605105590819	0.7882908966064452	0.1945288848876953	0.568389892578125	-5.084991455078125	-3.292083740234375	9.993397729492187	0.6512228515624999	-0.18255787658691405	2.3040771484375	-4.619598388671875	-1.678466796875	
222	0.888	0.0	0.0	0.0	0.0	0.006	0.006	0.003	0.003	9.872490545654296	0.003591302490234375	0.037110125732421874	1.74713134765625	-3.307342529296875	-0.812530517578125	9.740809454345703	0.5728127471923827	0.23044190979003906	0.48065185546875	-5.3253173828125	-3.261566162109375	9.9078050201416	0.5303156677246094	-0.07900865478515624	2.8839111328125	-4.840850830078125	-1.434326171875	
223	0.892	0.0	0.0	0.0	0.0	0.003	0.003	0.006	0.003	9.880870251464843	-0.02154781494140625	0.058657940673828124	2.716064453125	-4.0435791015625	-0.89263916015625	9.80066449584961	0.42796354675292964	0.17238251953125	0.49591064453125	-5.0048828125	-3.917694091796875	9.976638317871092	0.3387795349121094	-0.14963760375976562	2.864837646484375	-4.833221435546875	-2.18963623046875	
224	0.896	0.0	0.0	0.0	0.0	0.003	0.003	0.006	0.003	9.911994873046874	0.06105214233398437	0.00718260498046875	2.2430419921875	-3.5400390625	-0.66375732421875	9.747393508911133	0.7392097625732421	0.20530279235839843	0.713348388671875	-5.237579345703125	-3.353118896484375	9.957484704589843	0.6817489227294922	-0.10474632263183593	2.643585205078125	-4.695892333984375	-1.651763916015625	
225	0.9	0.0	0.0	0.0	0.0	0.009000000000000001	0.006	0.006	0.006	9.879673150634765	0.016759411621093748	0.07781155395507812	2.773284912109375	-4.1351318359375	-0.690460205078125	9.781510882568359	0.51714755859375	0.20769699401855468	0.5950927734375	-5.123138427734375	-3.566741943359375	10.05564697265625	0.3842693664550781	-0.27174188842773433	2.635955810546875	-4.69207763671875	-1.70135498046875	
226	0.904	0.0	0.0	0.0	0.0	0.006	0.006	0.003	0.003	9.910199221801758	-0.07242460021972656	0.023942016601562498	2.361297607421875	-3.780364990234375	-0.81634521484375	9.731831198120117	0.5398924743652344	0.3315969299316406	0.5950927734375	-5.035400390625	-3.3416748046875	9.926958633422851	0.3920505218505859	-0.04668693237304687	2.8076171875	-4.6844482421875	-1.621246337890625	
227	0.908	0.0	0.0	0.0	0.0	0.006	0.003	0.003	0.003	9.91438907470703	0.008978256225585938	0.051475335693359374	2.788543701171875	-4.03594970703125	-0.9613037109375	9.827599264526366	0.5817910034179687	0.1580173095703125	0.492095947265625	-4.764556884765625	-3.47137451171875	10.131064324951172	0.3555389465332031	-0.3028665100097656	2.6397705078125	-4.360198974609375	-1.8463134765625	
228	0.912	0.0	0.0	0.0	0.0	0.006	0.003	0.003	0.006	9.76235726928711	0.23882161560058593	0.26276363220214843	2.87628173828125	-3.826141357421875	-0.782012939453125	9.72345149230957	0.690128628540039	0.34117373657226563	0.67901611328125	-5.096435546875	-3.34930419921875	9.907206469726562	0.5410895751953124	-0.022744915771484374	2.685546875	-4.72259521484375	-1.827239990234375	
229	0.916	0.0	0.0	0.0	0.0	0.003	0.006	0.003	0.003	9.887454306030273	-0.105344873046875	0.09516951599121093	2.899169921875	-3.963470458984375	-1.03759765625	9.865307940673828	0.29867665710449215	0.1274912384033203	0.904083251953125	-5.1727294921875	-3.44085693359375	10.091559997558592	0.12868833923339842	-0.3010708587646484	2.590179443359375	-4.4097900390625	-1.8157958984375	
230	0.92	0.0	0.0	0.0	0.0	0.009000000000000001	0.003	0.003	0.006	9.76894132385254	0.18555062866210936	0.2454056701660156	3.02886962890625	-3.993988037109375	-0.8544921875	9.769539874267577	0.6937199310302734	0.30466216125488277	0.370025634765625	-5.176544189453125	-3.3416748046875	10.005368737792969	0.6165069274902344	-0.19512743530273435	2.826690673828125	-4.75311279296875	-1.739501953125	
231	0.924	0.0	0.0	0.0	0.0	0.006	0.006	0.003	0.003	9.889249957275391	-0.08978256225585937	0.06943184814453125	1.514434814453125	-3.16619873046875	-0.93841552734375	9.880870251464843	0.3854664672851562	0.11252747802734374	0.820159912109375	-4.817962646484375	-3.326416015625	10.111910711669921	0.24061726684570311	-0.3381809844970703	2.628326416015625	-4.5013427734375	-1.82342529296875	
232	0.928	0.0	0.0	0.0	0.0	0.006	0.003	0.006	0.003	9.717465988159178	0.14305354919433594	0.2962824554443359	2.86102294921875	-3.818511962890625	-0.67901611328125	9.700108026123047	0.5943605621337891	0.2807201446533203	0.74005126953125	-5.22613525390625	-3.498077392578125	9.961076007080077	0.5117606048583984	-0.17417817077636719	2.96783447265625	-4.566192626953125	-1.7852783203125	
233	0.932	0.0	0.0	0.0	0.0	0.006	0.003	0.003	0.003	9.888651406860351	-0.19153613281249998	0.03890577697753906	1.522064208984375	-3.41033935546875	-1.007080078125	9.910199221801758	0.3806780639648437	0.07122749938964844	0.41961669921875	-4.878997802734375	-3.35693359375	10.08018753967285	0.22565350646972654	-0.3794809631347656	2.948760986328125	-4.703521728515625	-1.6937255859375	
234	0.936	0.0	0.0	0.0	0.0	0.009000000000000001	0.006	0.006	0.003	9.749189160156249	0.16041151123046873	0.2537853759765625	2.613067626953125	-3.955841064453125	-0.48828125	9.74799205932617	0.70868369140625	0.23104046020507812	0.530242919921875	-5.11932373046875	-3.15093994140625	10.011354241943359	0.6284779357910156	-0.22266075439453123	2.73895263671875	-4.7607421875	-1.45721435546875	
235	0.9400000000000001	0.0	0.0	0.0	0.0	0.006	0.006	0.003	0.006	9.87608184814453	-0.24899697265624998	0.08259995727539061	1.39617919921875	-3.200531005859375	-0.95367431640625	9.788094937133788	0.297479556274414	0.1610100616455078	0.675201416015625	-5.054473876953125	-3.314971923828125	10.047267266845703	0.12988544006347655	-0.37828386230468747	2.87628173828125	-4.878997802734375	-1.598358154296875	
236	0.9440000000000001	0.0	0.0	0.0	0.0	0.006	0.006	0.003	0.003	9.841365924072266	0.061650692749023434	0.007781155395507812	1.888275146484375	-3.376007080078125	-1.1444091796875	9.706093530273437	0.7386112121582031	0.25318682556152344	0.469207763671875	-4.863739013671875	-3.421783447265625	9.868300692749022	0.5494692810058593	-0.13467384338378904	2.628326416015625	-4.85992431640625	-2.017974853515625	
237	0.9480000000000001	0.0	0.0	0.0	0.0	0.003	0.006	0.006	0.003	9.906607919311522	-0.20051438903808594	0.03172317199707031	1.453399658203125	-2.841949462890625	-0.934600830078125	9.853935482788085	0.3812766143798828	0.11611878051757812	1.102447509765625	-5.31768798828125	-3.173828125	10.114903463745117	0.2316390106201172	-0.41958384094238277	2.90679931640625	-4.627227783203125	-1.71661376953125	
238	0.9520000000000001	0.0	0.0	0.0	0.0	0.003	0.003	0.006	0.009000000000000001	9.852139831542969	0.04189852905273437	-0.01915361328125	1.934051513671875	-3.284454345703125	-1.110076904296875	9.698910925292969	0.6757634185791015	0.2597708801269531	0.438690185546875	-4.90570068359375	-3.62396240234375	9.860519537353515	0.4830301849365234	-0.13347674255371092	2.50244140625	-4.604339599609375	-2.124786376953125	
239	0.9560000000000001	0.0	0.0	0.0	0.0	0.003	0.003	0.003	0.003	9.87009634399414	-0.17298106994628906	0.055066638183593745	1.33514404296875	-2.99835205078125	-0.827789306640625	9.817423907470703	0.38187516479492184	0.1370680450439453	0.31280517578125	-5.092620849609375	-3.3416748046875	10.08677159423828	0.2292448089599609	-0.41359833679199215	2.6092529296875	-5.06591796875	-1.76239013671875	
240	0.96	0.0	0.0	0.0	0.0	0.0	0.006	0.006	0.003	9.853336932373047	0.1083376251220703	-0.05686228942871093	2.063751220703125	-3.39508056640625	-0.980377197265625	9.724050042724608	0.6081272216796875	0.14544775085449219	0.728607177734375	-4.99725341796875	-3.5858154296875	9.881468801879882	0.6242880828857421	-0.1580173095703125	2.57110595703125	-4.978179931640625	-2.170562744140625	
241	0.964	0.0	0.0	0.0	0.0	0.003	0.003	0.003	0.006	9.813832604980469	0.22445640563964842	-0.0047884033203125	3.246307373046875	-4.268646240234375	-0.7476806640625	9.832986218261718	0.27892449340820313	0.13168109130859373	0.60272216796875	-5.138397216796875	-3.360748291015625	9.896432562255859	0.2609679809570312	-0.16879121704101563	2.605438232421875	-4.7760009765625	-1.552581787109375	
242	0.968	0.0	0.0	0.0	0.0	0.003	0.006	0.006	0.003	9.83178911743164	0.15322890625	-0.04668693237304687	2.0294189453125	-3.490447998046875	-1.24359130859375	9.69112976989746	0.5925649108886718	0.1657984649658203	0.545501708984375	-5.0201416015625	-3.643035888671875	9.835380419921874	0.6278793853759765	-0.12449848632812499	2.54058837890625	-4.703521728515625	-2.3040771484375	
243	0.972	0.0	0.0	0.0	0.0	0.003	0.006	0.003	0.003	9.822810861206055	0.31663316955566406	-0.031124621582031248	2.960205078125	-4.161834716796875	-0.579833984375	9.69771382446289	0.622492431640625	0.16160861206054686	0.6256103515625	-5.245208740234375	-2.964019775390625	9.90181951599121	0.41060558471679687	-0.16160861206054686	2.407073974609375	-4.787445068359375	-1.53350830078125	
244	0.976	0.0	0.0	0.0	0.0	0.003	0.006	0.003	0.006	9.852139831542969	0.13108254089355467	-0.08798691101074219	3.3721923828125	-4.17327880859375	-0.98419189453125	9.711480484008788	0.5303156677246094	0.15083470458984374	0.75531005859375	-5.0506591796875	-3.620147705078125	9.93952819213867	0.2771288421630859	-0.14484920043945312	2.25830078125	-4.383087158203125	-2.063751220703125	
245	0.98	0.0	0.0	0.0	0.0	0.006	0.003	0.006	0.006	9.819219558715819	0.30406361083984373	-0.05805939025878906	3.376007080078125	-4.180908203125	-0.797271728515625	9.692326870727538	0.5722141967773438	0.15682020874023436	0.476837158203125	-5.157470703125	-3.204345703125	9.867702142333984	0.36691140441894526	-0.14784195251464843	2.758026123046875	-4.974365234375	-1.79290771484375	
246	0.984	0.0	0.0	0.0	0.0	0.006	0.006	0.006	0.006	9.928754284667969	0.11372457885742186	-0.010175357055664061	3.48663330078125	-4.2877197265625	-1.010894775390625	9.814431155395507	0.5716156463623047	0.105344873046875	0.637054443359375	-4.89044189453125	-3.448486328125	9.91438907470703	0.4016273284912109	-0.11552023010253906	2.716064453125	-4.5318603515625	-2.277374267578125	
247	0.988	0.0	0.0	0.0	0.0	0.006	0.006	0.006	0.006	9.839570272827148	0.29388825378417965	-0.07900865478515624	3.35693359375	-4.436492919921875	-0.843048095703125	9.689932669067382	0.55545478515625	0.14963760375976562	0.598907470703125	-4.99725341796875	-3.017425537109375	9.87069489440918	0.5985504150390625	-0.03950432739257812	2.605438232421875	-4.810333251953125	-1.277923583984375	
248	0.992	0.0	0.0	0.0	0.0	0.006	0.003	0.003	0.006	9.916184725952148	0.0383072265625	-0.0053869537353515625	3.772735595703125	-4.436492919921875	-0.9918212890625	9.813832604980469	0.5015852478027344	0.08499415893554688	0.32806396484375	-4.730224609375	-3.5552978515625	9.931148486328125	0.3076549133300781	-0.13587094421386717	2.55584716796875	-4.35638427734375	-2.26593017578125	
249	0.996	0.0	0.0	0.0	0.0	0.006	0.003	0.003	0.003	9.878476049804688	-0.033518823242187495	0.1640028137207031	1.739501953125	-3.253936767578125	-0.728607177734375	9.76894132385254	0.8828618621826171	0.22266075439453123	0.530242919921875	-5.306243896484375	-3.414154052734375	9.858125335693359	0.7116764434814453	-0.02633621826171875	2.666473388671875	-4.5318603515625	-1.35040283203125	
250	1.0	0.0	0.0	0.0	0.0	0.006	0.003	0.003	0.006	9.906009368896484	0.029328970336914062	0.04189852905273437	3.490447998046875	-4.5166015625	-0.888824462890625	9.797671743774414	0.5506663818359374	0.10115502014160156	0.5340576171875	-5.077362060546875	-3.56292724609375	9.929951385498047	0.4483142608642578	-0.1149216796875	3.093719482421875	-4.619598388671875	-1.758575439453125	
251	1.004	0.0	0.0	0.0	0.0	0.006	0.003	0.006	0.006	9.867702142333984	-0.076614453125	0.19033903198242186	1.285552978515625	-3.41033935546875	-0.732421875	9.769539874267577	0.7882908966064452	0.1975216369628906	0.48828125	-5.14984130859375	-3.154754638671875	9.87009634399414	0.6021417175292968	-0.03651157531738281	2.8076171875	-4.730224609375	-1.40380859375	
252	1.008	0.0	0.0	0.0	0.0	0.006	0.006	0.006	0.009000000000000001	9.886257205200195	0.03651157531738281	0.08678981018066406	3.51715087890625	-4.2877197265625	-0.946044921875	9.909600671386718	0.4800374328613281	0.025737667846679687	0.873565673828125	-4.993438720703125	-3.574371337890625	10.250774407958984	0.3178302703857422	-0.5955576629638671	2.910614013671875	-4.688262939453125	-1.781463623046875	
253	1.012	0.0	0.0	0.0	0.0	0.006	0.006	0.003	0.003	9.840767373657226	-0.028131869506835935	0.2292448089599609	1.2359619140625	-2.471923828125	-0.732421875	9.753977563476562	0.8487444885253905	0.23882161560058593	0.255584716796875	-4.878997802734375	-3.01361083984375	9.86411083984375	0.699705435180664	-0.017357962036132813	2.70843505859375	-4.711151123046875	-1.27410888671875	
254	1.016	0.0	0.0	0.0	0.0	0.003	0.006	0.006	0.006	9.967660061645507	-0.2950853546142578	0.02154781494140625	0.598907470703125	-2.6702880859375	-0.865936279296875	9.926958633422851	0.3711012573242187	0.05686228942871093	0.8087158203125	-5.420684814453125	-3.23486328125	10.271125122070313	0.27174188842773433	-0.6123170745849609	2.986907958984375	-4.70733642578125	-1.86920166015625	
255	1.02	0.0	0.0	0.0	0.0	0.006	0.003	0.006	0.003	9.84435867614746	-0.001197100830078125	0.25139117431640623	0.888824462890625	-2.8533935546875	-0.72479248046875	9.70968483276367	0.833182177734375	0.32441432495117184	0.66375732421875	-5.146026611328125	-3.23486328125	10.044274514770507	0.9540893615722655	-0.2765302917480469	2.86865234375	-4.730224609375	-1.5716552734375	
256	1.024	0.0	0.0	0.0	0.0	0.006	0.003	0.003	0.006	9.97903251953125	-0.24181436767578124	0.003591302490234375	0.621795654296875	-2.666473388671875	-0.74005126953125	9.924564431762695	0.38786066894531246	0.07601590270996093	0.682830810546875	-4.673004150390625	-3.498077392578125	10.261548315429687	0.36810850524902344	-0.6398503936767578	2.834320068359375	-4.31060791015625	-1.781463623046875	
257	1.028	0.0	0.0	0.0	0.0	0.006	0.003	0.006	0.006	9.828197814941406	0.040701428222656245	0.28730419921875	3.269195556640625	-4.261016845703125	-0.690460205078125	9.70968483276367	0.7457938171386719	0.33518823242187495	0.850677490234375	-5.02777099609375	-3.25775146484375	10.035894808959961	0.9606734161376953	-0.26276363220214843	2.7923583984375	-4.82940673828125	-1.6937255859375	
258	1.032	0.0	0.0	0.0	0.0	0.006	0.006	0.006	0.006	10.003573086547851	-0.297479556274414	-0.0053869537353515625	0.640869140625	-2.5787353515625	-0.9002685546875	9.93414123840332	0.3687070556640625	0.07481880187988281	0.67901611328125	-5.107879638671875	-3.009796142578125	10.101735354614258	0.2567781280517578	-0.35015199279785153	2.857208251953125	-4.76837158203125	-1.567840576171875	
259	1.036	0.0	0.0	0.0	0.0	0.006	0.003	0.006	0.009000000000000001	9.85632968444824	0.3507505432128906	0.11133037719726561	3.414154052734375	-4.291534423828125	-0.720977783203125	9.71686743774414	0.785896694946289	0.35613749694824215	0.518798828125	-5.046844482421875	-3.25775146484375	10.065223779296874	1.0019733947753906	-0.28790274963378903	2.971649169921875	-4.8370361328125	-1.789093017578125	
260	1.04	0.0	0.0	0.0	0.0	0.009000000000000001	0.003	0.003	0.003	9.988010775756836	-0.30406361083984373	0.022146365356445312	0.797271728515625	-2.704620361328125	-0.92315673828125	9.92217023010254	0.20949264526367187	0.076614453125	0.8544921875	-5.18035888671875	-2.849578857421875	10.084377392578125	0.29388825378417965	-0.3274070770263672	2.960205078125	-4.749298095703125	-1.636505126953125	
261	1.044	0.0	0.0	0.0	0.0	0.003	0.003	0.003	0.003	9.878476049804688	0.3327940307617187	0.09038111267089843	3.543853759765625	-4.177093505859375	-0.804901123046875	9.724050042724608	0.7026981872558593	0.354940396118164	0.217437744140625	-4.802703857421875	-3.215789794921875	10.09335564880371	0.6051344696044921	0.08978256225585937	2.353668212890625	-4.680633544921875	-2.353668212890625	
262	1.048	0.0	0.0	0.0	0.0	0.006	0.003	0.006	0.006	9.821613760375977	0.3363853332519531	0.14784195251464843	4.550933837890625	-4.8370361328125	-0.606536865234375	9.96586441040039	0.16879121704101563	0.02693476867675781	0.835418701171875	-5.18798828125	-2.933502197265625	10.097545501708984	0.3280056274414062	-0.3597287994384765	2.925872802734375	-4.852294921875	-1.834869384765625	
263	1.052	0.0	0.0	0.0	0.0	0.003	0.003	0.003	0.006	9.89523546142578	0.31483751831054685	0.06105214233398437	3.5552978515625	-4.077911376953125	-0.751495361328125	9.694721072387695	0.6871358764648438	0.28730419921875	0.545501708984375	-4.924774169921875	-3.4027099609375	9.769539874267577	0.6607996582031249	0.08738836059570312	2.5177001953125	-4.688262939453125	-2.31170654296875	
264	1.056	0.0	0.0	0.0	0.0	0.003	0.003	0.003	0.006	9.810839852905273	0.3136404174804687	0.16460136413574217	5.157470703125	-5.329132080078125	-0.560760498046875	9.981426721191406	0.02633621826171875	0.016160861206054686	0.827789306640625	-5.153656005859375	-3.040313720703125	10.10712230834961	0.277727392578125	-0.37768531188964843	2.796173095703125	-4.64630126953125	-1.99127197265625	
265	1.06	0.0	0.0	0.0	0.0	0.003	0.003	0.003	0.006	9.920374578857421	0.3268085266113281	0.022744915771484374	3.7994384765625	-4.39453125	-0.64849853515625	9.727641345214844	0.661398208618164	0.26336218261718747	0.84686279296875	-4.89044189453125	-3.37982177734375	9.803657247924804	0.6877344268798827	0.05386953735351562	2.55584716796875	-4.57000732421875	-2.44903564453125	
266	1.064	0.0	0.0	0.0	0.0	0.006	0.006	0.006	0.003	9.798270294189452	0.35134909362792965	0.17238251953125	5.435943603515625	-5.474090576171875	-0.335693359375	9.673771807861328	0.5883750579833984	0.24121581726074218	0.865936279296875	-5.19561767578125	-2.9754638671875	9.834781869506836	0.24361001892089842	0.010773907470703125	2.490997314453125	-4.95147705078125	-1.7242431640625	
267	1.068	0.0	0.0	0.0	0.0	0.003	0.003	0.006	0.003	9.847949978637695	0.12090718383789062	0.03651157531738281	4.199981689453125	-4.619598388671875	-1.16729736328125	9.719860189819336	0.5793968017578125	0.2609679809570312	0.66375732421875	-5.0201416015625	-3.265380859375	9.769539874267577	0.6691793640136718	0.04668693237304687	2.307891845703125	-4.703521728515625	-2.262115478515625	
268	1.072	0.0	0.0	0.0	0.0	0.006	0.006	0.006	0.003	9.801263046264648	0.3441664886474609	0.12330138549804687	5.60760498046875	-5.72967529296875	-0.52642822265625	9.697115274047851	0.49739539489746093	0.20649989318847656	0.926971435546875	-5.36346435546875	-3.055572509765625	9.83837317199707	0.19632453613281248	-0.023343466186523436	2.490997314453125	-4.8675537109375	-1.865386962890625	
269	1.076	0.0	0.0	0.0	0.0	0.003	0.006	0.003	0.003	9.871293444824218	0.105344873046875	0.027533319091796873	4.1046142578125	-4.535675048828125	-1.285552978515625	9.67856021118164	0.8188169677734375	0.23582886352539062	0.392913818359375	-4.82940673828125	-3.955841064453125	9.906009368896484	0.0909796630859375	-0.032920272827148434	2.49481201171875	-4.20379638671875	-2.170562744140625	
270	1.08	0.0	0.0	0.0	0.0	0.006	0.003	0.006	0.0	9.797671743774414	0.4483142608642578	0.11671733093261719	0.751495361328125	-2.780914306640625	-0.96893310546875	9.685742816162108	0.5614402893066406	0.20530279235839843	0.888824462890625	-5.18798828125	-2.8533935546875	9.816226806640625	0.2861070983886719	-0.03411737365722656	2.445220947265625	-4.7454833984375	-1.575469970703125	
271	1.084	0.0	0.0	0.0	0.0	0.003	0.006	0.003	0.006	9.85632968444824	0.14245499877929688	0.04668693237304687	4.924774169921875	-5.14984130859375	-1.2359619140625	9.665392102050781	0.8643067993164062	0.22445640563964842	0.461578369140625	-4.878997802734375	-4.15802001953125	9.885658654785155	0.15562310791015624	-0.05087678527832031	2.590179443359375	-4.375457763671875	-2.399444580078125	
272	1.088	0.0	0.0	0.0	0.0	0.003	0.003	0.006	0.003	9.911994873046874	-0.201112939453125	-0.05686228942871093	0.90789794921875	-2.895355224609375	-1.071929931640625	9.688137017822266	0.948103857421875	0.22385785522460935	0.461578369140625	-5.222320556640625	-3.39508056640625	9.82460651245117	0.6117185241699218	0.06464344482421874	2.349853515625	-4.665374755859375	-1.28173828125	
273	1.092	0.0	0.0	0.0	0.0	0.003	0.003	0.003	0.006	9.86291373901367	0.12808978881835936	0.055066638183593745	4.7607421875	-5.0811767578125	-0.972747802734375	9.654019644165038	0.8020575561523438	0.22744915771484372	0.61798095703125	-4.85992431640625	-4.14276123046875	9.879673150634765	0.20709844360351562	-0.061650692749023434	2.54058837890625	-4.43267822265625	-2.368927001953125	
274	1.096	0.0	0.0	0.0	0.0	0.006	0.006	0.006	0.003	9.89463691101074	-0.08020575561523437	-0.027533319091796873	1.628875732421875	-3.27301025390625	-0.946044921875	9.665990652465819	0.9343371978759765	0.23403321228027343	0.553131103515625	-5.28717041015625	-3.566741943359375	9.804255798339844	0.7793126403808593	0.07003039855957031	2.887725830078125	-4.730224609375	-1.491546630859375	
275	1.1	0.0	0.0	0.0	0.0	0.003	0.006	0.006	0.006	9.885658654785155	-0.32501287536621093	0.03531447448730469	1.41143798828125	-3.13568115234375	-1.28173828125	9.907206469726562	0.28969840087890625	0.040102877807617184	0.560760498046875	-5.039215087890625	-3.650665283203125	9.91558617553711	0.0526724365234375	-0.10235212097167969	2.597808837890625	-4.474639892578125	-1.979827880859375	
276	1.104	0.0	0.0	0.0	0.0	0.003	0.006	0.003	0.006	9.91498762512207	-0.059256491088867186	-0.028131869506835935	2.094268798828125	-3.650665283203125	-0.89263916015625	9.702502227783203	0.5680243438720702	0.21428104858398436	0.34332275390625	-5.13458251953125	-3.19671630859375	9.813832604980469	0.7924807495117187	0.037110125732421874	2.590179443359375	-4.673004150390625	-1.613616943359375	
277	1.108	0.0	0.0	0.0	0.0	0.003	0.006	0.003	0.0	9.909600671386718	-0.3268085266113281	0.010773907470703125	2.2125244140625	-3.490447998046875	-1.224517822265625	9.877877499389648	0.4525041137695312	0.04548983154296875	0.91552734375	-4.917144775390625	-3.475189208984375	10.288483084106444	0.16041151123046873	-0.6039373687744141	2.95257568359375	-4.5318603515625	-1.308441162109375	
278	1.112	0.0	0.0	0.0	0.0	0.006	0.003	0.006	0.006	9.918578927612304	0.06943184814453125	-0.003591302490234375	2.857208251953125	-4.344940185546875	-0.75531005859375	9.713874685668944	0.3489548919677734	0.19931728820800781	0.51116943359375	-5.18798828125	-3.18145751953125	9.816226806640625	0.6679822631835937	0.05087678527832031	2.8076171875	-4.72259521484375	-1.728057861328125	
279	1.116	0.0	0.0	0.0	0.0	0.0	0.003	0.006	0.006	9.923965881347655	-0.44412440795898434	-0.020949264526367185	2.02178955078125	-3.467559814453125	-1.10626220703125	9.87608184814453	0.6278793853759765	0.032920272827148434	0.881195068359375	-4.791259765625	-3.3416748046875	10.269928021240235	0.297479556274414	-0.6057330200195312	2.72369384765625	-4.4097900390625	-1.277923583984375	
280	1.12	0.0	0.0	0.0	0.0	0.006	0.003	0.006	0.003	9.680355862426758	0.17776947326660156	0.36810850524902344	1.674652099609375	-3.1890869140625	-0.457763671875	9.690531219482422	0.55545478515625	0.4734533782958984	0.18310546875	-5.100250244140625	-3.02886962890625	10.046070166015625	0.35134909362792965	-0.25258827514648435	2.87628173828125	-4.711151123046875	-2.08282470703125	
281	1.124	0.0	0.0	0.0	0.0	0.003	0.003	0.003	0.003	9.925761532592773	-0.489015689086914	-0.06464344482421874	1.9989013671875	-3.4942626953125	-1.33514404296875	9.862315188598632	0.6691793640136718	0.028131869506835935	0.003814697265625	-4.840850830078125	-3.173828125	10.281899029541014	0.4423287567138672	-0.6200982299804687	2.66265869140625	-4.467010498046875	-1.110076904296875	
282	1.1280000000000001	0.0	0.0	0.0	0.0	0.0	0.006	0.003	0.003	9.665392102050781	0.19931728820800781	0.35673604736328124	2.05230712890625	-3.204345703125	-0.83160400390625	9.71686743774414	0.489015689086914	0.47584757995605464	0.133514404296875	-5.054473876953125	-3.23486328125	10.072406384277343	0.2615665313720703	-0.2454056701660156	3.02886962890625	-4.764556884765625	-1.922607421875	
283	1.1320000000000001	0.0	0.0	0.0	0.0	0.003	0.006	0.006	0.003	9.937732540893554	-0.4147954376220703	-0.06045359191894531	-0.957489013671875	-3.681182861328125	-1.2359619140625	10.045471615600585	0.6392518432617187	-0.11911153259277343	1.0833740234375	-5.252838134765625	-3.635406494140625	10.090961447143554	0.6835445739746093	-0.3447650390625	2.826690673828125	-4.642486572265625	-1.567840576171875	
284	1.1360000000000001	0.0	0.0	0.0	0.0	0.003	0.003	0.006	0.003	9.676764559936522	0.5781997009277343	0.31004911499023435	2.079010009765625	-3.368377685546875	-0.316619873046875	9.706692080688477	0.5422866760253906	0.45190556335449217	0.16021728515625	-4.98199462890625	-3.238677978515625	10.051457119750976	0.24600422058105467	-0.25139117431640623	3.05938720703125	-4.78363037109375	-1.8310546875	
285	1.1400000000000001	0.0	0.0	0.0	0.0	0.0	0.003	0.003	0.003	9.82460651245117	-0.4147954376220703	0.19871873779296872	0.026702880859375	-2.26593017578125	-1.041412353515625	10.040084661865233	0.6542156036376953	-0.16519991455078123	1.224517822265625	-5.01251220703125	-3.53240966796875	10.078990438842773	0.6631938598632812	-0.36092590026855464	2.89154052734375	-4.6844482421875	-1.56402587890625	
286	1.1440000000000001	0.0	0.0	0.0	0.0	0.006	0.006	0.006	0.006	9.658209497070311	-0.17896657409667968	0.3076549133300781	1.7242431640625	-3.246307373046875	-0.690460205078125	9.649829791259766	0.6404489440917969	0.3315969299316406	0.0457763671875	-4.82940673828125	-3.658294677734375	10.083778842163085	0.3094505645751953	-0.2867056488037109	2.147674560546875	-3.917694091796875	-1.430511474609375	
287	1.1480000000000001	0.0	0.0	0.0	0.0	0.006	0.006	0.006	0.003	9.854534033203125	0.19812018737792966	0.1801636749267578	0.0457763671875	-2.414703369140625	-0.78582763671875	10.053851321411132	0.5740098480224609	-0.1083376251220703	0.881195068359375	-4.947662353515625	-3.30352783203125	10.12567737121582	0.5722141967773438	-0.33758243408203126	2.834320068359375	-4.734039306640625	-1.60980224609375	
288	1.1520000000000001	0.0	0.0	0.0	0.0	0.003	0.003	0.003	0.006	9.840168823242188	0.25139117431640623	-0.03411737365722656	2.407073974609375	-3.299713134765625	-1.44195556640625	9.651026892089844	0.7003039855957031	0.36212300109863277	0.518798828125	-4.98199462890625	-3.2196044921875	9.773729727172851	0.3591302490234375	0.05746083984375	2.50244140625	-4.756927490234375	-2.23541259765625	
289	1.156	0.0	0.0	0.0	0.0	0.003	0.003	0.006	0.003	9.840767373657226	0.10115502014160156	0.18854338073730467	1.4190673828125	-3.376007080078125	-0.934600830078125	9.76175871887207	0.5536591339111328	0.15023615417480468	0.812530517578125	-5.290985107421875	-3.231048583984375	10.088567245483398	0.5482721801757812	-0.34057518615722654	3.047943115234375	-4.974365234375	-1.689910888671875	
290	1.16	0.0	0.0	0.0	0.0	0.006	0.006	0.003	0.003	9.83238766784668	-0.18555062866210936	-0.017956512451171875	0.54168701171875	-2.3956298828125	-1.194000244140625	9.637260232543944	0.699705435180664	0.3429693878173828	0.25177001953125	-4.6539306640625	-3.345489501953125	9.758167416381836	0.35673604736328124	0.058657940673828124	2.3651123046875	-4.627227783203125	-2.14385986328125	
291	1.164	0.0	0.0	0.0	0.0	0.006	0.006	0.006	0.003	9.792284790039062	-0.13467384338378904	0.21248539733886718	0.110626220703125	-2.292633056640625	-0.843048095703125	9.773131176757811	0.5063736511230469	0.11911153259277343	0.335693359375	-5.153656005859375	-3.19671630859375	9.81263550415039	0.48183308410644526	0.010175357055664061	2.43377685546875	-4.932403564453125	-2.227783203125	
292	1.168	0.0	0.0	0.0	0.0	0.003	0.006	0.006	0.003	9.796474642944336	0.16759411621093748	0.032920272827148434	1.605987548828125	-3.0364990234375	-1.285552978515625	9.612719665527344	0.5811924530029297	0.32920272827148434	-0.102996826171875	-4.695892333984375	-3.631591796875	9.731831198120117	0.31483751831054685	0.11133037719726561	2.166748046875	-4.734039306640625	-2.00653076171875	
293	1.172	0.0	0.0	0.0	0.0	0.003	0.006	0.006	0.003	9.900023864746093	0.054468087768554684	-0.1771709228515625	1.995086669921875	-3.631591796875	-0.873565673828125	9.804255798339844	0.5374982727050781	0.12808978881835936	0.8697509765625	-5.11932373046875	-3.30352783203125	9.851541281127929	0.5458779785156249	-0.01975216369628906	2.471923828125	-5.02777099609375	-2.227783203125	
294	1.176	0.0	0.0	0.0	0.0	0.003	0.003	0.006	0.003	9.817423907470703	-0.05027823486328125	0.054468087768554684	1.194000244140625	-2.62451171875	-1.3427734375	9.630676177978515	0.5829881042480468	0.31543606872558594	0.087738037109375	-4.41741943359375	-3.772735595703125	9.920374578857421	0.3525461944580078	-0.1640028137207031	2.70843505859375	-4.497528076171875	-1.613616943359375	
295	1.18	0.0	0.0	0.0	0.0	0.003	0.006	0.003	0.0	9.889848507690429	0.1370680450439453	-0.1388636962890625	1.689910888671875	-3.36456298828125	-0.759124755859375	9.701305126953125	0.507570751953125	0.1562216583251953	0.77056884765625	-5.2490234375	-3.2806396484375	9.797073193359374	0.5823895538330078	0.05566518859863281	2.315521240234375	-4.82177734375	-2.079010009765625	
296	1.184	0.0	0.0	0.0	0.0	0.006	0.003	0.006	0.003	9.816825357055663	0.0526724365234375	0.029328970336914062	1.06048583984375	-2.98309326171875	-1.155853271484375	9.613916766357422	0.5662286926269531	0.35673604736328124	0.1068115234375	-4.75311279296875	-3.57818603515625	9.932345587158203	0.32501287536621093	-0.15741875915527342	2.552032470703125	-4.46319580078125	-1.56402587890625	
297	1.188	0.0	0.0	0.0	0.0	0.0	0.006	0.003	0.003	9.903615167236328	0.25917232971191406	-0.14724340209960937	2.567291259765625	-3.73077392578125	-0.873565673828125	9.695319622802733	0.5321113189697265	0.14784195251464843	0.774383544921875	-5.367279052734375	-3.307342529296875	9.810241302490233	0.5925649108886718	0.047285482788085934	2.69317626953125	-4.581451416015625	-1.804351806640625	
298	1.192	0.0	0.0	0.0	0.0	0.003	0.003	0.006	0.003	9.949104998779296	0.03950432739257812	-0.05087678527832031	4.650115966796875	-5.153656005859375	-0.7781982421875	9.57620809020996	0.5704185455322265	0.36810850524902344	0.69427490234375	-4.756927490234375	-3.42559814453125	9.891045608520507	0.3333925811767578	-0.17118541870117188	2.323150634765625	-4.390716552734375	-1.674652099609375	
299	1.196	0.0	0.0	0.0	0.0	0.003	0.006	0.006	0.006	9.9215716796875	0.12449848632812499	-0.13766659545898435	1.567840576171875	-3.360748291015625	-0.58746337890625	9.69831237487793	0.6254851837158203	0.1227028350830078	0.6561279296875	-5.260467529296875	-3.246307373046875	9.829394915771484	0.508169302368164	0.001197100830078125	2.5482177734375	-4.703521728515625	-1.651763916015625	
300	1.2	0.0	0.0	0.0	0.0	0.006	0.003	0.006	0.006	9.99160207824707	0.15322890625	-0.11552023010253906	4.791259765625	-5.31005859375	-0.49591064453125	9.904812268066406	0.48722003784179685	-0.047884033203124995	0.518798828125	-4.978179931640625	-3.528594970703125	9.956287603759765	0.3399766357421875	-0.1753752716064453	2.7923583984375	-4.5928955078125	-1.789093017578125	
301	1.204	0.0	0.0	0.0	0.0	0.006	0.006	0.006	0.006	9.87009634399414	0.2663549346923828	0.277727392578125	5.001068115234375	-5.397796630859375	-0.530242919921875	9.696516723632811	0.5536591339111328	0.14604630126953125	0.484466552734375	-5.245208740234375	-3.025054931640625	9.883264453125	0.4129997863769531	-0.007781155395507812	2.742767333984375	-4.44793701171875	-1.97601318359375	
302	1.208	0.0	0.0	0.0	0.0	0.006	0.003	0.006	0.006	9.967061511230469	0.13168109130859373	-0.14305354919433594	5.0811767578125	-5.5694580078125	-0.682830810546875	9.840168823242188	0.51714755859375	0.0526724365234375	0.759124755859375	-4.87518310546875	-3.589630126953125	10.263343966674803	0.5746083984375	-0.5734112976074218	3.101348876953125	-4.34112548828125	-1.308441162109375	
303	1.212	0.0	0.0	0.0	0.0	0.003	0.006	0.003	0.006	9.879673150634765	0.19393033447265623	0.20709844360351562	5.161285400390625	-5.352020263671875	-0.3814697265625	9.76894132385254	0.6572083557128906	0.40282442932128903	0.61798095703125	-5.634307861328125	-3.0975341796875	9.87009634399414	0.4273649963378906	-0.07003039855957031	2.719879150390625	-4.791259765625	-1.605987548828125	
304	1.216	0.0	0.0	0.0	0.0	0.003	0.003	0.003	0.009000000000000001	10.000580334472655	0.06464344482421874	-0.17298106994628906	4.673004150390625	-4.993438720703125	-0.58746337890625	9.89583401184082	0.5051765502929687	-0.040102877807617184	0.812530517578125	-4.69207763671875	-3.60107421875	10.332775814819335	0.5746083984375	-0.6081272216796875	3.25775146484375	-4.543304443359375	-1.194000244140625	
305	1.22	0.0	0.0	0.0	0.0	0.003	0.006	0.006	0.006	9.809642752075195	0.15741875915527342	0.24660277099609373	4.84466552734375	-4.940032958984375	-0.45013427734375	9.750984811401366	0.5584475372314452	0.43035774841308594	0.667572021484375	-5.4168701171875	-3.124237060546875	9.998784683227539	0.19512743530273435	-0.08319850769042968	2.979278564453125	-4.7607421875	-1.89971923828125	
306	1.224	0.0	0.0	0.0	0.0	0.003	0.006	4.635	4.617	9.929951385498047	-0.05626373901367187	0.22206220397949217	2.0294189453125	-3.643035888671875	-0.965118408203125	10.073603485107421	0.4830301849365234	-0.14125789794921875	0.8697509765625	-5.138397216796875	-3.162384033203125	10.311826550292968	0.5746083984375	-0.6278793853759765	3.10516357421875	-4.489898681640625	-1.194000244140625	
307	1.228	0.0	0.0	0.0	0.0	4.617	4.644	4.638	4.617	9.843161575317382	0.18734627990722655	0.13766659545898435	5.298614501953125	-5.458831787109375	-0.675201416015625	9.841365924072266	0.5781997009277343	0.30047230834960936	0.77056884765625	-5.405426025390625	-3.154754638671875	10.04846436767578	0.2472013214111328	-0.19333178405761717	3.093719482421875	-4.7454833984375	-1.71661376953125	
308	1.232	0.0	0.0	0.0	0.0	4.617	4.647	4.647	4.605	9.955090502929687	-0.13347674255371092	0.13108254089355467	1.430511474609375	-2.9449462890625	-0.61798095703125	10.077793338012695	0.47105917663574215	-0.14604630126953125	1.010894775390625	-5.096435546875	-3.34930419921875	10.324994659423828	0.5392939239501953	-0.661398208618164	2.73895263671875	-4.932403564453125	-1.91497802734375	
