	time	dac1	dac2	dac3	dac4	adc1.3	adc2.3	adc3.3	adc4.3	imu1accx	imu1accy	imu1accz	imu1gyrox	imu1gyroy	imu1gyroz	imu2accx	imu2accy	imu2accz	imu2gyrox	imu2gyroy	imu2gyroz	imu3accx	imu3accy	imu3accz	imu3gyrox	imu3gyroy	imu3gyroz	log
0	0.0	0.0	0.0	0.0	0.0	0.006	0.003	0.003	0.006	9.86291373901367	-0.10235212097167969	-0.02154781494140625	2.67791748046875	-3.66973876953125	-0.9002685546875	9.781510882568359	0.43035774841308594	0.051475335693359374	0.6256103515625	-5.146026611328125	-2.99835205078125	10.005368737792969	0.0796072052001953	-0.22565350646972654	3.452301025390625	-4.52423095703125	-2.223968505859375	Estabilizou em 6s, 1080 rpm
1	0.004	0.0	0.0	0.0	0.0	0.003	0.003	0.006	0.006	9.875483297729492	-0.07841010437011718	-0.02633621826171875	2.475738525390625	-3.448486328125	-1.02996826171875	9.77492682800293	0.4560954162597656	0.04608838195800781	0.38909912109375	-4.96673583984375	-2.98309326171875	10.007762939453125	0.10235212097167969	-0.2328361114501953	3.574371337890625	-4.69970703125	-2.09808349609375	Started
2	0.008	0.0	0.0	0.0	0.0	0.006	0.003	0.003	0.003	9.874884747314452	-0.07242460021972656	-0.03172317199707031	2.490997314453125	-3.54766845703125	-0.904083251953125	9.781510882568359	0.46208092041015625	0.04129997863769531	0.4730224609375	-4.8675537109375	-2.964019775390625	10.011354241943359	0.10893617553710937	-0.24779987182617186	3.5552978515625	-4.535675048828125	-2.201080322265625	IMU1|LSM6DS3|0x6A|I2C-1|±2g (±19,6m/s²)|±125º/s|400Hz
3	0.012	0.0	0.0	0.0	0.0	0.006	0.003	0.006	0.003	9.878476049804688	-0.0652419952392578	-0.03172317199707031	2.689361572265625	-3.734588623046875	-0.789642333984375	9.785102185058593	0.46507367248535153	0.037708676147460936	0.23651123046875	-4.98199462890625	-2.933502197265625	10.01733974609375	0.11731588134765625	-0.24779987182617186	3.62396240234375	-4.6234130859375	-2.09808349609375	IMU2|LSM6DS3|0x6B|I2C-1|±2g (±19,6m/s²)|±125º/s|400Hz
4	0.016	0.0	0.0	0.0	0.0	0.003	0.006	0.003	0.003	9.871293444824218	-0.061650692749023434	-0.020350714111328123	2.41851806640625	-3.681182861328125	-0.820159912109375	9.781510882568359	0.48063598327636714	0.04908113403320312	0.102996826171875	-4.871368408203125	-2.716064453125	10.004770187377929	0.11372457885742186	-0.23642741394042968	3.490447998046875	-4.35638427734375	-1.9073486328125	IMU3|LSM6DS3|0x6B|I2C-2|±2g (±19,6m/s²)|±125º/s|400Hz
5	0.02	0.0	0.0	0.0	0.0	0.003	0.003	0.003	0.0	9.86411083984375	-0.05686228942871093	-0.01975216369628906	2.410888671875	-3.631591796875	-0.84686279296875	9.780912332153319	0.47584757995605464	0.06284779357910156	0.22125244140625	-4.8828125	-2.98309326171875	10.007762939453125	0.10773907470703124	-0.2262520568847656	3.551483154296875	-4.520416259765625	-2.132415771484375	ADC|ADS1015|0|0|1|0|±6,144 V|2400 SPS
6	0.024	0.0	0.0	0.0	0.0	0.006	0.003	0.003	0.003	9.873089096069336	-0.06404489440917968	0.0017956512451171875	2.422332763671875	-3.6163330078125	-0.812530517578125	9.780912332153319	0.4722562774658203	0.08259995727539061	0.41961669921875	-5.039215087890625	-2.964019775390625	10.012551342773437	0.11073182678222655	-0.20290859069824219	3.505706787109375	-4.581451416015625	-2.02178955078125	Gen1|Disabled
7	0.028	0.0	0.0	0.0	0.0	0.003	0.006	0.003	0.006	9.871293444824218	-0.06883329772949218	0.010773907470703125	2.620697021484375	-3.543853759765625	-0.89263916015625	9.785102185058593	0.4734533782958984	0.105344873046875	0.270843505859375	-4.817962646484375	-2.826690673828125	10.012551342773437	0.11252747802734374	-0.17657237243652343	3.467559814453125	-4.69207763671875	-2.0751953125	Gen2|Enabled|Noise|0.0|10.0|1668
8	0.032	0.0	0.0	0.0	0.0	0.009000000000000001	0.003	0.006	0.003	9.887454306030273	-0.08080430603027343	0.014963760375976562	2.658843994140625	-3.80706787109375	-0.75531005859375	9.787496386718749	0.4590881683349609	0.11791443176269531	0.38909912109375	-4.7454833984375	-2.99835205078125	10.019733947753906	0.1149216796875	-0.14544775085449219	3.5400390625	-4.63104248046875	-1.941680908203125	Gen3|Enabled|Noise|0.0|10.0|128
9	0.036000000000000004	0.0	0.0	0.0	0.0	0.003	0.003	0.003	0.006	9.88266590270996	-0.08918401184082031	0.033518823242187495	2.5482177734375	-3.60107421875	-0.6103515625	9.788094937133788	0.4471171600341797	0.14006079711914063	0.1983642578125	-4.6844482421875	-2.849578857421875	10.011354241943359	0.09576806640624999	-0.12868833923339842	3.490447998046875	-4.45556640625	-2.25067138671875	Gen4|Enabled|Noise|0.0|10.0|128
10	0.04	0.0	0.0	0.0	0.0	0.006	0.003	0.003	0.006	9.867702142333984	-0.08918401184082031	0.05686228942871093	2.55584716796875	-3.84521484375	-0.9307861328125	9.778518130493163	0.43454760131835934	0.16819266662597654	0.354766845703125	-4.810333251953125	-2.979278564453125	10.008361489868163	0.0987608184814453	-0.10175357055664062	3.414154052734375	-4.5318603515625	-2.010345458984375	Ctrl|Disabled
11	0.044	0.0	0.0	0.0	0.0	0.006	0.006	0.003	0.006	9.86411083984375	-0.10115502014160156	0.07900865478515624	2.5787353515625	-3.448486328125	-0.865936279296875	9.765948571777344	0.4261678955078125	0.19153613281249998	0.385284423828125	-4.852294921875	-2.8076171875	10.002375985717773	0.07841010437011718	-0.0652419952392578	3.681182861328125	-4.425048828125	-2.18963623046875	
12	0.048	0.0	0.0	0.0	0.0	0.003	0.003	0.006	0.003	9.862315188598632	-0.10773907470703124	0.09516951599121093	2.83050537109375	-4.009246826171875	-1.018524169921875	9.773131176757811	0.41958384094238277	0.1945288848876953	0.54168701171875	-5.084991455078125	-3.02886962890625	10.007762939453125	0.07122749938964844	-0.06943184814453125	3.753662109375	-4.543304443359375	-1.99127197265625	
13	0.052000000000000005	0.0	0.0	0.0	0.0	0.006	0.003	0.006	0.003	9.868899243164062	-0.10414777221679687	0.09816226806640624	2.841949462890625	-3.704071044921875	-0.789642333984375	9.782109432983399	0.4267664459228515	0.20350714111328125	0.431060791015625	-5.008697509765625	-2.971649169921875	10.024522351074218	0.07122749938964844	-0.054468087768554684	3.54766845703125	-4.63104248046875	-2.02178955078125	
14	0.056	0.0	0.0	0.0	0.0	0.003	0.003	0.006	0.009000000000000001	9.872490545654296	-0.10773907470703124	0.1227028350830078	2.658843994140625	-3.47900390625	-0.926971435546875	9.795876092529296	0.41838674011230464	0.2136824981689453	0.431060791015625	-4.924774169921875	-2.925872802734375	10.020931048583984	0.06464344482421874	-0.04608838195800781	3.60870361328125	-4.57763671875	-2.17437744140625	
15	0.06	0.0	0.0	0.0	0.0	0.003	0.003	0.003	0.006	9.868300692749022	-0.11252747802734374	0.13946224670410157	2.719879150390625	-3.662109375	-0.972747802734375	9.785102185058593	0.41060558471679687	0.2328361114501953	0.2899169921875	-4.89044189453125	-2.72369384765625	10.016142645263672	0.07601590270996093	-0.04369418029785156	3.3721923828125	-4.413604736328125	-2.0294189453125	
16	0.064	0.0	0.0	0.0	0.0	0.006	0.006	0.006	0.006	9.87009634399414	-0.11851298217773437	0.15083470458984374	2.92205810546875	-3.70025634765625	-0.8544921875	9.771934075927733	0.4100070343017578	0.24600422058105467	0.392913818359375	-4.79888916015625	-2.92205810546875	10.005967288208007	0.06344634399414062	-0.044292730712890624	3.54766845703125	-4.253387451171875	-2.124786376953125	
17	0.068	0.0	0.0	0.0	0.0	0.003	0.003	0.003	0.003	9.871293444824218	-0.11552023010253906	0.15981296081542967	2.674102783203125	-3.627777099609375	-0.820159912109375	9.785102185058593	0.4052186309814453	0.24121581726074218	0.31280517578125	-4.978179931640625	-2.78472900390625	10.011952792358398	0.054468087768554684	-0.052073886108398436	3.810882568359375	-4.7760009765625	-2.1209716796875	
18	0.07200000000000001	0.0	0.0	0.0	0.0	0.003	0.003	0.006	0.003	9.871891995239258	-0.1197100830078125	0.1610100616455078	2.529144287109375	-3.765106201171875	-0.92315673828125	9.783306533813477	0.40462008056640625	0.22685060729980466	0.286102294921875	-4.665374755859375	-2.79998779296875	10.01075569152832	0.047884033203124995	-0.044292730712890624	3.932952880859375	-4.61578369140625	-2.346038818359375	
19	0.076	0.0	0.0	0.0	0.0	0.003	0.006	0.003	0.006	9.872490545654296	-0.13766659545898435	0.1592144104003906	2.483367919921875	-3.5247802734375	-0.858306884765625	9.783905084228515	0.4004302276611328	0.24660277099609373	0.133514404296875	-4.8675537109375	-2.902984619140625	10.01075569152832	0.04189852905273437	-0.04668693237304687	3.543853759765625	-4.81414794921875	-2.239227294921875	
20	0.08	0.0	0.0	0.0	0.0	0.003	0.006	0.003	0.003	9.867103591918944	-0.14544775085449219	0.17896657409667968	2.651214599609375	-3.6773681640625	-0.888824462890625	9.78031378173828	0.3908534210205078	0.2561795776367187	0.31280517578125	-4.974365234375	-2.86865234375	10.006565838623047	0.030526071166992186	-0.040102877807617184	3.658294677734375	-4.49371337890625	-2.227783203125	
21	0.084	0.0	0.0	0.0	0.0	0.009000000000000001	0.003	0.006	0.006	9.860519537353515	-0.15502455749511718	0.1801636749267578	2.70843505859375	-3.726959228515625	-0.701904296875	9.785102185058593	0.37708676147460934	0.24959552307128904	0.37384033203125	-4.993438720703125	-2.87628173828125	10.011354241943359	0.028730419921875	-0.032920272827148434	3.60870361328125	-4.688262939453125	-2.197265625	
22	0.088	0.0	0.0	0.0	0.0	0.006	0.003	0.003	0.006	9.85692823486328	-0.16519991455078123	0.16998831787109375	2.49481201171875	-3.74603271484375	-1.079559326171875	9.779116680908203	0.36691140441894526	0.2454056701660156	0.274658203125	-5.115509033203125	-2.9754638671875	10.00955859069824	0.010175357055664061	-0.029328970336914062	3.77655029296875	-4.608154296875	-2.094268798828125	
23	0.092	0.0	0.0	0.0	0.0	0.006	0.006	0.003	0.003	9.868899243164062	-0.17298106994628906	0.16519991455078123	2.5482177734375	-3.688812255859375	-0.72479248046875	9.78031378173828	0.3585316986083984	0.2537853759765625	0.19073486328125	-4.69207763671875	-2.948760986328125	10.00955859069824	0.003591302490234375	-0.04189852905273437	3.597259521484375	-4.604339599609375	-2.03704833984375	
24	0.096	0.0	0.0	0.0	0.0	0.006	0.006	0.003	0.006	9.87727894897461	-0.17417817077636719	0.1562216583251953	2.651214599609375	-3.643035888671875	-0.823974609375	9.785102185058593	0.35015199279785153	0.2376245147705078	0.240325927734375	-4.878997802734375	-3.0364990234375	10.016142645263672	0.005985504150390624	-0.028730419921875	3.452301025390625	-4.665374755859375	-2.025604248046875	
25	0.1	0.0	0.0	0.0	0.0	0.006	0.006	0.003	0.006	9.871293444824218	-0.18315642700195311	0.13946224670410157	2.658843994140625	-3.543853759765625	-0.8087158203125	9.78629928588867	0.3441664886474609	0.2280477081298828	0.225067138671875	-4.95147705078125	-2.925872802734375	10.014945544433592	-0.00239420166015625	-0.0430956298828125	3.41033935546875	-4.669189453125	-2.2125244140625	
26	0.10400000000000001	0.0	0.0	0.0	0.0	0.006	0.003	0.006	0.003	9.867103591918944	-0.19153613281249998	0.12389993591308593	2.635955810546875	-3.688812255859375	-0.84686279296875	9.778518130493163	0.34715924072265625	0.21487959899902342	0.179290771484375	-4.703521728515625	-2.780914306640625	10.007164389038085	-0.004189852905273437	-0.040701428222656245	3.47137451171875	-4.60052490234375	-2.17437744140625	
27	0.108	0.0	0.0	0.0	0.0	0.006	0.003	0.003	0.006	9.867103591918944	-0.1927332336425781	0.11372457885742186	2.62451171875	-3.810882568359375	-0.782012939453125	9.766547122192382	0.3435679382324219	0.2136824981689453	0.457763671875	-5.001068115234375	-2.89154052734375	10.001777435302733	-0.008379705810546874	-0.062249243164062495	3.54766845703125	-4.505157470703125	-2.044677734375	
28	0.112	0.0	0.0	0.0	0.0	0.006	0.006	0.003	0.003	9.87069489440918	-0.1771709228515625	0.086191259765625	2.536773681640625	-3.6468505859375	-0.823974609375	9.777919580078125	0.3537432952880859	0.1849520782470703	0.232696533203125	-5.02777099609375	-2.7923583984375	10.026916552734374	-0.013168109130859374	-0.08499415893554688	3.711700439453125	-4.482269287109375	-1.97601318359375	
29	0.116	0.0	0.0	0.0	0.0	0.003	0.003	0.003	0.006	9.867702142333984	-0.17657237243652343	0.07841010437011718	2.67791748046875	-3.5400390625	-0.926971435546875	9.787496386718749	0.3573345977783203	0.17058686828613281	0.270843505859375	-4.924774169921875	-3.0059814453125	10.022128149414062	-0.003591302490234375	-0.10235212097167969	3.803253173828125	-4.5318603515625	-2.033233642578125	
30	0.12	0.0	0.0	0.0	0.0	0.003	0.006	0.003	0.006	9.867103591918944	-0.17956512451171874	0.05985504150390625	2.838134765625	-3.658294677734375	-0.812530517578125	9.78629928588867	0.36571430358886714	0.15562310791015624	0.644683837890625	-5.138397216796875	-2.95257568359375	10.008960040283203	0.010773907470703125	-0.1149216796875	3.692626953125	-4.66156005859375	-2.071380615234375	
31	0.124	0.0	0.0	0.0	0.0	0.006	0.003	0.003	0.006	9.86351228942871	-0.1580173095703125	0.028730419921875	2.7618408203125	-3.719329833984375	-0.80108642578125	9.785102185058593	0.3687070556640625	0.1322796417236328	0.29754638671875	-4.6844482421875	-2.96783447265625	10.018536846923828	0.027533319091796873	-0.15263035583496093	3.757476806640625	-4.497528076171875	-2.22015380859375	
32	0.128	0.0	0.0	0.0	0.0	0.006	0.003	0.003	0.003	9.861118087768554	-0.14963760375976562	0.017357962036132813	2.628326416015625	-3.66973876953125	-0.885009765625	9.783905084228515	0.38307226562499996	0.11851298217773437	0.400543212890625	-4.917144775390625	-2.994537353515625	10.014945544433592	0.03411737365722656	-0.17118541870117188	3.803253173828125	-4.772186279296875	-2.170562744140625	
33	0.132	0.0	0.0	0.0	0.0	0.009000000000000001	0.003	0.003	0.003	9.867702142333984	-0.13407529296874998	0.012569558715820313	2.7313232421875	-3.53240966796875	-0.988006591796875	9.783905084228515	0.39923312683105466	0.10295067138671875	0.507354736328125	-5.0506591796875	-2.872467041015625	10.014945544433592	0.04668693237304687	-0.19931728820800781	3.795623779296875	-4.5928955078125	-2.13623046875	
34	0.136	0.0	0.0	0.0	0.0	0.003	0.006	0.006	0.006	9.884461553955077	-0.11851298217773437	-0.00239420166015625	2.490997314453125	-3.51715087890625	-0.7171630859375	9.787496386718749	0.412401235961914	0.08738836059570312	0.423431396484375	-4.955291748046875	-2.910614013671875	10.020931048583984	0.055066638183593745	-0.21607669982910155	3.51715087890625	-4.657745361328125	-2.14385986328125	
35	0.14	0.0	0.0	0.0	0.0	0.0	0.003	0.003	0.006	9.87668039855957	-0.10773907470703124	-0.013766659545898436	2.62451171875	-3.635406494140625	-0.873565673828125	9.78629928588867	0.421978042602539	0.07122749938964844	0.40435791015625	-4.878997802734375	-2.826690673828125	10.020332498168944	0.06045359191894531	-0.22445640563964842	3.53240966796875	-4.76837158203125	-2.1209716796875	
36	0.14400000000000002	0.0	0.0	0.0	0.0	0.003	0.003	0.003	0.003	9.873687646484374	-0.10474632263183593	-0.010175357055664061	2.452850341796875	-3.467559814453125	-0.79345703125	9.777321029663085	0.44113165588378905	0.06584054565429687	0.255584716796875	-4.924774169921875	-3.082275390625	10.025719451904296	0.05686228942871093	-0.2214636535644531	3.59344482421875	-4.69207763671875	-2.185821533203125	
37	0.148	0.0	0.0	0.0	0.0	0.003	0.003	0.003	0.006	9.8694977935791	-0.09457096557617187	-0.017357962036132813	2.803802490234375	-3.79180908203125	-0.946044921875	9.779116680908203	0.4381389038085937	0.06105214233398437	0.530242919921875	-4.825592041015625	-3.0975341796875	10.022128149414062	0.06883329772949218	-0.24121581726074218	3.59344482421875	-4.76837158203125	-2.17437744140625	
38	0.152	0.0	0.0	0.0	0.0	0.006	0.006	0.003	0.003	9.872490545654296	-0.09277531433105468	-0.022146365356445312	2.40325927734375	-3.72314453125	-0.7476806640625	9.781510882568359	0.4513070129394531	0.05386953735351562	0.2593994140625	-5.14984130859375	-3.093719482421875	10.019135397338866	0.086191259765625	-0.23642741394042968	3.59344482421875	-4.383087158203125	-2.12860107421875	
39	0.156	0.0	0.0	0.0	0.0	0.006	0.006	0.006	0.003	9.885060104370117	-0.09696516723632811	-0.022146365356445312	2.559661865234375	-3.810882568359375	-0.762939453125	9.785700735473633	0.44592005920410155	0.06045359191894531	0.179290771484375	-5.168914794921875	-2.864837646484375	10.016142645263672	0.08439560852050781	-0.21727380065917967	3.448486328125	-4.608154296875	-2.017974853515625	
40	0.16	0.0	0.0	0.0	0.0	0.006	0.003	0.003	0.003	9.88266590270996	-0.0987608184814453	-0.02454056701660156	2.49481201171875	-3.398895263671875	-0.87738037109375	9.78629928588867	0.43514615173339843	0.08738836059570312	0.339508056640625	-5.126953125	-2.948760986328125	10.015544094848632	0.08259995727539061	-0.21188684692382811	3.47900390625	-4.627227783203125	-1.888275146484375	
41	0.164	0.0	0.0	0.0	0.0	0.003	0.006	0.003	0.006	9.879074600219726	-0.10175357055664062	0.0053869537353515625	2.5177001953125	-3.749847412109375	-0.789642333984375	9.787496386718749	0.44532150878906246	0.08319850769042968	0.274658203125	-4.7760009765625	-2.979278564453125	10.008960040283203	0.09516951599121093	-0.20290859069824219	3.681182861328125	-4.550933837890625	-2.13623046875	
42	0.168	0.0	0.0	0.0	0.0	0.003	0.003	0.003	0.006	9.872490545654296	-0.09995791931152344	0.013168109130859374	2.567291259765625	-3.612518310546875	-0.797271728515625	9.77432827758789	0.43514615173339843	0.11851298217773437	0.164031982421875	-4.611968994140625	-2.849578857421875	10.007164389038085	0.09636661682128905	-0.18255787658691405	3.337860107421875	-4.634857177734375	-2.02178955078125	
43	0.17200000000000001	0.0	0.0	0.0	0.0	0.003	0.006	0.006	0.003	9.875483297729492	-0.09516951599121093	0.013766659545898436	2.6702880859375	-3.490447998046875	-0.8087158203125	9.783905084228515	0.44053310546874996	0.1149216796875	0.255584716796875	-4.93621826171875	-2.742767333984375	10.007762939453125	0.07481880187988281	-0.15442600708007811	3.5858154296875	-4.444122314453125	-2.0904541015625	
44	0.176	0.0	0.0	0.0	0.0	0.003	0.006	0.003	0.003	9.880870251464843	-0.08918401184082031	0.029927520751953124	2.46429443359375	-3.62396240234375	-0.728607177734375	9.78031378173828	0.43574470214843747	0.12210428466796874	0.3509521484375	-4.985809326171875	-2.98309326171875	10.004770187377929	0.08140285644531249	-0.13347674255371092	3.566741943359375	-4.657745361328125	-2.1514892578125	
45	0.18	0.0	0.0	0.0	0.0	0.003	0.003	0.003	0.003	9.873687646484374	-0.09696516723632811	0.04548983154296875	2.529144287109375	-3.66973876953125	-0.7476806640625	9.788693487548828	0.4321533996582031	0.1514332550048828	0.484466552734375	-4.833221435546875	-2.742767333984375	10.001777435302733	0.07122749938964844	-0.1304839904785156	3.551483154296875	-4.4403076171875	-2.0904541015625	
46	0.184	0.0	0.0	0.0	0.0	0.003	0.006	0.003	0.003	9.868899243164062	-0.09457096557617187	0.06404489440917968	2.685546875	-3.658294677734375	-0.766754150390625	9.782707983398437	0.4291606475830078	0.15203180541992187	0.3662109375	-4.64630126953125	-3.040313720703125	10.018536846923828	0.07362170104980469	-0.1274912384033203	3.681182861328125	-4.638671875	-2.132415771484375	
47	0.188	0.0	0.0	0.0	0.0	0.003	0.006	0.003	0.006	9.875483297729492	-0.0939724151611328	0.07062894897460938	2.5177001953125	-3.4027099609375	-0.911712646484375	9.78629928588867	0.4273649963378906	0.17956512451171874	0.335693359375	-4.7760009765625	-3.032684326171875	10.007762939453125	0.06883329772949218	-0.11851298217773437	3.673553466796875	-4.680633544921875	-2.101898193359375	
48	0.192	0.0	0.0	0.0	0.0	0.006	0.003	0.003	0.006	9.85692823486328	-0.09516951599121093	0.07781155395507812	2.521514892578125	-3.742218017578125	-0.84686279296875	9.776722479248047	0.4291606475830078	0.18255787658691405	0.598907470703125	-5.07354736328125	-2.87628173828125	10.005967288208007	0.06763619689941405	-0.10893617553710937	3.814697265625	-4.703521728515625	-1.93023681640625	
49	0.196	0.0	0.0	0.0	0.0	0.006	0.003	0.006	0.003	9.87009634399414	-0.1005564697265625	0.11192892761230468	2.655029296875	-3.505706787109375	-0.80108642578125	9.783306533813477	0.42796354675292964	0.19333178405761717	0.301361083984375	-4.89044189453125	-2.8533935546875	10.005368737792969	0.06763619689941405	-0.09935936889648436	3.452301025390625	-4.611968994140625	-2.0904541015625	
50	0.2	0.0	0.0	0.0	0.0	0.006	0.006	0.003	0.006	9.866505041503906	-0.09457096557617187	0.10594342346191406	2.704620361328125	-3.509521484375	-0.84686279296875	9.785102185058593	0.42317514343261714	0.19572598571777342	0.316619873046875	-4.817962646484375	-2.9449462890625	10.019733947753906	0.07541735229492187	-0.1083376251220703	3.50189208984375	-4.375457763671875	-2.08282470703125	
51	0.20400000000000001	0.0	0.0	0.0	0.0	0.003	0.003	0.003	0.003	9.867702142333984	-0.0987608184814453	0.10654197387695312	2.58636474609375	-3.71551513671875	-0.87738037109375	9.78689783630371	0.421978042602539	0.19931728820800781	0.392913818359375	-4.82940673828125	-3.05938720703125	10.018536846923828	0.07781155395507812	-0.11192892761230468	3.72314453125	-4.428863525390625	-2.18963623046875	
52	0.20800000000000002	0.0	0.0	0.0	0.0	0.003	0.006	0.003	0.006	9.868899243164062	-0.10354922180175781	0.13287819213867186	2.75421142578125	-3.5858154296875	-0.81634521484375	9.77492682800293	0.42018239135742186	0.2136824981689453	0.762939453125	-4.863739013671875	-3.0364990234375	10.01075569152832	0.07003039855957031	-0.09636661682128905	3.84521484375	-4.390716552734375	-1.88446044921875	
53	0.212	0.0	0.0	0.0	0.0	0.006	0.003	0.003	0.006	9.87009634399414	-0.11552023010253906	0.13168109130859373	2.429962158203125	-3.734588623046875	-0.77056884765625	9.781510882568359	0.411802685546875	0.21308394775390624	-0.102996826171875	-4.5928955078125	-2.9449462890625	10.005368737792969	0.061650692749023434	-0.09576806640624999	3.658294677734375	-4.459381103515625	-2.29644775390625	
54	0.216	0.0	0.0	0.0	0.0	0.006	0.003	0.006	0.006	9.859920986938477	-0.1197100830078125	0.13587094421386717	2.5482177734375	-3.574371337890625	-0.957489013671875	9.784503634643555	0.4129997863769531	0.2166752502441406	0.25177001953125	-4.657745361328125	-3.0059814453125	9.999981784057617	0.05686228942871093	-0.09217676391601562	3.787994384765625	-4.791259765625	-2.25067138671875	
55	0.22	0.0	0.0	0.0	0.0	0.003	0.003	0.003	0.003	9.86291373901367	-0.12449848632812499	0.15023615417480468	2.628326416015625	-3.692626953125	-0.873565673828125	9.784503634643555	0.411802685546875	0.2136824981689453	0.244140625	-4.856109619140625	-2.76947021484375	10.020332498168944	0.05327098693847656	-0.0718260498046875	3.631591796875	-4.543304443359375	-2.197265625	
56	0.224	0.0	0.0	0.0	0.0	0.006	0.006	0.003	0.006	9.878476049804688	-0.12330138549804687	0.1484405029296875	2.391815185546875	-3.53240966796875	-0.820159912109375	9.785102185058593	0.3956418243408203	0.22206220397949217	0.26702880859375	-4.795074462890625	-2.9754638671875	10.018536846923828	0.03890577697753906	-0.0718260498046875	3.528594970703125	-4.81414794921875	-2.201080322265625	
57	0.228	0.0	0.0	0.0	0.0	0.006	0.003	0.006	0.006	9.879673150634765	-0.15083470458984374	0.1406593475341797	2.532958984375	-3.80706787109375	-0.804901123046875	9.782707983398437	0.3848679168701172	0.2316390106201172	0.629425048828125	-5.1116943359375	-3.15093994140625	10.015544094848632	0.028730419921875	-0.06643909606933593	3.66973876953125	-4.505157470703125	-2.31170654296875	
58	0.232	0.0	0.0	0.0	0.0	0.003	0.006	0.006	0.003	9.87009634399414	-0.1514332550048828	0.1388636962890625	2.6092529296875	-3.772735595703125	-0.885009765625	9.779116680908203	0.3842693664550781	0.23642741394042968	0.3662109375	-4.8370361328125	-2.742767333984375	10.01075569152832	0.025737667846679687	-0.05746083984375	3.536224365234375	-4.4708251953125	-2.101898193359375	
59	0.23600000000000002	0.0	0.0	0.0	0.0	0.003	0.003	0.006	0.003	9.8694977935791	-0.16639701538085935	0.12210428466796874	2.521514892578125	-3.66973876953125	-0.83160400390625	9.775525378417969	0.36750995483398435	0.22864625854492185	0.42724609375	-4.909515380859375	-3.032684326171875	10.011952792358398	0.023343466186523436	-0.0526724365234375	3.772735595703125	-4.55474853515625	-1.865386962890625	
60	0.24	0.0	0.0	0.0	0.0	0.006	0.003	0.003	0.003	9.871293444824218	-0.1657984649658203	0.11671733093261719	2.34222412109375	-3.383636474609375	-0.75531005859375	9.781510882568359	0.3687070556640625	0.2328361114501953	0.52642822265625	-5.062103271484375	-2.986907958984375	10.011354241943359	0.016759411621093748	-0.06404489440917968	3.68499755859375	-4.63104248046875	-2.239227294921875	
61	0.244	0.0	0.0	0.0	0.0	0.006	0.006	0.003	0.006	9.87009634399414	-0.16639701538085935	0.11671733093261719	2.5634765625	-3.337860107421875	-0.8087158203125	9.783905084228515	0.36691140441894526	0.21188684692382811	0.278472900390625	-4.894256591796875	-2.74658203125	10.008960040283203	0.0053869537353515625	-0.07242460021972656	3.643035888671875	-4.528045654296875	-1.865386962890625	
62	0.248	0.0	0.0	0.0	0.0	0.003	0.003	0.003	0.003	9.872490545654296	-0.17357962036132812	0.10773907470703124	2.50244140625	-3.47137451171875	-0.995635986328125	9.782109432983399	0.3705027069091797	0.19692308654785154	0.164031982421875	-4.8065185546875	-3.002166748046875	10.013748443603514	0.0053869537353515625	-0.07122749938964844	3.692626953125	-4.810333251953125	-2.09808349609375	
63	0.252	0.0	0.0	0.0	0.0	0.006	0.003	0.006	0.006	9.868899243164062	-0.16699556579589842	0.08978256225585937	2.712249755859375	-3.7384033203125	-1.094818115234375	9.782707983398437	0.36212300109863277	0.19632453613281248	0.3662109375	-5.001068115234375	-2.918243408203125	10.01075569152832	0.017956512451171875	-0.08379705810546874	3.631591796875	-4.863739013671875	-1.97601318359375	
64	0.256	0.0	0.0	0.0	0.0	0.003	0.003	0.003	0.003	9.8694977935791	-0.1640028137207031	0.08319850769042968	2.655029296875	-3.330230712890625	-0.858306884765625	9.781510882568359	0.3746925598144531	0.17956512451171874	0.537872314453125	-4.99725341796875	-3.017425537109375	10.013748443603514	0.018555062866210937	-0.11731588134765625	3.84521484375	-4.7149658203125	-2.162933349609375	
65	0.26	0.0	0.0	0.0	0.0	0.003	0.003	0.003	0.006	9.86411083984375	-0.1514332550048828	0.07721300354003906	2.887725830078125	-3.749847412109375	-0.835418701171875	9.785102185058593	0.37409400939941406	0.1693897674560547	0.49591064453125	-5.05828857421875	-3.070831298828125	10.011354241943359	0.017956512451171875	-0.1292868896484375	3.326416015625	-4.314422607421875	-1.865386962890625	
66	0.264	0.0	0.0	0.0	0.0	0.006	0.006	0.003	0.003	9.866505041503906	-0.15083470458984374	0.06584054565429687	2.84576416015625	-3.8299560546875	-0.980377197265625	9.78689783630371	0.3752911102294922	0.15263035583496093	0.469207763671875	-4.825592041015625	-2.92205810546875	10.014945544433592	0.027533319091796873	-0.14185644836425781	3.696441650390625	-4.711151123046875	-2.140045166015625	
67	0.268	0.0	0.0	0.0	0.0	0.006	0.006	0.003	0.003	9.87668039855957	-0.1406593475341797	0.055066638183593745	2.6397705078125	-3.7078857421875	-0.888824462890625	9.787496386718749	0.38187516479492184	0.12569558715820311	0.522613525390625	-4.6844482421875	-2.986907958984375	10.018536846923828	0.03531447448730469	-0.16699556579589842	3.662109375	-4.726409912109375	-2.166748046875	
68	0.272	0.0	0.0	0.0	0.0	0.003	0.003	0.003	0.006	9.871891995239258	-0.13826514587402344	0.051475335693359374	2.696990966796875	-3.574371337890625	-0.843048095703125	9.7928833404541	0.38845921936035155	0.11552023010253906	0.1373291015625	-4.67681884765625	-2.872467041015625	10.01075569152832	0.03232172241210937	-0.1897404815673828	3.6163330078125	-4.604339599609375	-2.048492431640625	
69	0.276	0.0	0.0	0.0	0.0	0.003	0.003	0.003	0.003	9.882067352294921	-0.1304839904785156	0.03232172241210937	2.70843505859375	-3.5552978515625	-0.972747802734375	9.78629928588867	0.3962403747558593	0.11252747802734374	0.507354736328125	-4.76837158203125	-2.86865234375	10.001178884887695	0.04189852905273437	-0.20350714111328125	3.5400390625	-4.795074462890625	-2.193450927734375	
70	0.28	0.0	0.0	0.0	0.0	0.006	0.003	0.003	0.003	9.866505041503906	-0.1292868896484375	0.02154781494140625	2.6702880859375	-3.452301025390625	-0.8087158203125	9.783905084228515	0.40761283264160153	0.11252747802734374	0.32806396484375	-4.978179931640625	-2.9449462890625	10.005368737792969	0.03890577697753906	-0.19931728820800781	3.6773681640625	-4.57000732421875	-2.13623046875	
71	0.28400000000000003	0.0	0.0	0.0	0.0	0.006	0.003	0.003	0.003	9.874884747314452	-0.1227028350830078	0.013766659545898436	2.6092529296875	-3.376007080078125	-0.858306884765625	9.783905084228515	0.4165910888671875	0.10714052429199218	0.476837158203125	-5.0811767578125	-2.948760986328125	10.007164389038085	0.04848258361816406	-0.19931728820800781	3.681182861328125	-4.64630126953125	-2.056121826171875	
72	0.28800000000000003	0.0	0.0	0.0	0.0	0.003	0.003	0.006	0.006	9.88386300354004	-0.12150573425292968	0.012569558715820313	2.628326416015625	-3.7078857421875	-0.972747802734375	9.776722479248047	0.41539398803710936	0.09935936889648436	0.507354736328125	-4.985809326171875	-3.124237060546875	10.01733974609375	0.05805939025878906	-0.21607669982910155	3.5552978515625	-4.61578369140625	-2.35748291015625	
73	0.292	0.0	0.0	0.0	0.0	0.003	0.003	0.003	0.006	9.88266590270996	-0.11911153259277343	0.013168109130859374	2.475738525390625	-3.62396240234375	-0.736236572265625	9.784503634643555	0.41419688720703124	0.09816226806640624	0.5035400390625	-5.001068115234375	-3.0364990234375	10.016142645263672	0.054468087768554684	-0.20649989318847656	3.719329833984375	-4.695892333984375	-2.223968505859375	
74	0.296	0.0	0.0	0.0	0.0	0.003	0.003	0.003	0.003	9.87608184814453	-0.12449848632812499	0.015562310791015624	2.468109130859375	-3.53240966796875	-0.782012939453125	9.784503634643555	0.4070142822265625	0.09457096557617187	-0.00762939453125	-4.791259765625	-2.87628173828125	10.011354241943359	0.059256491088867186	-0.201112939453125	3.612518310546875	-4.57000732421875	-2.117156982421875	
75	0.3	0.0	0.0	0.0	0.0	0.003	0.003	0.006	0.003	9.87009634399414	-0.11671733093261719	0.00718260498046875	2.620697021484375	-3.6468505859375	-0.7781982421875	9.782707983398437	0.42018239135742186	0.10295067138671875	0.3814697265625	-5.0811767578125	-2.849578857421875	10.006565838623047	0.04908113403320312	-0.20290859069824219	3.79180908203125	-4.730224609375	-2.12860107421875	
76	0.304	0.0	0.0	0.0	0.0	0.006	0.003	0.006	0.003	9.87009634399414	-0.12210428466796874	0.015562310791015624	2.674102783203125	-3.620147705078125	-0.80108642578125	9.78629928588867	0.4129997863769531	0.1083376251220703	0.3509521484375	-4.802703857421875	-2.8076171875	10.005368737792969	0.055066638183593745	-0.1927332336425781	3.47900390625	-4.6844482421875	-2.185821533203125	
77	0.308	0.0	0.0	0.0	0.0	0.003	0.003	0.006	0.006	9.87009634399414	-0.1149216796875	0.029328970336914062	2.643585205078125	-3.498077392578125	-0.732421875	9.784503634643555	0.40940848388671874	0.1149216796875	0.41961669921875	-4.7607421875	-2.979278564453125	10.01674119567871	0.054468087768554684	-0.18315642700195311	3.757476806640625	-4.73785400390625	-2.025604248046875	
78	0.312	0.0	0.0	0.0	0.0	0.003	0.006	0.003	0.006	9.871293444824218	-0.10235212097167969	0.02154781494140625	2.742767333984375	-3.45611572265625	-0.820159912109375	9.78031378173828	0.40462008056640625	0.12030863342285156	0.194549560546875	-4.596710205078125	-2.9754638671875	9.999383233642577	0.040701428222656245	-0.15203180541992187	3.60870361328125	-4.749298095703125	-2.105712890625	
79	0.316	0.0	0.0	0.0	0.0	0.006	0.003	0.006	0.006	9.873687646484374	-0.06943184814453125	0.034715924072265626	2.666473388671875	-3.56292724609375	-0.675201416015625	9.765350021362304	0.48542438659667964	0.1388636962890625	0.1220703125	-4.5928955078125	-2.716064453125	9.995193380737303	0.1304839904785156	-0.15083470458984374	3.42559814453125	-4.64630126953125	-1.995086669921875	
80	0.32	0.0	0.0	0.0	0.0	0.003	0.003	0.006	0.006	9.867702142333984	-0.1197100830078125	0.02693476867675781	2.51007080078125	-3.871917724609375	-0.823974609375	9.77492682800293	0.34656069030761716	0.12030863342285156	0.568389892578125	-5.1422119140625	-3.01361083984375	9.995791931152343	-0.047884033203124995	-0.16819266662597654	3.570556640625	-4.673004150390625	-1.895904541015625	
81	0.324	0.0	0.0	0.0	0.0	0.003	0.003	0.003	0.003	9.875483297729492	-0.08379705810546874	0.04548983154296875	2.89154052734375	-3.73077392578125	-0.949859619140625	9.777919580078125	0.4267664459228515	0.15263035583496093	0.484466552734375	-4.795074462890625	-3.154754638671875	10.000580334472655	0.08200140686035155	-0.1388636962890625	3.48663330078125	-4.405975341796875	-2.071380615234375	
82	0.328	0.0	0.0	0.0	0.0	0.003	0.006	0.006	0.003	9.880870251464843	-0.143652099609375	0.037110125732421874	2.3651123046875	-3.459930419921875	-0.728607177734375	9.759364517211914	0.4752490295410156	0.15322890625	0.308990478515625	-4.852294921875	-2.666473388671875	9.995193380737303	0.16759411621093748	-0.13587094421386717	3.662109375	-4.79888916015625	-2.06756591796875	
83	0.332	0.0	0.0	0.0	0.0	0.006	0.003	0.003	0.003	9.883264453125	-0.14544775085449219	0.08678981018066406	2.841949462890625	-3.398895263671875	-1.0986328125	9.776722479248047	0.3764882110595703	0.16519991455078123	0.42724609375	-4.98199462890625	-3.11279296875	9.976638317871092	0.0047884033203125	-0.12988544006347655	3.56292724609375	-4.642486572265625	-2.1820068359375	
84	0.336	0.0	0.0	0.0	0.0	0.003	0.003	0.003	0.006	9.888052856445311	-0.18255787658691405	0.06464344482421874	1.983642578125	-3.238677978515625	-0.81634521484375	9.787496386718749	0.43634325256347656	0.20470424194335937	0.52642822265625	-4.993438720703125	-3.047943115234375	9.993397729492187	0.09995791931152344	-0.09576806640624999	3.757476806640625	-4.64630126953125	-2.288818359375	
85	0.34	0.0	0.0	0.0	0.0	0.003	0.006	0.003	0.003	9.880870251464843	-0.1197100830078125	0.047884033203124995	2.452850341796875	-3.5400390625	-0.881195068359375	9.784503634643555	0.4537012145996093	0.18555062866210936	0.18310546875	-4.779815673828125	-3.1585693359375	10.079588989257813	0.04848258361816406	-0.21188684692382811	3.509521484375	-4.425048828125	-1.972198486328125	
86	0.34400000000000003	0.0	0.0	0.0	0.0	0.003	0.003	0.003	0.003	9.882067352294921	-0.19632453613281248	0.07362170104980469	1.956939697265625	-3.368377685546875	-0.728607177734375	9.764152920532226	0.39983167724609375	0.20829554443359374	0.087738037109375	-4.901885986328125	-2.635955810546875	9.957484704589843	0.07422025146484375	-0.07781155395507812	3.719329833984375	-4.566192626953125	-1.873016357421875	
87	0.34800000000000003	0.0	0.0	0.0	0.0	0.006	0.006	0.003	0.003	9.881468801879882	-0.1897404815673828	0.052073886108398436	2.094268798828125	-3.566741943359375	-0.896453857421875	9.78629928588867	0.39743747558593745	0.22086510314941404	0.78582763671875	-4.84466552734375	-3.01361083984375	10.092158547973632	-0.06464344482421874	-0.20350714111328125	3.60107421875	-4.703521728515625	-2.254486083984375	
88	0.352	0.0	0.0	0.0	0.0	0.003	0.006	0.003	0.003	9.905410818481444	-0.181959326171875	0.0796072052001953	2.086639404296875	-3.28826904296875	-0.995635986328125	9.789292037963866	0.4632780212402344	0.22266075439453123	0.217437744140625	-4.573822021484375	-2.826690673828125	9.97783541870117	0.1657984649658203	-0.054468087768554684	3.734588623046875	-4.604339599609375	-2.13623046875	
89	0.356	0.0	0.0	0.0	0.0	0.006	0.003	0.003	0.0	9.880870251464843	-0.21487959899902342	0.05087678527832031	2.315521240234375	-3.643035888671875	-0.812530517578125	9.834781869506836	0.2651578338623047	0.11073182678222655	0.40435791015625	-4.787445068359375	-2.62451171875	10.062829577636718	-0.076614453125	-0.2059013427734375	3.757476806640625	-4.730224609375	-2.0904541015625	
90	0.36	0.0	0.0	0.0	0.0	0.003	0.003	0.003	0.003	9.789890588378906	0.015562310791015624	0.25258827514648435	2.9144287109375	-3.757476806640625	-0.7476806640625	9.788693487548828	0.39983167724609375	0.22864625854492185	0.247955322265625	-5.001068115234375	-2.948760986328125	10.060435375976562	0.1657984649658203	-0.10893617553710937	3.711700439453125	-4.608154296875	-2.14385986328125	
91	0.364	0.0	0.0	0.0	0.0	0.006	0.006	0.006	0.006	9.90122096557617	-0.24001871643066405	0.029328970336914062	2.338409423828125	-3.0059814453125	-0.904083251953125	9.854534033203125	0.28371289672851563	0.1274912384033203	0.32806396484375	-5.039215087890625	-2.8533935546875	10.120290417480469	-0.05566518859863281	-0.19512743530273435	3.60107421875	-4.53948974609375	-2.353668212890625	
92	0.368	0.0	0.0	0.0	0.0	0.009000000000000001	0.003	0.006	0.003	9.791087689208984	0.032920272827148434	0.23642741394042968	2.704620361328125	-3.97491455078125	-0.6561279296875	9.733028298950195	0.556053335571289	0.2807201446533203	0.392913818359375	-4.47845458984375	-2.8228759765625	10.032902056884765	0.20051438903808594	-0.0987608184814453	3.421783447265625	-4.619598388671875	-1.956939697265625	
93	0.372	0.0	0.0	0.0	0.0	0.003	0.003	0.003	0.0	9.883264453125	-0.30705636291503907	0.0383072265625	2.101898193359375	-3.360748291015625	-0.774383544921875	9.859322436523437	0.19033903198242186	0.13347674255371092	0.32806396484375	-4.92095947265625	-2.99835205078125	10.058041174316406	-0.17058686828613281	-0.16759411621093748	3.60870361328125	-4.49371337890625	-2.13623046875	
94	0.376	0.0	0.0	0.0	0.0	0.003	0.003	0.003	0.003	9.795876092529296	0.014963760375976562	0.2346317626953125	2.81524658203125	-3.83758544921875	-0.5950927734375	9.752181912231444	0.5596446380615234	0.29867665710449215	0.20599365234375	-4.779815673828125	-2.72369384765625	10.091559997558592	0.2280477081298828	-0.08080430603027343	3.54766845703125	-4.825592041015625	-1.941680908203125	
95	0.38	0.0	0.0	0.0	0.0	0.0	0.006	0.003	0.003	9.91498762512207	-0.17597382202148437	0.11791443176269531	2.468109130859375	-3.292083740234375	-0.7781982421875	9.826402163696288	0.2807201446533203	0.15562310791015624	0.278472900390625	-5.069732666015625	-2.75421142578125	10.077194787597655	-0.13646949462890623	-0.1945288848876953	3.620147705078125	-4.45556640625	-2.048492431640625	
96	0.384	0.0	0.0	0.0	0.0	0.003	0.003	0.003	0.006	9.775525378417969	0.022744915771484374	0.23642741394042968	2.9144287109375	-3.650665283203125	-0.95367431640625	9.719261639404296	0.536899722290039	0.32142157287597656	0.217437744140625	-4.76837158203125	-2.69317626953125	9.945513696289062	0.16460136413574217	-0.040102877807617184	3.692626953125	-4.8828125	-2.117156982421875	
97	0.388	0.0	0.0	0.0	0.0	0.006	0.003	0.003	0.003	9.904812268066406	-0.19153613281249998	0.13287819213867186	2.6702880859375	-3.71551513671875	-1.224517822265625	9.843161575317382	0.23882161560058593	0.14784195251464843	0.278472900390625	-5.016326904296875	-2.99835205078125	10.10712230834961	-0.1879448303222656	-0.20051438903808594	3.757476806640625	-4.66156005859375	-2.147674560546875	
98	0.392	0.0	0.0	0.0	0.0	0.003	0.003	0.003	0.003	9.801861596679688	0.04908113403320312	0.15741875915527342	3.429412841796875	-4.055023193359375	-1.026153564453125	9.760561618041992	0.6159083770751953	0.2154781494140625	0.52642822265625	-4.89044189453125	-3.170013427734375	9.97125136413574	0.21487959899902342	-0.0718260498046875	3.742218017578125	-4.474639892578125	-2.094268798828125	
99	0.396	0.0	0.0	0.0	0.0	0.003	0.006	0.003	0.003	9.898228213500976	-0.1657984649658203	0.12389993591308593	2.849578857421875	-3.612518310546875	-0.621795654296875	9.819219558715819	0.21787235107421873	0.12808978881835936	0.278472900390625	-5.0048828125	-2.6702880859375	10.070610733032225	-0.23104046020507812	-0.23044190979003906	3.643035888671875	-4.4708251953125	-2.02178955078125	
100	0.4	0.0	0.0	0.0	0.0	0.003	0.003	0.003	0.006	9.851541281127929	0.02454056701660156	0.017956512451171875	3.292083740234375	-3.631591796875	-0.78582763671875	9.769539874267577	0.5925649108886718	0.20530279235839843	0.453948974609375	-4.84466552734375	-3.3416748046875	9.974244116210937	0.19931728820800781	-0.07541735229492187	3.528594970703125	-4.474639892578125	-2.040863037109375	
101	0.404	0.0	0.0	0.0	0.0	0.003	0.006	0.003	0.006	9.909600671386718	-0.1197100830078125	0.10474632263183593	2.811431884765625	-3.936767578125	-0.63323974609375	9.745597857666015	0.412401235961914	0.14724340209960937	0.591278076171875	-4.970550537109375	-2.84576416015625	9.950302099609374	-0.007781155395507812	-0.14484920043945312	3.70025634765625	-4.7760009765625	-1.9073486328125	
102	0.40800000000000003	0.0	0.0	0.0	0.0	0.009000000000000001	0.003	0.003	0.003	9.853336932373047	0.047884033203124995	-0.013168109130859374	3.24249267578125	-4.001617431640625	-1.09100341796875	9.753977563476562	0.612915625	0.19393033447265623	0.6256103515625	-4.734039306640625	-3.047943115234375	9.948506448364258	0.22445640563964842	-0.09816226806640624	3.650665283203125	-4.711151123046875	-2.3193359375	
103	0.41200000000000003	0.0	0.0	0.0	0.0	0.006	0.006	0.006	0.006	9.852139831542969	-0.012569558715820313	0.002992752075195312	2.98309326171875	-4.09698486328125	-0.732421875	9.721655841064452	0.4034229797363281	0.14305354919433594	0.217437744140625	-5.1422119140625	-2.780914306640625	9.94072529296875	-0.022744915771484374	-0.1514332550048828	3.53240966796875	-4.695892333984375	-1.7547607421875	
104	0.41600000000000004	0.0	0.0	0.0	0.0	0.003	0.006	0.003	0.003	9.882067352294921	0.023343466186523436	-0.04369418029785156	3.5552978515625	-4.2572021484375	-1.2054443359375	9.784503634643555	0.3764882110595703	0.13407529296874998	0.156402587890625	-4.669189453125	-3.154754638671875	9.93354268798828	0.05985504150390625	-0.12449848632812499	3.719329833984375	-4.634857177734375	-2.605438232421875	
105	0.42	0.0	0.0	0.0	0.0	0.003	0.006	0.006	0.009000000000000001	9.858125335693359	-0.007781155395507812	-0.03890577697753906	3.032684326171875	-3.925323486328125	-0.850677490234375	9.715670336914062	0.41838674011230464	0.08499415893554688	0.270843505859375	-4.924774169921875	-2.925872802734375	9.919776028442381	-0.0017956512451171875	-0.19931728820800781	3.71551513671875	-4.64630126953125	-1.922607421875	
106	0.424	0.0	0.0	0.0	0.0	0.009000000000000001	0.003	0.003	0.006	9.885658654785155	0.04369418029785156	-0.052073886108398436	3.814697265625	-4.28009033203125	-1.125335693359375	9.759963067626952	0.421978042602539	0.13587094421386717	0.06103515625	-4.82177734375	-3.292083740234375	9.903615167236328	0.10893617553710937	-0.1083376251220703	3.70025634765625	-4.238128662109375	-2.620697021484375	
107	0.428	0.0	0.0	0.0	0.0	0.006	0.003	0.006	0.003	9.85752678527832	-0.047285482788085934	-0.059256491088867186	3.070831298828125	-4.352569580078125	-1.010894775390625	9.732429748535155	0.3794809631347656	0.07242460021972656	0.431060791015625	-5.22613525390625	-2.73895263671875	9.93354268798828	0.18375497741699218	-0.009576806640625	3.643035888671875	-4.58526611328125	-1.70135498046875	
108	0.432	0.0	0.0	0.0	0.0	0.003	0.003	0.003	0.003	9.847351428222655	-0.34237083740234375	0.10474632263183593	2.777099609375	-3.62396240234375	-0.885009765625	9.7683427734375	0.42975919799804685	0.11252747802734374	0.1678466796875	-4.772186279296875	-3.39508056640625	9.900023864746093	0.06344634399414062	-0.11791443176269531	3.7994384765625	-4.2877197265625	-2.57110595703125	
109	0.436	0.0	0.0	0.0	0.0	0.006	0.003	0.003	0.0	9.862315188598632	-0.06823474731445311	-0.06404489440917968	2.79998779296875	-4.138946533203125	-0.995635986328125	9.731831198120117	0.5488707305908203	0.1466448516845703	0.1220703125	-5.229949951171875	-2.6092529296875	9.913191973876952	0.239420166015625	-0.0005985504150390625	3.551483154296875	-4.364013671875	-1.88446044921875	
110	0.44	0.0	0.0	0.0	0.0	0.003	0.003	0.006	0.009000000000000001	9.811438403320311	-0.36631285400390623	0.12689268798828124	2.70843505859375	-3.635406494140625	-0.881195068359375	9.763554370117188	0.4429273071289062	0.1083376251220703	0.51116943359375	-4.955291748046875	-3.215789794921875	9.897031112670899	0.06045359191894531	-0.10474632263183593	3.77655029296875	-4.61578369140625	-2.262115478515625	
111	0.444	0.0	0.0	0.0	0.0	0.003	0.003	0.006	0.006	9.885060104370117	-0.1580173095703125	-0.10594342346191406	1.01470947265625	-2.38037109375	-0.6103515625	9.753977563476562	0.5195417602539062	0.13587094421386717	-0.133514404296875	-4.81414794921875	-2.69317626953125	9.934739788818359	0.2059013427734375	-0.0047884033203125	3.74603271484375	-4.58526611328125	-1.97601318359375	
112	0.448	0.0	0.0	0.0	0.0	0.006	0.006	0.003	0.006	9.79946739501953	-0.37828386230468747	0.14724340209960937	2.338409423828125	-3.322601318359375	-1.18255615234375	9.87668039855957	0.1879448303222656	0.022744915771484374	0.34332275390625	-5.046844482421875	-3.093719482421875	10.230423693847655	-0.2555810272216797	-0.43035774841308594	3.772735595703125	-4.489898681640625	-2.155303955078125	
113	0.452	0.0	0.0	0.0	0.0	0.006	0.003	0.006	0.0	9.795277542114258	-0.22086510314941404	0.27832594299316404	0.751495361328125	-2.54058837890625	-0.32806396484375	9.735422500610351	0.5285200164794922	0.14963760375976562	0.362396240234375	-5.08880615234375	-2.658843994140625	9.907206469726562	0.21308394775390624	0.022146365356445312	3.444671630859375	-4.421234130859375	-1.811981201171875	
114	0.456	0.0	0.0	0.0	0.0	0.006	0.003	0.003	0.003	9.79348189086914	-0.4070142822265625	0.14484920043945312	2.40325927734375	-2.918243408203125	-0.942230224609375	9.898826763916015	0.19393033447265623	0.01915361328125	0.40435791015625	-4.978179931640625	-3.19671630859375	10.255562811279296	-0.29269115295410153	-0.4560954162597656	3.841400146484375	-4.5013427734375	-2.285003662109375	
115	0.46	0.0	0.0	0.0	0.0	0.009000000000000001	0.006	0.003	0.003	9.797073193359374	-0.1562216583251953	0.29927520751953124	0.90789794921875	-2.468109130859375	-0.60272216796875	9.742605105590819	0.5740098480224609	0.30705636291503907	0.37384033203125	-4.863739013671875	-2.819061279296875	10.13226142578125	0.3381809844970703	-0.19871873779296872	3.63922119140625	-4.642486572265625	-1.9378662109375	
116	0.464	0.0	0.0	0.0	0.0	0.003	0.003	0.006	0.006	9.958681805419921	-0.5039794494628906	-0.12569558715820311	-0.041961669921875	-1.88446044921875	-0.518798828125	9.87069489440918	0.181959326171875	0.04548983154296875	0.339508056640625	-4.825592041015625	-3.147125244140625	10.242993252563476	-0.31543606872558594	-0.4525041137695312	3.62396240234375	-4.383087158203125	-2.35748291015625	
117	0.468	0.0	0.0	0.0	0.0	0.006	0.003	0.003	0.003	9.76116016845703	-0.08738836059570312	0.354940396118164	0.881195068359375	-2.292633056640625	-0.7171630859375	9.747393508911133	0.5805939025878906	0.30466216125488277	0.415802001953125	-5.0048828125	-2.84576416015625	10.122684619140625	0.3603273498535156	-0.1975216369628906	3.62396240234375	-4.665374755859375	-1.97601318359375	
118	0.47200000000000003	0.0	0.0	0.0	0.0	0.006	0.006	0.003	0.006	9.974244116210937	-0.4483142608642578	-0.11372457885742186	0.019073486328125	-1.705169677734375	-0.591278076171875	9.932345587158203	-0.006584054565429687	-0.005985504150390624	0.553131103515625	-4.772186279296875	-2.689361572265625	10.06223102722168	-0.26216508178710934	-0.28311434631347654	3.376007080078125	-4.611968994140625	-1.964569091796875	
119	0.47600000000000003	0.0	0.0	0.0	0.0	0.006	0.003	0.003	0.003	9.732429748535155	-0.04189852905273437	0.4004302276611328	1.068115234375	-2.38800048828125	-0.5340576171875	9.745597857666015	0.55545478515625	0.30047230834960936	0.09918212890625	-4.75311279296875	-2.92205810546875	10.108917959594725	0.3429693878173828	-0.1867477294921875	3.73077392578125	-4.901885986328125	-1.89971923828125	
120	0.48	0.0	0.0	0.0	0.0	0.003	0.003	0.003	0.006	9.96047745666504	-0.44113165588378905	-0.06584054565429687	0.118255615234375	-1.811981201171875	-0.522613525390625	9.92755718383789	-0.06105214233398437	0.001197100830078125	0.4119873046875	-4.8370361328125	-2.78472900390625	10.04247886352539	-0.30346506042480464	-0.2555810272216797	3.6163330078125	-4.7149658203125	-2.048492431640625	
121	0.484	0.0	0.0	0.0	0.0	0.006	0.006	0.003	0.003	10.007762939453125	0.14484920043945312	-0.1149216796875	3.704071044921875	-4.21905517578125	-1.03759765625	9.698910925292969	0.63206923828125	0.30526071166992186	0.705718994140625	-4.81414794921875	-2.93731689453125	10.251971508789062	0.3363853332519531	-0.09935936889648436	3.520965576171875	-4.657745361328125	-2.3040771484375	
122	0.488	0.0	0.0	0.0	0.0	0.003	0.006	0.003	0.003	9.950302099609374	-0.3764882110595703	-0.0143652099609375	0.19073486328125	-1.972198486328125	-0.61798095703125	9.947907897949218	-0.08858546142578125	0.00239420166015625	0.583648681640625	-5.0811767578125	-2.76947021484375	10.046668716430663	-0.26815058593749996	-0.25737667846679685	3.505706787109375	-4.581451416015625	-1.850128173828125	
123	0.492	0.0	0.0	0.0	0.0	0.003	0.006	0.003	0.003	10.019135397338866	0.11911153259277343	-0.10235212097167969	3.53240966796875	-4.154205322265625	-1.041412353515625	9.683348614501952	0.5680243438720702	0.3441664886474609	0.37384033203125	-4.8065185546875	-2.933502197265625	9.928155734252929	0.29568390502929687	-0.07242460021972656	3.498077392578125	-4.619598388671875	-2.349853515625	
124	0.496	0.0	0.0	0.0	0.0	0.006	0.006	0.006	0.006	9.947907897949218	-0.30705636291503907	0.023343466186523436	5.42449951171875	-5.5084228515625	-0.77056884765625	9.739013803100585	0.29089550170898437	0.14484920043945312	0.354766845703125	-5.092620849609375	-2.7008056640625	10.062829577636718	-0.25318682556152344	-0.2597708801269531	3.74603271484375	-5.0201416015625	-1.96075439453125	
125	0.5	0.0	0.0	0.0	0.0	0.006	0.003	0.003	0.003	10.036493359375	0.17298106994628906	-0.12689268798828124	3.604888916015625	-4.0740966796875	-0.9307861328125	9.674968908691406	0.622492431640625	0.3459621398925781	0.415802001953125	-4.833221435546875	-2.948760986328125	9.919177478027343	0.43574470214843747	-0.06284779357910156	3.391265869140625	-4.66156005859375	-2.2430419921875	
126	0.504	0.0	0.0	0.0	0.0	0.003	0.006	0.006	0.003	9.85692823486328	0.16819266662597654	0.09576806640624999	5.268096923828125	-5.3558349609375	-0.736236572265625	9.746794958496093	0.1592144104003906	0.1657984649658203	0.0457763671875	-4.75311279296875	-2.498626708984375	9.917381826782226	-0.07422025146484375	-0.12150573425292968	3.82232666015625	-4.924774169921875	-1.91497802734375	
127	0.508	0.0	0.0	0.0	0.0	0.003	0.003	0.006	0.003	10.038887561035155	0.15203180541992187	-0.11791443176269531	4.001617431640625	-4.306793212890625	-1.09100341796875	9.696516723632811	0.5722141967773438	0.36571430358886714	0.629425048828125	-4.89044189453125	-3.63922119140625	9.942520944213866	0.38367081604003905	-0.04967968444824218	3.437042236328125	-4.657745361328125	-2.346038818359375	
128	0.512	0.0	0.0	0.0	0.0	0.003	0.003	0.006	0.003	9.868300692749022	0.21128829650878905	0.0652419952392578	5.18798828125	-5.489349365234375	-0.591278076171875	9.759963067626952	0.19692308654785154	0.16519991455078123	0.446319580078125	-5.096435546875	-2.536773681640625	9.937133990478515	0.007781155395507812	-0.12150573425292968	3.383636474609375	-4.657745361328125	-1.77001953125	
129	0.516	0.0	0.0	0.0	0.0	0.006	0.006	0.003	0.003	9.83897172241211	-0.03950432739257812	0.2214636535644531	5.405426025390625	-5.33294677734375	-1.132965087890625	9.673173257446289	0.623090982055664	0.22744915771484372	0.263214111328125	-4.5928955078125	-3.2806396484375	9.834781869506836	0.04908113403320312	0.076614453125	3.63922119140625	-4.100799560546875	-2.643585205078125	
130	0.52	0.0	0.0	0.0	0.0	0.0	0.003	0.003	0.009000000000000001	9.880870251464843	0.0796072052001953	0.04548983154296875	4.924774169921875	-5.329132080078125	-0.67138671875	9.790489138793944	0.009576806640625	0.17058686828613281	0.17547607421875	-4.810333251953125	-2.750396728515625	9.958083255004881	-0.11851298217773437	-0.13347674255371092	3.57818603515625	-4.93621826171875	-1.995086669921875	
131	0.524	0.0	0.0	0.0	0.0	0.006	0.003	0.003	0.003	9.87608184814453	-0.04129997863769531	0.19153613281249998	5.596160888671875	-5.3253173828125	-1.15966796875	9.696516723632811	0.6338648895263671	0.22206220397949217	0.537872314453125	-4.70733642578125	-3.582000732421875	9.866505041503906	0.040701428222656245	0.086191259765625	3.68499755859375	-4.322052001953125	-2.8076171875	
132	0.528	0.0	0.0	0.0	0.0	0.006	0.003	0.006	0.009000000000000001	9.877877499389648	0.1657984649658203	-0.0053869537353515625	4.69207763671875	-5.2032470703125	-0.606536865234375	9.715670336914062	0.6769605194091797	0.17896657409667968	0.614166259765625	-5.19561767578125	-2.498626708984375	9.879074600219726	0.20290859069824219	0.19812018737792966	3.543853759765625	-4.703521728515625	-1.6632080078125	
133	0.532	0.0	0.0	0.0	0.0	0.003	0.003	0.006	0.006	9.867702142333984	-0.0939724151611328	0.20470424194335937	5.5694580078125	-5.710601806640625	-1.38092041015625	9.687538467407226	0.5871779571533203	0.21487959899902342	0.751495361328125	-4.69207763671875	-3.582000732421875	9.843161575317382	0.04369418029785156	0.06823474731445311	3.84521484375	-4.35638427734375	-2.918243408203125	
134	0.536	0.0	0.0	0.0	0.0	0.006	0.003	0.006	0.003	9.884461553955077	-0.3268085266113281	0.1304839904785156	1.857757568359375	-3.307342529296875	-0.827789306640625	9.739612353515625	0.5991489654541016	0.16460136413574217	0.457763671875	-5.146026611328125	-2.25830078125	9.911994873046874	0.11731588134765625	0.19931728820800781	3.482818603515625	-4.57763671875	-1.6326904296875	
135	0.54	0.0	0.0	0.0	0.0	0.003	0.003	0.003	0.006	9.900023864746093	-0.1149216796875	0.19213468322753904	5.535125732421875	-5.37872314453125	-1.102447509765625	9.849147079467773	0.44532150878906246	0.12210428466796874	0.6256103515625	-4.718780517578125	-3.437042236328125	9.855731134033203	0.06943184814453125	0.0005985504150390625	3.513336181640625	-4.28009033203125	-2.70843505859375	
136	0.544	0.0	0.0	0.0	0.0	0.009000000000000001	0.006	0.003	0.003	9.867702142333984	-0.2549824768066406	0.1801636749267578	1.865386962890625	-3.33404541015625	-0.789642333984375	9.724050042724608	0.6057330200195312	0.11133037719726561	0.6561279296875	-5.1422119140625	-2.498626708984375	9.89523546142578	0.16519991455078123	0.16819266662597654	3.475189208984375	-4.497528076171875	-1.77764892578125	
137	0.548	0.0	0.0	0.0	0.0	0.0	0.003	0.003	0.006	9.887454306030273	-0.17477672119140625	0.22505495605468748	0.396728515625	-1.97601318359375	-1.148223876953125	9.854534033203125	0.42497079467773435	0.14245499877929688	0.5645751953125	-4.665374755859375	-3.5552978515625	10.230423693847655	-0.5285200164794922	-0.2885013000488281	3.437042236328125	-4.12750244140625	-2.1209716796875	
138	0.552	0.0	0.0	0.0	0.0	0.003	0.003	0.006	0.006	9.871293444824218	-0.2855085479736328	0.1867477294921875	1.7242431640625	-3.509521484375	-0.682830810546875	9.781510882568359	0.8014590057373047	0.3920505218505859	-0.030517578125	-5.214691162109375	-2.84576416015625	9.94012674255371	0.1514332550048828	0.0909796630859375	3.711700439453125	-4.871368408203125	-1.712799072265625	
139	0.556	0.0	0.0	0.0	0.0	0.003	0.003	0.003	0.003	9.843760125732421	-0.6572083557128906	-0.09157821350097656	-0.270843505859375	-1.68609619140625	-1.04522705078125	9.853935482788085	0.45669396667480466	0.1304839904785156	0.457763671875	-5.069732666015625	-3.559112548828125	10.203488925170898	-0.43933600463867184	-0.32022447204589843	3.265380859375	-4.2266845703125	-2.105712890625	
140	0.56	0.0	0.0	0.0	0.0	0.0	0.006	0.003	0.003	9.843760125732421	-0.21128829650878905	0.26216508178710934	1.621246337890625	-2.864837646484375	-0.637054443359375	9.771934075927733	0.5339069702148437	0.421978042602539	0.1220703125	-5.130767822265625	-2.62451171875	10.09993970336914	0.4285620971679687	-0.1562216583251953	3.589630126953125	-4.489898681640625	-1.62506103515625	
141	0.5640000000000001	0.0	0.0	0.0	0.0	0.003	0.003	0.003	0.003	9.858723886108399	-0.6955155822753906	-0.12689268798828124	-0.8087158203125	-1.354217529296875	-1.02996826171875	9.944915145874022	0.37229835815429685	-0.06943184814453125	0.63323974609375	-4.81414794921875	-3.147125244140625	10.263343966674803	-0.5404910247802734	-0.37229835815429685	3.559112548828125	-4.421234130859375	-2.2735595703125	
142	0.5680000000000001	0.0	0.0	0.0	0.0	0.003	0.003	0.006	0.003	9.753977563476562	0.14963760375976562	0.229843359375	1.338958740234375	-2.658843994140625	-0.682830810546875	9.816226806640625	0.16759411621093748	0.3459621398925781	-0.026702880859375	-4.772186279296875	-2.643585205078125	10.11909331665039	0.4333505004882812	-0.17776947326660156	3.528594970703125	-4.467010498046875	-2.132415771484375	
143	0.5720000000000001	0.0	0.0	0.0	0.0	0.003	0.003	0.003	0.006	9.835978970336914	-0.679953271484375	-0.13347674255371092	-1.220703125	-1.04522705078125	-0.9918212890625	9.897031112670899	0.7038952880859375	-0.07841010437011718	0.9307861328125	-4.772186279296875	-2.971649169921875	10.064625228881836	-0.23882161560058593	-0.30406361083984373	3.7384033203125	-4.825592041015625	-2.15911865234375	
144	0.5760000000000001	0.0	0.0	0.0	0.0	0.006	0.003	0.003	0.006	9.752780462646484	0.1466448516845703	0.18555062866210936	1.36566162109375	-2.50244140625	-0.675201416015625	9.680355862426758	0.2759317413330078	0.38367081604003905	-0.011444091796875	-4.871368408203125	-2.67791748046875	10.1131078125	0.39983167724609375	-0.1771709228515625	3.505706787109375	-4.67681884765625	-1.804351806640625	
145	0.58	0.0	0.0	0.0	0.0	0.006	0.006	0.003	0.003	9.868899243164062	-0.4752490295410156	-0.1610100616455078	-1.171112060546875	-1.15966796875	-0.9613037109375	9.937133990478515	0.7835024932861328	-0.17477672119140625	0.90789794921875	-4.57763671875	-2.838134765625	10.12507882080078	-0.26815058593749996	-0.35015199279785153	3.627777099609375	-4.60052490234375	-1.926422119140625	
146	0.584	0.0	0.0	0.0	0.0	0.003	0.003	0.006	0.003	9.779116680908203	-0.062249243164062495	0.10115502014160156	0.835418701171875	-2.307891845703125	-0.091552734375	9.676764559936522	0.19692308654785154	0.36272155151367186	-0.255584716796875	-5.1422119140625	-2.7618408203125	10.108917959594725	0.3447650390625	-0.201112939453125	3.482818603515625	-4.726409912109375	-2.178192138671875	
147	0.588	0.0	0.0	0.0	0.0	0.003	0.003	0.003	0.006	9.91498762512207	0.5680243438720702	0.15083470458984374	4.76837158203125	-4.802703857421875	-1.125335693359375	9.913191973876952	0.651821401977539	-0.13766659545898435	0.652313232421875	-5.27191162109375	-3.047943115234375	10.108917959594725	-0.15741875915527342	-0.3507505432128906	3.627777099609375	-4.611968994140625	-1.895904541015625	
148	0.592	0.0	0.0	0.0	0.0	0.003	0.006	0.006	0.003	9.789890588378906	0.37289690856933594	0.06344634399414062	4.390716552734375	-4.451751708984375	-1.5106201171875	9.679757312011718	0.3298012786865234	0.3447650390625	-0.019073486328125	-4.833221435546875	-2.99072265625	9.929352835083007	0.10474632263183593	-0.1753752716064453	3.665924072265625	-4.84466552734375	-2.32696533203125	
149	0.596	0.0	0.0	0.0	0.0	0.006	0.003	0.006	0.003	9.855731134033203	-0.28371289672851563	0.1945288848876953	1.209259033203125	-2.777099609375	-0.80108642578125	9.822212310791015	0.489015689086914	0.07900865478515624	0.29754638671875	-4.848480224609375	-3.01361083984375	10.105326657104492	-0.11671733093261719	-0.38367081604003905	3.734588623046875	-4.741668701171875	-1.739501953125	
150	0.6	0.0	0.0	0.0	0.0	0.003	0.003	0.006	0.006	9.750984811401366	-0.26216508178710934	0.07422025146484375	3.482818603515625	-4.0283203125	-0.63323974609375	9.647435589599608	0.43514615173339843	0.3477577911376953	0.331878662109375	-4.756927490234375	-2.872467041015625	9.893439810180663	0.017956512451171875	-0.17238251953125	3.711700439453125	-4.856109619140625	-2.44903564453125	
151	0.604	0.0	0.0	0.0	0.0	0.003	0.003	0.003	0.003	9.947907897949218	0.42377369384765623	0.051475335693359374	2.635955810546875	-3.536224365234375	-0.499725341796875	9.85692823486328	0.3764882110595703	0.037110125732421874	0.843048095703125	-4.85992431640625	-2.849578857421875	9.897629663085937	0.17298106994628906	-0.16879121704101563	3.673553466796875	-4.8828125	-1.922607421875	
152	0.608	0.0	0.0	0.0	0.0	0.003	0.003	0.003	0.003	9.861716638183593	-0.10235212097167969	0.03591302490234375	5.977630615234375	-5.657196044921875	-1.361846923828125	9.677363110351562	0.3603273498535156	0.18435352783203124	0.461578369140625	-4.550933837890625	-3.078460693359375	9.919776028442381	-0.047884033203124995	-0.17417817077636719	3.692626953125	-4.486083984375	-2.3651123046875	
153	0.612	0.0	0.0	0.0	0.0	0.006	0.003	0.006	0.003	9.889848507690429	0.0143652099609375	0.10714052429199218	3.24249267578125	-3.948211669921875	-1.03759765625	9.85632968444824	0.34715924072265625	0.030526071166992186	0.335693359375	-4.6539306640625	-2.7923583984375	9.907206469726562	0.18614917907714842	-0.1580173095703125	3.44085693359375	-4.81414794921875	-1.720428466796875	
154	0.616	0.0	0.0	0.0	0.0	0.003	0.003	0.006	0.003	9.830592016601562	-0.33039982910156246	0.07841010437011718	3.261566162109375	-3.940582275390625	-0.568389892578125	9.665392102050781	0.4213794921875	0.18555062866210936	-0.030517578125	-4.467010498046875	-3.101348876953125	9.828197814941406	-0.21607669982910155	-0.017956512451171875	3.70025634765625	-4.451751708984375	-2.3040771484375	
155	0.62	0.0	0.0	0.0	0.0	0.003	0.003	0.003	0.006	9.976039767456054	-0.0652419952392578	-0.24660277099609373	3.879547119140625	-4.756927490234375	-1.12152099609375	9.785102185058593	0.24181436767578124	-0.0017956512451171875	0.766754150390625	-5.31005859375	-2.925872802734375	9.945513696289062	0.2136824981689453	-0.16998831787109375	3.7078857421875	-5.16510009765625	-2.025604248046875	
156	0.624	0.0	0.0	0.0	0.0	0.003	0.003	0.006	0.003	9.85692823486328	0.08678981018066406	0.1149216796875	5.4473876953125	-5.367279052734375	-0.9613037109375	9.661800799560547	0.34835634155273437	0.21787235107421873	0.484466552734375	-5.107879638671875	-3.265380859375	9.900023864746093	-0.24061726684570311	-0.047285482788085934	3.80706787109375	-4.489898681640625	-2.285003662109375	
157	0.628	0.0	0.0	0.0	0.0	0.006	0.003	0.003	0.006	9.925162982177733	-0.33399113159179683	-0.11252747802734374	4.34112548828125	-4.98199462890625	-1.1444091796875	9.733626849365233	0.37828386230468747	-0.022146365356445312	0.64849853515625	-5.451202392578125	-3.009796142578125	9.883264453125	0.2885013000488281	-0.14604630126953125	3.765106201171875	-4.665374755859375	-2.223968505859375	
158	0.632	0.0	0.0	0.0	0.0	0.003	0.003	0.006	0.006	9.813832604980469	-0.19991583862304688	0.16220716247558592	4.940032958984375	-5.023956298828125	-0.8544921875	9.816825357055663	0.3758896606445312	0.13946224670410157	0.347137451171875	-4.6539306640625	-2.758026123046875	9.917381826782226	-0.23642741394042968	-0.1370680450439453	3.37982177734375	-4.41741943359375	-2.086639404296875	
159	0.636	0.0	0.0	0.0	0.0	0.006	0.003	0.003	0.006	9.9461122467041	-0.2813186950683594	-0.08738836059570312	3.45611572265625	-4.467010498046875	-0.820159912109375	9.77432827758789	0.37289690856933594	-0.02154781494140625	0.423431396484375	-4.970550537109375	-2.90679931640625	10.020931048583984	0.2184709014892578	0.028131869506835935	3.77655029296875	-4.60052490234375	-2.2735595703125	
160	0.64	0.0	0.0	0.0	0.0	0.003	0.006	0.006	0.003	9.910199221801758	-0.3178302703857422	-0.1083376251220703	2.552032470703125	-3.37982177734375	-0.9918212890625	9.810241302490233	0.3573345977783203	0.09696516723632811	0.675201416015625	-4.886627197265625	-2.95257568359375	9.885060104370117	-0.20949264526367187	-0.1352723937988281	3.818511962890625	-4.3792724609375	-2.147674560546875	
161	0.644	0.0	0.0	0.0	0.0	0.003	0.003	0.003	0.003	9.904812268066406	-0.23104046020507812	0.03531447448730469	4.47845458984375	-5.069732666015625	-1.06048583984375	9.777919580078125	0.44891281127929683	0.3447650390625	-0.40435791015625	-5.02777099609375	-2.552032470703125	9.931148486328125	0.25139117431640623	0.08020575561523437	3.7994384765625	-4.703521728515625	-2.17437744140625	
162	0.648	0.0	0.0	0.0	0.0	0.003	0.003	0.003	0.003	9.91558617553711	-0.4740519287109375	-0.05985504150390625	1.636505126953125	-2.971649169921875	-0.4425048828125	9.86411083984375	0.3812766143798828	0.10654197387695312	0.457763671875	-4.69970703125	-3.204345703125	10.275314974975585	-0.0796072052001953	-0.32561142578124996	3.53240966796875	-4.390716552734375	-1.827239990234375	
163	0.652	0.0	0.0	0.0	0.0	3.099	4.638	4.641	4.581	9.93354268798828	-0.3058592620849609	0.03531447448730469	2.0751953125	-3.093719482421875	-0.7171630859375	9.834183319091796	0.39743747558593745	0.316034619140625	0.14495849609375	-5.268096923828125	-2.6397705078125	10.012551342773437	0.22505495605468748	0.022744915771484374	3.612518310546875	-4.608154296875	-2.26593017578125	
164	0.656	0.0	0.0	0.0	0.0	4.611	4.638	4.647	4.596	9.89463691101074	-0.2705447875976562	-0.047884033203124995	2.55584716796875	-3.62396240234375	-0.942230224609375	9.911396322631836	0.5003881469726562	-0.04608838195800781	0.91552734375	-4.6539306640625	-3.02886962890625	10.204087475585936	-0.022146365356445312	-0.34057518615722654	3.62396240234375	-4.302978515625	-1.758575439453125	
165	0.66	0.0	0.0	0.0	0.0	4.599	4.644	4.647	4.602	9.682151513671874	-0.1693897674560547	0.4034229797363281	2.197265625	-3.1890869140625	-0.766754150390625	9.834781869506836	0.33039982910156246	0.29927520751953124	0.041961669921875	-4.932403564453125	-2.483367919921875	10.06163247680664	0.030526071166992186	-0.04848258361816406	3.6468505859375	-4.734039306640625	-2.330780029296875	
166	0.664	0.0	0.0	0.0	0.0	4.6080000000000005	4.641	4.644	4.605	9.911994873046874	-0.469263525390625	-0.0383072265625	2.23541259765625	-3.387451171875	-0.8087158203125	9.980229620361328	0.4944026428222656	-0.08080430603027343	0.6103515625	-4.734039306640625	-2.90679931640625	10.294468588256835	-0.04967968444824218	-0.36272155151367186	3.72314453125	-4.596710205078125	-1.628875732421875	
167	0.668	0.0	0.0	0.0	0.0	4.596	4.644	4.644	4.6080000000000005	9.668983404541015	-0.10714052429199218	0.36631285400390623	1.8157958984375	-3.101348876953125	-0.926971435546875	9.809044201660155	0.3130418670654297	0.27353753967285155	0.32806396484375	-4.8828125	-2.773284912109375	10.075399136352539	0.013168109130859374	-0.0987608184814453	3.56292724609375	-4.7149658203125	-2.361297607421875	
168	0.672	0.0	0.0	0.0	0.0	4.6080000000000005	4.647	4.647	4.59	9.907206469726562	-0.03531447448730469	0.11671733093261719	-0.827789306640625	-1.48773193359375	-0.736236572265625	9.952696301269532	0.507570751953125	-0.076614453125	1.068115234375	-4.718780517578125	-2.933502197265625	10.265139617919921	-0.0053869537353515625	-0.41060558471679687	3.780364990234375	-4.764556884765625	-1.865386962890625	
169	0.676	0.0	0.0	0.0	0.0	4.605	4.647	4.647	4.578	9.658808047485351	-0.030526071166992186	0.35673604736328124	2.605438232421875	-3.459930419921875	-1.0528564453125	9.617508068847656	0.5428852264404297	0.4207809417724609	0.072479248046875	-4.878997802734375	-2.90679931640625	10.092757098388672	-0.01915361328125	-0.09337386474609374	3.6468505859375	-4.634857177734375	-2.277374267578125	
170	0.68	0.0	0.0	0.0	0.0	4.611	4.647	4.644	4.587	9.952696301269532	-0.2693476867675781	0.0430956298828125	-1.36566162109375	-1.163482666015625	-0.751495361328125	9.97244846496582	0.4578910675048828	-0.11911153259277343	0.8392333984375	-5.039215087890625	-2.109527587890625	10.139444030761718	0.2166752502441406	-0.33099837951660155	3.570556640625	-4.673004150390625	-1.93023681640625	
171	0.684	0.0	0.0	0.0	0.0	4.611	4.641	4.647	4.602	9.64623848876953	-0.01915361328125	0.3333925811767578	2.346038818359375	-3.4942626953125	-0.7171630859375	9.611522564697266	0.6242880828857421	0.34177228698730466	-0.034332275390625	-5.176544189453125	-2.7618408203125	10.084975942993163	0.02693476867675781	-0.15741875915527342	3.627777099609375	-4.8980712890625	-2.300262451171875	
172	0.6880000000000001	0.0	0.0	0.0	0.0	4.611	4.644	4.65	4.602	9.917381826782226	-0.30526071166992186	0.05566518859863281	-1.53350830078125	-1.186370849609375	-0.52642822265625	9.878476049804688	0.3220201232910156	0.058657940673828124	0.67901611328125	-5.039215087890625	-3.170013427734375	10.095151300048828	0.1927332336425781	-0.29089550170898437	3.688812255859375	-4.932403564453125	-1.9378662109375	
173	0.6920000000000001	0.0	0.0	0.0	0.0	4.602	4.641	4.647	4.6080000000000005	9.894038360595703	-0.03950432739257812	0.15083470458984374	1.155853271484375	-2.658843994140625	-1.02996826171875	9.648632690429688	0.575206948852539	0.30705636291503907	0.095367431640625	-4.85992431640625	-2.532958984375	9.846752877807617	-0.09756371765136718	-0.003591302490234375	3.551483154296875	-4.33349609375	-2.002716064453125	
174	0.6960000000000001	0.0	0.0	0.0	0.0	4.599	4.647	4.641	4.6080000000000005	9.926360083007811	-0.2813186950683594	0.03651157531738281	-1.140594482421875	-1.277923583984375	-0.579833984375	9.93354268798828	0.37229835815429685	0.023343466186523436	0.64849853515625	-4.94384765625	-3.2501220703125	10.134655627441406	0.201112939453125	-0.297479556274414	3.5247802734375	-4.638671875	-1.888275146484375	
175	0.7000000000000001	0.0	0.0	0.0	0.0	4.6080000000000005	4.647	4.644	4.587	9.843161575317382	-0.086191259765625	0.19931728820800781	0.736236572265625	-2.399444580078125	-0.827789306640625	9.62109937133789	0.4955997436523437	0.41898529052734373	0.270843505859375	-4.8980712890625	-3.414154052734375	9.78031378173828	-0.10773907470703124	0.06464344482421874	3.498077392578125	-4.604339599609375	-2.185821533203125	
176	0.704	0.0	0.0	0.0	0.0	4.611	4.647	4.644	4.578	9.924564431762695	-0.15322890625	0.0017956512451171875	2.780914306640625	-3.864288330078125	-1.06048583984375	9.935936889648437	0.41060558471679687	-0.04608838195800781	0.77056884765625	-4.92095947265625	-3.1585693359375	9.889249957275391	0.29089550170898437	-0.0526724365234375	3.467559814453125	-4.634857177734375	-2.040863037109375	
177	0.708	0.0	0.0	0.0	0.0	4.611	4.644	4.647	4.587	9.853336932373047	-0.23882161560058593	0.17118541870117188	0.331878662109375	-2.3040771484375	-0.8087158203125	9.649829791259766	0.5015852478027344	0.41838674011230464	0.2288818359375	-4.566192626953125	-3.173828125	9.841964474487304	-0.09756371765136718	0.040102877807617184	3.688812255859375	-4.558563232421875	-2.368927001953125	
178	0.712	0.0	0.0	0.0	0.0	4.6080000000000005	4.647	4.65	4.596	9.904812268066406	0.277727392578125	0.044891281127929686	2.61688232421875	-3.47900390625	-0.988006591796875	9.743203656005859	0.2454056701660156	0.19991583862304688	0.202178955078125	-4.852294921875	-2.99072265625	9.93952819213867	0.18375497741699218	-0.0526724365234375	3.74603271484375	-4.7760009765625	-2.285003662109375	
179	0.716	0.0	0.0	0.0	0.0	4.605	4.644	4.647	4.602	9.851541281127929	0.013766659545898436	0.14305354919433594	0.324249267578125	-1.941680908203125	-1.0833740234375	9.656413845825195	0.603338818359375	0.26336218261718747	0.25177001953125	-4.6234130859375	-3.27301025390625	9.78031378173828	-0.04668693237304687	0.0047884033203125	3.65447998046875	-4.40216064453125	-2.18963623046875	
180	0.72	0.0	0.0	0.0	0.0	4.599	4.641	4.647	4.6080000000000005	9.974842666625976	0.19153613281249998	-0.10414777221679687	3.05938720703125	-4.085540771484375	-0.728607177734375	9.715670336914062	0.25139117431640623	0.23104046020507812	0.06103515625	-4.985809326171875	-2.948760986328125	9.929951385498047	0.23104046020507812	-0.076614453125	3.635406494140625	-4.60052490234375	-2.033233642578125	
181	0.724	0.0	0.0	0.0	0.0	4.6080000000000005	4.647	4.641	4.6080000000000005	9.983820922851562	0.044891281127929686	-0.016160861206054686	6.256103515625	-6.122589111328125	-0.87738037109375	9.779116680908203	0.3315969299316406	0.20949264526367187	0.03814697265625	-4.550933837890625	-2.880096435546875	9.976638317871092	-0.2166752502441406	-0.2166752502441406	3.551483154296875	-4.322052001953125	-2.384185791015625	
182	0.728	0.0	0.0	0.0	0.0	4.6080000000000005	4.647	4.65	4.5840000000000005	9.954491952514648	0.22565350646972654	-0.0987608184814453	4.512786865234375	-5.298614501953125	-1.15203857421875	9.70968483276367	0.3363853332519531	0.12449848632812499	0.354766845703125	-5.016326904296875	-3.139495849609375	9.828197814941406	0.2819172454833984	-0.09995791931152344	3.48663330078125	-4.69970703125	-2.11334228515625	
183	0.732	0.0	0.0	0.0	0.0	4.611	4.647	4.644	4.578	9.955090502929687	-0.016160861206054686	0.014963760375976562	6.1187744140625	-5.65338134765625	-0.698089599609375	9.65282254333496	0.4016273284912109	0.24301146850585936	0.080108642578125	-4.73785400390625	-3.017425537109375	9.82460651245117	-0.0718260498046875	-0.1657984649658203	3.665924072265625	-4.29534912109375	-2.1514892578125	
184	0.736	0.0	0.0	0.0	0.0	4.602	4.644	4.647	4.593	10.031106405639648	0.2454056701660156	-0.18435352783203124	4.268646240234375	-4.50897216796875	-0.942230224609375	9.9078050201416	0.2615665313720703	0.09457096557617187	0.545501708984375	-5.1116943359375	-2.513885498046875	10.1131078125	0.02693476867675781	-0.12509703674316405	3.528594970703125	-4.718780517578125	-1.8310546875	
185	0.74	0.0	0.0	0.0	0.0	4.605	4.647	4.65	0.003	9.929951385498047	0.033518823242187495	0.014963760375976562	7.541656494140625	-6.374359130859375	-1.09100341796875	9.65940659790039	0.4572925170898437	0.20350714111328125	0.03814697265625	-4.543304443359375	-3.078460693359375	9.848548529052733	-0.10594342346191406	-0.17956512451171874	3.864288330078125	-4.41741943359375	-2.353668212890625	
186	0.744	0.0	0.0	0.0	0.0	0.003	0.003	0.003	0.006	9.867103591918944	-0.41898529052734373	0.1274912384033203	4.199981689453125	-4.608154296875	-0.698089599609375	9.745597857666015	0.354341845703125	0.1370680450439453	0.091552734375	-5.13458251953125	-2.38800048828125	9.859322436523437	0.2136824981689453	-0.051475335693359374	3.80706787109375	-4.642486572265625	-1.941680908203125	
187	0.748	0.0	0.0	0.0	0.0	0.003	0.003	0.006	0.006	9.963470208740233	-0.028131869506835935	0.014963760375976562	6.046295166015625	-5.550384521484375	-0.640869140625	9.707290631103515	0.412401235961914	-0.1867477294921875	1.01470947265625	-5.191802978515625	-2.910614013671875	10.381856948852539	-0.09756371765136718	-0.5482721801757812	3.7078857421875	-4.657745361328125	-1.873016357421875	
188	0.752	0.0	0.0	0.0	0.0	0.006	0.003	0.003	0.003	9.880870251464843	-0.4010287780761719	0.14425065002441406	5.046844482421875	-5.48553466796875	-1.155853271484375	9.847351428222655	0.2819172454833984	0.07721300354003906	0.118255615234375	-4.886627197265625	-2.532958984375	10.014945544433592	0.047884033203124995	-0.10893617553710937	3.7078857421875	-4.734039306640625	-2.11334228515625	
189	0.756	0.0	0.0	0.0	0.0	0.003	0.003	0.003	0.006	9.890447058105469	-0.14604630126953125	0.0652419952392578	-0.110626220703125	-2.1514892578125	-0.743865966796875	9.817423907470703	0.5237316131591797	-0.028131869506835935	0.385284423828125	-4.650115966796875	-2.658843994140625	10.178948358154296	0.09277531433105468	-0.5776011505126952	3.83758544921875	-4.49371337890625	-1.93023681640625	
190	0.76	0.0	0.0	0.0	0.0	0.003	0.003	0.006	0.006	9.87069489440918	-0.18614917907714842	0.21068974609375	4.467010498046875	-4.70733642578125	-0.5645751953125	9.858125335693359	0.3016694091796875	0.0987608184814453	0.18310546875	-4.802703857421875	-2.777099609375	10.026318002319336	-0.004189852905273437	0.02633621826171875	3.452301025390625	-4.78363037109375	-2.0294189453125	
191	0.764	0.0	0.0	0.0	0.0	0.006	0.003	0.006	0.003	9.951499200439452	-0.39324762268066404	-0.1753752716064453	1.495361328125	-2.99072265625	-1.354217529296875	9.9981861328125	0.3232172241210937	-0.1592144104003906	0.926971435546875	-4.718780517578125	-2.674102783203125	10.36809028930664	-0.09756371765136718	-0.535702621459961	3.8299560546875	-4.833221435546875	-1.82342529296875	
192	0.768	0.0	0.0	0.0	0.0	0.003	0.006	0.006	0.003	9.778518130493163	-0.6428431457519531	0.2771288421630859	3.62396240234375	-4.306793212890625	-1.110076904296875	9.642647186279296	0.5877765075683593	0.2962824554443359	0.263214111328125	-4.89044189453125	-2.834320068359375	10.085574493408203	0.13347674255371092	-0.3597287994384765	3.482818603515625	-4.96673583984375	-2.193450927734375	
193	0.772	0.0	0.0	0.0	0.0	0.003	0.003	0.003	0.003	9.909600671386718	-0.5267243652343749	-0.11432312927246092	-1.987457275390625	-0.37384033203125	-0.11444091796875	9.923367330932617	0.35613749694824215	-0.00239420166015625	0.232696533203125	-4.5928955078125	-2.78472900390625	10.281300479125976	0.015562310791015624	-0.546476528930664	3.62396240234375	-4.50897216796875	-1.77001953125	
194	0.776	0.0	0.0	0.0	0.0	0.003	0.003	0.003	0.003	9.706093530273437	0.3495534423828125	0.34237083740234375	1.6632080078125	-2.86865234375	-1.178741455078125	9.803657247924804	0.4896142395019531	0.2962824554443359	0.308990478515625	-4.627227783203125	-3.009796142578125	10.254365710449218	-0.01915361328125	-0.25737667846679685	3.376007080078125	-4.962921142578125	-2.079010009765625	
195	0.78	0.0	0.0	0.0	0.0	0.003	0.006	0.003	0.0	9.891045608520507	-0.11671733093261719	-0.10235212097167969	1.12152099609375	-2.166748046875	-1.598358154296875	9.896432562255859	0.26874913635253905	0.0053869537353515625	0.743865966796875	-5.0201416015625	-3.30352783203125	10.147823736572265	-0.023942016601562498	-0.40402153015136716	3.51715087890625	-4.730224609375	-2.166748046875	
196	0.784	0.0	0.0	0.0	0.0	0.006	0.003	0.003	0.003	9.637858782958984	-0.6548141540527344	0.36631285400390623	-2.422332763671875	-0.072479248046875	-0.51116943359375	9.628281976318359	0.6392518432617187	0.37708676147460934	0.049591064453125	-4.76837158203125	-2.32696533203125	10.08078609008789	0.15083470458984374	-0.36571430358886714	3.50189208984375	-4.69970703125	-1.911163330078125	
197	0.788	0.0	0.0	0.0	0.0	0.003	0.006	0.003	0.003	9.919776028442381	-1.0133458526611328	-0.06823474731445311	-4.66156005859375	0.690460205078125	0.00762939453125	9.998784683227539	0.2154781494140625	0.03411737365722656	0.514984130859375	-5.138397216796875	-3.162384033203125	10.25376716003418	-0.07302315063476562	-0.44113165588378905	3.536224365234375	-4.8370361328125	-1.956939697265625	
198	0.792	0.0	0.0	0.0	0.0	0.006	0.003	0.003	0.003	9.859920986938477	0.6147112762451171	0.08259995727539061	1.255035400390625	-2.60162353515625	-1.117706298828125	9.82580361328125	0.5213374114990235	0.15682020874023436	0.698089599609375	-4.669189453125	-3.12042236328125	9.860519537353515	0.04608838195800781	0.14903905334472656	3.742218017578125	-4.41741943359375	-2.147674560546875	
199	0.796	0.0	0.0	0.0	0.0	0.0	0.003	0.003	0.003	9.836577520751952	0.07422025146484375	0.21128829650878905	4.38690185546875	-4.421234130859375	-1.461029052734375	9.82580361328125	0.42377369384765623	0.0652419952392578	0.720977783203125	-5.168914794921875	-3.1585693359375	9.991003527832031	0.08918401184082031	-0.26216508178710934	3.4332275390625	-4.8065185546875	-2.132415771484375	
200	0.8	0.0	0.0	0.0	0.0	0.003	0.003	0.003	0.006	9.701305126953125	-0.6398503936767578	0.35613749694824215	-1.018524169921875	-1.28173828125	-1.1749267578125	9.710881933593749	0.5536591339111328	0.3315969299316406	0.2593994140625	-4.734039306640625	-3.2958984375	9.776123928833007	0.10414777221679687	0.18854338073730467	3.7384033203125	-4.7454833984375	-2.14385986328125	
201	0.804	0.0	0.0	0.0	0.0	0.003	0.003	0.003	0.006	10.050260018920898	0.058657940673828124	-0.09935936889648436	0.57220458984375	-2.384185791015625	-0.019073486328125	9.807847100830077	0.16998831787109375	0.258573779296875	-0.18310546875	-4.901885986328125	-3.215789794921875	10.264541067504883	-0.11911153259277343	-0.4016273284912109	3.92913818359375	-4.940032958984375	-2.429962158203125	
202	0.808	0.0	0.0	0.0	0.0	0.006	0.003	0.003	0.003	9.90241806640625	0.43634325256347656	0.037708676147460936	9.3841552734375	-7.678985595703125	-0.476837158203125	9.662997900390625	0.5853823059082031	0.2914940521240234	0.469207763671875	-4.547119140625	-3.177642822265625	9.713276135253906	0.2059013427734375	0.13347674255371092	3.8299560546875	-4.589080810546875	-2.4261474609375	
203	0.812	0.0	0.0	0.0	0.0	0.003	0.003	0.003	0.006	9.95389340209961	1.035492218017578	0.032920272827148434	8.472442626953125	-7.2021484375	-1.682281494140625	9.667786303710937	0.34117373657226563	0.39145197143554683	-0.09918212890625	-4.67681884765625	-2.7313232421875	9.740809454345703	0.07122749938964844	-0.03950432739257812	3.8604736328125	-4.650115966796875	-2.269744873046875	
204	0.8160000000000001	0.0	0.0	0.0	0.0	0.003	0.003	0.003	0.003	9.866505041503906	-0.7715314849853515	0.20949264526367187	5.207061767578125	-5.435943603515625	-0.93841552734375	9.767145672607422	0.3495534423828125	0.13646949462890623	-0.003814697265625	-4.940032958984375	-2.918243408203125	9.968857162475585	0.07541735229492187	-0.0017956512451171875	3.665924072265625	-4.756927490234375	-2.22015380859375	
205	0.8200000000000001	0.0	0.0	0.0	0.0	0.006	0.003	0.006	0.003	9.961076007080077	-0.4656722229003906	-0.0939724151611328	2.216339111328125	-3.612518310546875	-0.728607177734375	9.714473236083984	0.3274070770263672	0.21428104858398436	-0.3662109375	-4.779815673828125	-3.2196044921875	9.813234054565429	-0.03890577697753906	-0.14245499877929688	3.650665283203125	-4.64630126953125	-2.20489501953125	
206	0.8240000000000001	0.0	0.0	0.0	0.0	0.003	0.003	0.003	0.006	9.959280355834961	0.16220716247558592	-0.0430956298828125	4.67681884765625	-5.138397216796875	-0.148773193359375	9.624092123413085	0.49380409240722656	0.14125789794921875	0.568389892578125	-4.7760009765625	-2.8228759765625	9.812036953735351	0.24660277099609373	-0.1292868896484375	3.753662109375	-4.33349609375	-2.13623046875	
207	0.8280000000000001	0.0	0.0	0.0	0.0	0.006	0.003	0.006	0.006	9.91498762512207	0.13287819213867186	0.013766659545898436	9.60540771484375	-8.4991455078125	-1.67083740234375	9.80724855041504	0.3321954803466797	0.11432312927246092	0.698089599609375	-5.19561767578125	-2.735137939453125	9.864709390258788	-0.09756371765136718	-0.059256491088867186	3.658294677734375	-4.817962646484375	-2.1514892578125	
208	0.8320000000000001	0.0	0.0	0.0	0.0	0.003	0.006	0.003	0.006	10.046070166015625	0.19153613281249998	-0.12210428466796874	11.6729736328125	-9.08660888671875	-1.708984375	9.829394915771484	0.3142389678955078	-0.05746083984375	0.4425048828125	-4.92095947265625	-2.83050537109375	10.053252770996092	0.08259995727539061	-0.24361001892089842	3.57818603515625	-4.367828369140625	-2.292633056640625	
209	0.836	0.0	0.0	0.0	0.0	0.006	0.003	0.003	0.003	9.767145672607422	-1.0630255371093749	0.16160861206054686	2.765655517578125	-4.08935546875	-1.01470947265625	9.698910925292969	0.42796354675292964	0.0718260498046875	0.0	-5.161285400390625	-2.674102783203125	9.94671079711914	0.017956512451171875	-0.10414777221679687	3.5858154296875	-4.734039306640625	-1.834869384765625	
210	0.84	0.0	0.0	0.0	0.0	0.006	0.003	0.006	0.006	9.812036953735351	-0.5967547637939453	0.17238251953125	6.29425048828125	-6.381988525390625	-0.644683837890625	9.689932669067382	0.3896563201904297	0.02693476867675781	1.0223388671875	-5.207061767578125	-2.864837646484375	9.892242709350585	0.19931728820800781	-0.13766659545898435	3.612518310546875	-4.413604736328125	-2.11334228515625	
211	0.844	0.0	0.0	0.0	0.0	0.003	0.003	0.003	0.006	9.854534033203125	-0.9989806427001953	0.07422025146484375	0.0152587890625	-2.35748291015625	-0.644683837890625	9.832986218261718	0.23642741394042968	0.028131869506835935	0.804901123046875	-5.24139404296875	-2.941131591796875	10.180744009399413	-0.18435352783203124	-0.13287819213867186	3.6773681640625	-4.63104248046875	-1.89208984375	
212	0.848	0.0	0.0	0.0	0.0	0.003	0.003	0.003	0.006	9.7928833404541	-0.5434837768554687	0.10115502014160156	-2.735137939453125	-0.00762939453125	-0.64849853515625	9.90241806640625	0.5728127471923827	0.052073886108398436	0.919342041015625	-5.001068115234375	-3.15093994140625	10.36210478515625	0.06763619689941405	-0.535702621459961	3.520965576171875	-4.535675048828125	-2.445220947265625	
213	0.852	0.0	0.0	0.0	0.0	0.009000000000000001	0.003	0.003	0.003	9.733626849365233	-1.0414777221679687	0.20769699401855468	-1.129150390625	-1.659393310546875	-0.58746337890625	9.689334118652344	0.3315969299316406	0.16519991455078123	0.560760498046875	-5.24139404296875	-2.9144287109375	9.925162982177733	-0.013766659545898436	0.032920272827148434	3.734588623046875	-4.89044189453125	-1.918792724609375	
214	0.856	0.0	0.0	0.0	0.0	-0.003	0.003	0.003	0.006	9.766547122192382	-0.3064578125	0.2262520568847656	-2.63214111328125	-0.034332275390625	-0.385284423828125	9.934739788818359	0.5057751007080078	0.11252747802734374	0.652313232421875	-4.962921142578125	-2.7923583984375	10.383652600097655	0.018555062866210937	-0.49260699157714843	3.879547119140625	-4.695892333984375	-2.2430419921875	
215	0.86	0.0	0.0	0.0	0.0	0.006	0.006	0.003	0.006	9.852738381958007	-0.9187748870849609	0.15562310791015624	1.865386962890625	-1.86920166015625	-0.78582763671875	9.82580361328125	0.31543606872558594	0.49679684448242184	-0.011444091796875	-4.8065185546875	-3.208160400390625	10.119691867065429	-0.15382745666503905	-0.06404489440917968	3.643035888671875	-4.5318603515625	-1.94549560546875	
216	0.864	0.0	0.0	0.0	0.0	0.006	0.003	0.003	0.003	9.76235726928711	0.20231004028320312	0.24361001892089842	-1.83868408203125	-0.209808349609375	-0.926971435546875	9.788094937133788	0.6177040283203125	0.1879448303222656	0.78582763671875	-4.82940673828125	-3.002166748046875	10.217255584716796	0.12150573425292968	-0.49200844116210934	3.780364990234375	-4.34112548828125	-2.227783203125	
217	0.868	0.0	0.0	0.0	0.0	0.003	0.003	0.003	0.006	9.734823950195311	0.6919242797851562	0.3938461730957031	2.834320068359375	-3.35693359375	-0.8697509765625	9.753379013061522	0.32920272827148434	0.5853823059082031	0.156402587890625	-4.962921142578125	-2.887725830078125	10.047267266845703	0.20769699401855468	-0.06883329772949218	3.704071044921875	-4.695892333984375	-1.52587890625	
218	0.872	0.0	0.0	0.0	0.0	0.003	0.003	0.006	0.006	9.925162982177733	0.19093758239746092	0.004189852905273437	-0.041961669921875	-1.373291015625	-0.896453857421875	9.987412225341796	0.46627077331542965	-0.010773907470703125	0.301361083984375	-4.84466552734375	-2.513885498046875	10.413580120849609	-0.06823474731445311	-0.59376201171875	3.582000732421875	-4.283905029296875	-2.25830078125	
219	0.876	0.0	0.0	0.0	0.0	0.003	0.003	0.003	0.003	9.781510882568359	0.6218938812255859	0.24001871643066405	4.35638427734375	-4.638671875	-1.1138916015625	9.739612353515625	0.3393780853271484	0.479438882446289	-0.080108642578125	-4.76837158203125	-2.941131591796875	10.020931048583984	0.2376245147705078	-0.13168109130859373	3.814697265625	-4.543304443359375	-2.00653076171875	
220	0.88	0.0	0.0	0.0	0.0	0.006	0.003	0.003	0.003	9.93354268798828	0.21128829650878905	-0.04548983154296875	3.948211669921875	-4.901885986328125	-0.7171630859375	9.822810861206055	0.6141127258300781	0.03890577697753906	0.514984130859375	-5.031585693359375	-2.8533935546875	9.920973129272461	-0.0796072052001953	-0.3651157531738281	3.65447998046875	-4.608154296875	-2.1209716796875	
221	0.884	0.0	0.0	0.0	0.0	0.006	0.003	0.003	0.003	9.814431155395507	0.35793314819335936	0.11911153259277343	4.9285888671875	-5.08880615234375	-1.064300537109375	9.801861596679688	0.29867665710449215	0.0987608184814453	0.003814697265625	-4.802703857421875	-2.811431884765625	10.211270080566406	0.14604630126953125	-0.22385785522460935	3.66973876953125	-4.680633544921875	-1.64031982421875	
222	0.888	0.0	0.0	0.0	0.0	0.003	0.003	0.003	0.003	9.909600671386718	-0.015562310791015624	-0.029328970336914062	3.589630126953125	-4.261016845703125	-0.99945068359375	9.866505041503906	0.5297171173095703	-0.022146365356445312	0.335693359375	-4.604339599609375	-2.83050537109375	10.032902056884765	-0.20530279235839843	-0.4267664459228515	3.726959228515625	-4.52423095703125	-2.4261474609375	
223	0.892	0.0	0.0	0.0	0.0	0.003	0.003	0.006	0.0	9.670180505371093	0.3268085266113281	0.30406361083984373	4.15802001953125	-4.63104248046875	-1.13677978515625	9.586981997680663	0.43933600463867184	0.3633201019287109	-0.041961669921875	-4.76837158203125	-2.9449462890625	9.721655841064452	0.3525461944580078	0.0017956512451171875	3.65447998046875	-4.657745361328125	-2.08282470703125	
224	0.896	0.0	0.0	0.0	0.0	0.003	0.003	0.003	0.006	9.880870251464843	-0.023942016601562498	0.086191259765625	1.922607421875	-3.15093994140625	-0.69427490234375	9.784503634643555	0.40282442932128903	0.04189852905273437	0.591278076171875	-5.062103271484375	-3.185272216796875	10.096348400878906	-0.18375497741699218	-0.3507505432128906	3.45611572265625	-4.66156005859375	-1.9683837890625	
225	0.9	0.0	0.0	0.0	0.0	0.006	0.003	0.006	0.006	9.980229620361328	-0.3908534210205078	-0.18076222534179687	2.44903564453125	-3.4942626953125	-1.07574462890625	9.710881933593749	0.3908534210205078	0.2885013000488281	-0.034332275390625	-4.505157470703125	-3.23486328125	9.934739788818359	0.14125789794921875	-0.052073886108398436	3.711700439453125	-4.634857177734375	-2.300262451171875	
226	0.904	0.0	0.0	0.0	0.0	0.003	0.006	0.006	0.003	9.79408044128418	0.09756371765136718	0.19931728820800781	1.041412353515625	-2.44903564453125	-0.957489013671875	9.686939916992188	0.3848679168701172	0.09576806640624999	0.23651123046875	-4.840850830078125	-3.19671630859375	9.898826763916015	-0.09576806640624999	-0.2825157958984375	3.772735595703125	-5.771636962890625	-2.193450927734375	
227	0.908	0.0	0.0	0.0	0.0	0.003	0.006	0.003	0.009000000000000001	9.925162982177733	-0.3172317199707031	-0.07601590270996093	2.666473388671875	-3.902435302734375	-0.86212158203125	9.598354455566406	0.4327519500732422	0.2861070983886719	0.324249267578125	-4.92095947265625	-2.864837646484375	9.74859060974121	0.20649989318847656	0.11552023010253906	3.7384033203125	-4.730224609375	-2.35748291015625	
228	0.912	0.0	0.0	0.0	0.0	0.003	0.003	0.003	0.003	9.943119494628906	0.0017956512451171875	0.0017956512451171875	4.45556640625	-2.8076171875	-0.797271728515625	9.891644158935547	0.27174188842773433	-0.023343466186523436	0.225067138671875	-4.92095947265625	-3.269195556640625	9.983820922851562	-0.11731588134765625	-0.0987608184814453	3.711700439453125	-4.497528076171875	-2.01416015625	
229	0.916	0.0	0.0	0.0	0.0	0.003	0.003	0.003	0.006	9.926958633422851	-0.13467384338378904	-0.10714052429199218	4.024505615234375	-4.53948974609375	-0.74005126953125	9.617508068847656	0.3890577697753906	0.23822306518554687	0.164031982421875	-4.96673583984375	-2.99835205078125	9.751583361816406	0.15322890625	0.044292730712890624	3.51715087890625	-4.604339599609375	-2.628326416015625	
230	0.92	0.0	0.0	0.0	0.0	0.003	0.003	0.006	0.006	9.874884747314452	-0.25737667846679685	-0.10953472595214843	4.138946533203125	-4.573822021484375	-0.63323974609375	9.720458740234374	0.4112041351318359	0.08798691101074219	0.72479248046875	-4.909515380859375	-2.605438232421875	9.679158761596678	0.11791443176269531	0.06464344482421874	3.66973876953125	-4.73785400390625	-1.804351806640625	
231	0.924	0.0	0.0	0.0	0.0	0.006	0.003	0.003	0.003	9.91498762512207	-0.14245499877929688	0.054468087768554684	5.279541015625	-5.33294677734375	-0.995635986328125	9.70968483276367	0.29089550170898437	0.24779987182617186	0.408172607421875	-4.741668701171875	-3.082275390625	10.026916552734374	-0.18255787658691405	-0.10953472595214843	3.841400146484375	-4.364013671875	-2.399444580078125	
232	0.928	0.0	0.0	0.0	0.0	0.006	0.003	0.003	0.006	10.000580334472655	-0.36631285400390623	-0.18315642700195311	3.482818603515625	-4.24957275390625	-0.8697509765625	9.894038360595703	0.24061726684570311	-0.012569558715820313	0.453948974609375	-4.87518310546875	-2.979278564453125	9.929352835083007	0.030526071166992186	-0.076614453125	3.658294677734375	-4.512786865234375	-2.201080322265625	
233	0.932	0.0	0.0	0.0	0.0	0.006	0.003	0.003	0.003	9.706093530273437	-0.3274070770263672	-0.017357962036132813	2.635955810546875	-3.63922119140625	-0.80108642578125	9.495403784179686	0.4644751220703125	0.36631285400390623	0.713348388671875	-4.566192626953125	-3.2196044921875	9.83897172241211	-0.08140285644531249	-0.09935936889648436	3.986358642578125	-4.329681396484375	-2.208709716796875	
234	0.936	0.0	0.0	0.0	0.0	0.006	0.003	0.006	0.003	9.932345587158203	-0.22385785522460935	-0.09696516723632811	3.662109375	-4.665374755859375	-0.759124755859375	9.775525378417969	0.25258827514648435	0.08918401184082031	0.3814697265625	-5.218505859375	-2.5634765625	9.95987890625	0.143652099609375	0.02693476867675781	3.59344482421875	-4.467010498046875	-1.7242431640625	
235	0.9400000000000001	0.0	0.0	0.0	0.0	0.006	0.003	0.003	0.003	9.964667309570311	-0.565630142211914	-0.1388636962890625	2.5482177734375	-3.726959228515625	-0.820159912109375	9.94671079711914	0.39264907226562495	0.04668693237304687	0.58746337890625	-4.61578369140625	-2.93731689453125	10.156203442382813	-0.26695348510742184	-0.29388825378417965	3.772735595703125	-4.20379638671875	-2.25830078125	
236	0.9440000000000001	0.0	0.0	0.0	0.0	0.003	0.003	0.003	0.003	9.9461122467041	-0.19393033447265623	-0.04548983154296875	3.978729248046875	-4.840850830078125	-0.797271728515625	9.759364517211914	0.29568390502929687	0.032920272827148434	0.461578369140625	-5.100250244140625	-2.841949462890625	9.988609326171874	0.22206220397949217	-0.005985504150390624	3.658294677734375	-4.650115966796875	-2.14385986328125	
237	0.9480000000000001	0.0	0.0	0.0	0.0	0.006	0.003	0.006	0.003	9.810241302490233	-0.2813186950683594	0.044292730712890624	2.872467041015625	-3.9520263671875	-0.8544921875	9.740210903930663	0.526125814819336	0.15562310791015624	0.640869140625	-4.817962646484375	-2.83050537109375	9.87727894897461	-0.10295067138671875	-0.15741875915527342	3.772735595703125	-4.66156005859375	-2.03704833984375	
238	0.9520000000000001	0.0	0.0	0.0	0.0	0.009000000000000001	0.003	0.006	4.575	9.702502227783203	-0.08140285644531249	0.4860229370117187	1.796722412109375	-2.95257568359375	-0.54168701171875	9.90122096557617	0.33039982910156246	0.36691140441894526	-0.1678466796875	-5.107879638671875	-2.620697021484375	10.14542953491211	0.1227028350830078	-0.07900865478515624	3.726959228515625	-4.657745361328125	-2.14385986328125	
239	0.9560000000000001	0.0	0.0	0.0	0.0	4.605	4.638	4.644	4.593	9.91558617553711	-0.565630142211914	-0.1005564697265625	2.300262451171875	-3.269195556640625	-0.789642333984375	9.878476049804688	0.40402153015136716	0.11851298217773437	0.7781982421875	-4.810333251953125	-3.204345703125	10.386046801757812	-0.16998831787109375	-0.5051765502929687	3.814697265625	-4.47845458984375	-2.1514892578125	
240	0.96	0.0	0.0	0.0	0.0	4.6080000000000005	4.644	4.65	4.602	9.645639938354492	-0.027533319091796873	0.469263525390625	1.57928466796875	-2.826690673828125	-0.74005126953125	9.756970315551758	0.48542438659667964	0.3896563201904297	0.06103515625	-5.443572998046875	-2.773284912109375	9.917381826782226	0.28371289672851563	-0.001197100830078125	3.6163330078125	-4.6844482421875	-2.216339111328125	
241	0.964	0.0	0.0	0.0	0.0	4.605	4.644	4.644	4.602	9.883264453125	-0.46686932373046874	-0.03531447448730469	2.468109130859375	-3.719329833984375	-0.652313232421875	9.904213717651366	0.4327519500732422	-0.0718260498046875	0.911712646484375	-4.52423095703125	-2.849578857421875	10.24059905090332	-0.08259995727539061	-0.44053310546874996	3.71551513671875	-4.7454833984375	-1.728057861328125	
242	0.968	0.0	0.0	0.0	0.0	4.596	4.644	4.641	4.611	9.765948571777344	-0.13467384338378904	0.3327940307617187	2.544403076171875	-3.34930419921875	-0.9002685546875	9.968857162475585	0.354940396118164	0.23702596435546874	0.019073486328125	-5.046844482421875	-2.26593017578125	10.146626635742187	0.09636661682128905	-0.11611878051757812	3.643035888671875	-4.79888916015625	-2.11334228515625	
243	0.972	0.0	0.0	0.0	0.0	4.611	4.647	4.647	4.593	9.924564431762695	-0.2346317626953125	0.04369418029785156	-0.911712646484375	-1.575469970703125	-0.7476806640625	9.90840357055664	0.4944026428222656	-0.0430956298828125	0.92315673828125	-4.63104248046875	-3.185272216796875	10.244788903808594	-0.0796072052001953	-0.4578910675048828	3.719329833984375	-4.772186279296875	-1.819610595703125	
244	0.976	0.0	0.0	0.0	0.0	4.611	4.647	4.647	4.578	9.64623848876953	0.01975216369628906	0.40581718139648437	2.18963623046875	-3.08990478515625	-0.675201416015625	9.637260232543944	0.6081272216796875	0.2328361114501953	0.362396240234375	-5.115509033203125	-2.773284912109375	9.917980377197265	0.20649989318847656	-0.08559270935058594	3.70025634765625	-4.703521728515625	-2.20489501953125	
245	0.98	0.0	0.0	0.0	0.0	4.614	4.644	4.647	4.5840000000000005	10.000580334472655	-0.17238251953125	-0.09337386474609374	-0.34332275390625	-1.789093017578125	-0.667572021484375	10.01733974609375	0.5201403106689453	-0.16639701538085935	0.5340576171875	-4.69970703125	-2.99835205078125	10.08018753967285	0.13347674255371092	-0.2711433380126953	3.604888916015625	-4.76837158203125	-1.983642578125	
246	0.984	0.0	0.0	0.0	0.0	4.6080000000000005	4.641	4.647	4.602	9.74859060974121	0.11611878051757812	0.18435352783203124	1.77764892578125	-3.200531005859375	-1.003265380859375	9.726444244384766	0.44592005920410155	0.22744915771484372	0.05340576171875	-4.817962646484375	-2.994537353515625	10.078391888427733	0.08020575561523437	-0.11133037719726561	3.631591796875	-4.505157470703125	-2.300262451171875	
247	0.988	0.0	0.0	0.0	0.0	4.6080000000000005	4.644	4.647	4.599	9.906009368896484	-0.15203180541992187	0.025139117431640625	0.11444091796875	-1.888275146484375	-0.701904296875	9.764751470947266	0.4590881683349609	0.11013327636718749	0.568389892578125	-4.825592041015625	-3.406524658203125	9.996989031982421	0.21009119567871093	-0.2597708801269531	3.7384033203125	-4.940032958984375	-1.926422119140625	
248	0.992	0.0	0.0	0.0	0.0	4.602	4.644	4.647	4.605	9.80665	-0.14484920043945312	0.20530279235839843	0.873565673828125	-2.69317626953125	-0.70953369140625	9.655216744995117	0.5865794067382812	0.24660277099609373	0.17547607421875	-4.863739013671875	-2.92205810546875	10.001777435302733	0.1274912384033203	-0.12629413757324218	3.62396240234375	-4.4097900390625	-2.43377685546875	
249	0.996	0.0	0.0	0.0	0.0	4.596	4.644	4.641	4.611	9.923965881347655	-0.45190556335449217	0.00239420166015625	-0.873565673828125	-1.331329345703125	-0.67138671875	9.893439810180663	0.31184476623535157	0.06284779357910156	0.797271728515625	-5.13458251953125	-3.253936767578125	10.225635290527343	0.09816226806640624	-0.3489548919677734	3.5552978515625	-4.589080810546875	-1.773834228515625	
250	1.0	0.0	0.0	0.0	0.0	4.611	4.65	4.65	0.006	9.847351428222655	-0.15442600708007811	0.17357962036132812	0.080108642578125	-2.109527587890625	-1.049041748046875	9.631873278808593	0.661398208618164	0.30406361083984373	0.31280517578125	-4.60052490234375	-3.47137451171875	9.792284790039062	-0.11911153259277343	0.08439560852050781	3.665924072265625	-4.459381103515625	-2.25067138671875	
251	1.004	0.0	0.0	0.0	0.0	0.003	0.003	0.003	0.003	9.884461553955077	0.1514332550048828	0.028131869506835935	2.3345947265625	-3.6163330078125	-0.881195068359375	9.662997900390625	0.3902548706054687	0.20949264526367187	0.3204345703125	-4.8675537109375	-3.330230712890625	9.929951385498047	0.2262520568847656	-0.26815058593749996	3.627777099609375	-4.802703857421875	-1.99127197265625	
252	1.008	0.0	0.0	0.0	0.0	0.003	0.006	0.003	0.006	9.91558617553711	-0.13766659545898435	0.040102877807617184	-0.396728515625	-1.5716552734375	-1.007080078125	9.745597857666015	0.4896142395019531	0.1562216583251953	0.1068115234375	-4.497528076171875	-3.12042236328125	9.785102185058593	-0.0430956298828125	0.06703764648437499	3.60870361328125	-4.726409912109375	-2.288818359375	
253	1.012	0.0	0.0	0.0	0.0	0.003	0.006	0.003	0.003	10.032303506469725	0.17956512451171874	-0.1580173095703125	3.246307373046875	-3.963470458984375	-1.079559326171875	9.807847100830077	0.2645592834472656	0.21487959899902342	0.263214111328125	-5.0811767578125	-3.57818603515625	9.97903251953125	0.10414777221679687	-0.1388636962890625	3.79180908203125	-4.5318603515625	-2.285003662109375	
254	1.016	0.0	0.0	0.0	0.0	0.009000000000000001	0.003	0.003	0.003	9.955090502929687	0.05566518859863281	-0.023343466186523436	0.232696533203125	-2.429962158203125	-0.942230224609375	9.632471829223633	0.4878185882568359	0.21906945190429686	0.377655029296875	-4.718780517578125	-3.15093994140625	9.668983404541015	0.00239420166015625	0.044292730712890624	3.6163330078125	-4.474639892578125	-2.567291259765625	
255	1.02	0.0	0.0	0.0	0.0	0.0	0.006	0.006	0.006	9.988010775756836	0.4082113830566406	-0.17477672119140625	6.21795654296875	-6.23321533203125	-0.61798095703125	9.613916766357422	0.38666356811523434	0.15023615417480468	0.392913818359375	-4.962921142578125	-2.60162353515625	9.743802206420899	0.24959552307128904	-0.2041056915283203	3.925323486328125	-4.547119140625	-2.124786376953125	
256	1.024	0.0	0.0	0.0	0.0	0.006	0.003	0.006	0.006	9.945513696289062	-0.2537853759765625	0.04369418029785156	6.885528564453125	-6.21795654296875	-0.732421875	9.853935482788085	0.3333925811767578	0.10594342346191406	0.194549560546875	-5.18798828125	-3.131866455078125	10.151415039062499	-0.06344634399414062	-0.4273649963378906	3.749847412109375	-4.451751708984375	-2.2430419921875	
257	1.028	0.0	0.0	0.0	0.0	0.006	0.003	0.003	0.009000000000000001	9.995193380737303	0.07302315063476562	-0.19033903198242186	5.313873291015625	-5.863189697265625	-0.942230224609375	9.758765966796874	0.25917232971191406	0.15861585998535155	-0.02288818359375	-4.962921142578125	-2.780914306640625	9.764751470947266	-0.009576806640625	0.13407529296874998	3.627777099609375	-4.26483154296875	-2.452850341796875	
258	1.032	0.0	0.0	0.0	0.0	0.003	0.006	0.003	0.003	9.879673150634765	0.12569558715820311	0.08020575561523437	6.49261474609375	-5.859375	-0.789642333984375	9.67856021118164	0.5015852478027344	0.15322890625	0.32806396484375	-4.73785400390625	-2.941131591796875	9.821613760375977	0.1640028137207031	-0.3094505645751953	3.566741943359375	-4.390716552734375	-2.033233642578125	
259	1.036	0.0	0.0	0.0	0.0	0.003	0.003	0.003	0.003	10.01015714111328	0.31543606872558594	-0.2442085693359375	4.547119140625	-4.94384765625	-1.10626220703125	9.76235726928711	0.2088940948486328	0.17597382202148437	0.553131103515625	-5.176544189453125	-2.887725830078125	9.891045608520507	-0.032920272827148434	0.0526724365234375	3.620147705078125	-4.474639892578125	-1.880645751953125	
260	1.04	0.0	0.0	0.0	0.0	0.003	0.003	0.003	0.003	10.008960040283203	-0.21068974609375	-0.03651157531738281	6.847381591796875	-6.4697265625	-0.78582763671875	9.96586441040039	0.2472013214111328	-0.028131869506835935	0.514984130859375	-4.8370361328125	-3.04412841796875	10.15740054321289	-0.1083376251220703	-0.2088940948486328	3.7078857421875	-4.31060791015625	-2.31170654296875	
261	1.044	0.0	0.0	0.0	0.0	0.003	0.003	0.003	0.006	9.802460147094726	-0.556053335571289	0.14784195251464843	3.360748291015625	-4.09698486328125	-0.988006591796875	9.711480484008788	0.488417138671875	0.15741875915527342	0.41961669921875	-4.985809326171875	-2.83050537109375	9.889249957275391	0.022146365356445312	-0.20171148986816406	3.70025634765625	-4.49371337890625	-1.91497802734375	
262	1.048	0.0	0.0	0.0	0.0	0.006	0.003	0.006	0.003	9.947907897949218	-0.22026655273437498	0.0047884033203125	6.011962890625	-5.92041015625	-0.7476806640625	9.851541281127929	0.3489548919677734	0.02693476867675781	0.3662109375	-4.741668701171875	-2.55584716796875	9.944316595458984	0.17058686828613281	-0.18076222534179687	3.65447998046875	-4.131317138671875	-1.865386962890625	
263	1.052	0.0	0.0	0.0	0.0	0.003	0.003	0.006	0.003	9.853336932373047	-0.6536170532226562	0.19812018737792966	3.711700439453125	-4.53948974609375	-0.965118408203125	9.95389340209961	0.2807201446533203	0.2184709014892578	0.030517578125	-5.096435546875	-2.685546875	10.296264239501953	-0.29927520751953124	-0.14484920043945312	3.658294677734375	-4.58526611328125	-1.89208984375	
264	1.056	0.0	0.0	0.0	0.0	0.006	0.006	0.003	0.003	9.753977563476562	-0.2537853759765625	0.0939724151611328	-0.457763671875	-1.216888427734375	-1.110076904296875	9.87668039855957	0.3794809631347656	-0.044891281127929686	0.675201416015625	-4.85992431640625	-3.437042236328125	10.230423693847655	0.01975216369628906	-0.4542997650146484	3.63922119140625	-4.39453125	-2.277374267578125	
265	1.06	0.0	0.0	0.0	0.0	0.003	0.003	0.003	0.006	9.713276135253906	-0.6637924102783203	0.32022447204589843	0.6561279296875	-2.475738525390625	-0.751495361328125	9.695319622802733	0.43993455505371093	0.24839842224121092	0.08392333984375	-4.791259765625	-2.407073974609375	9.892841259765625	0.10414777221679687	-0.14425065002441406	3.76129150390625	-4.795074462890625	-1.67083740234375	
266	1.064	0.0	0.0	0.0	0.0	0.006	0.003	0.003	0.003	9.763554370117188	-0.5698199951171875	0.16460136413574217	-3.39508056640625	0.29754638671875	-0.698089599609375	9.950302099609374	0.42018239135742186	0.14006079711914063	0.759124755859375	-5.016326904296875	-2.941131591796875	10.414777221679687	-0.03651157531738281	-0.4375403533935547	3.5858154296875	-4.50897216796875	-2.086639404296875	
267	1.068	0.0	0.0	0.0	0.0	0.006	0.003	0.003	0.003	9.76116016845703	-0.7793126403808593	0.3711012573242187	-0.5340576171875	-1.82342529296875	-0.850677490234375	9.840168823242188	0.3651157531738281	0.3142389678955078	0.0457763671875	-4.53948974609375	-3.12042236328125	10.276512075805664	-0.1197100830078125	-0.16759411621093748	3.76129150390625	-4.7607421875	-2.29644775390625	
268	1.072	0.0	0.0	0.0	0.0	0.003	0.003	0.006	0.003	9.717465988159178	0.12389993591308593	0.29568390502929687	-2.8839111328125	0.51116943359375	-0.804901123046875	9.706692080688477	0.7697358337402344	0.09935936889648436	1.0986328125	-4.7760009765625	-3.0975341796875	10.067617980957031	0.28490999755859375	-0.49380409240722656	3.41033935546875	-4.322052001953125	-2.3040771484375	
269	1.076	0.0	0.0	0.0	0.0	0.0	0.003	0.006	0.003	9.814431155395507	0.5165490081787109	0.2807201446533203	0.995635986328125	-2.483367919921875	-0.957489013671875	9.673173257446289	0.4213794921875	0.5117606048583984	-0.00762939453125	-4.5623779296875	-2.6702880859375	10.025719451904296	0.16041151123046873	0.017357962036132813	3.45611572265625	-4.467010498046875	-1.621246337890625	
270	1.08	0.0	0.0	0.0	0.0	0.003	0.006	0.003	0.006	9.888052856445311	0.0005985504150390625	0.14604630126953125	-2.780914306640625	0.438690185546875	-0.835418701171875	10.019135397338866	0.5051765502929687	0.12389993591308593	-0.05340576171875	-4.756927490234375	-3.093719482421875	10.497377178955077	-0.1304839904785156	-0.5159504577636719	3.59344482421875	-4.978179931640625	-2.3651123046875	
271	1.084	0.0	0.0	0.0	0.0	0.003	0.006	0.003	0.003	9.959280355834961	0.5734112976074218	-0.05746083984375	2.841949462890625	-3.50189208984375	-1.18255615234375	9.598354455566406	0.4752490295410156	0.43634325256347656	-0.40435791015625	-4.608154296875	-3.238677978515625	9.862315188598632	0.32082302246093747	-0.07122749938964844	3.520965576171875	-4.566192626953125	-2.109527587890625	
272	1.088	0.0	0.0	0.0	0.0	0.003	0.003	0.003	0.003	9.87608184814453	0.3124433166503906	0.17597382202148437	7.9193115234375	-7.33184814453125	-0.7781982421875	9.651026892089844	0.6482300994873047	0.21308394775390624	0.057220458984375	-4.96673583984375	-2.788543701171875	9.680954412841796	0.03172317199707031	-0.11013327636718749	3.719329833984375	-4.680633544921875	-2.0599365234375	
273	1.092	0.0	0.0	0.0	0.0	0.003	0.003	0.006	0.003	10.071209283447265	0.3010708587646484	-0.15083470458984374	5.43212890625	-5.451202392578125	-0.8392333984375	9.866505041503906	0.105344873046875	0.3573345977783203	0.31280517578125	-4.8980712890625	-2.58636474609375	10.250175857543944	-0.005985504150390624	-0.0652419952392578	3.650665283203125	-4.76837158203125	-1.99127197265625	
274	1.096	0.0	0.0	0.0	0.0	0.003	0.003	0.003	0.006	9.988010775756836	-0.0053869537353515625	-0.29568390502929687	7.57598876953125	-7.13348388671875	-1.0833740234375	9.859322436523437	0.6314706878662109	-0.1592144104003906	0.118255615234375	-4.817962646484375	-2.70843505859375	10.033500607299803	-0.14604630126953125	-0.5045779998779296	3.631591796875	-4.528045654296875	-2.410888671875	
275	1.1	0.0	0.0	0.0	0.0	0.009000000000000001	0.003	0.003	0.003	9.879074600219726	0.3226186737060547	0.04129997863769531	6.427764892578125	-6.488800048828125	-0.89263916015625	9.488221179199218	0.37409400939941406	0.36391865234375	0.049591064453125	-4.741668701171875	-3.047943115234375	9.546280569458007	0.48243163452148435	0.12868833923339842	3.936767578125	-4.5166015625	-2.00653076171875	
276	1.104	0.0	0.0	0.0	0.0	0.006	0.006	0.006	0.003	9.79946739501953	-0.1083376251220703	0.23523031311035156	5.462646484375	-5.6915283203125	-0.6561279296875	9.896432562255859	0.42317514343261714	-0.012569558715820313	0.568389892578125	-5.031585693359375	-2.838134765625	10.115502014160155	-0.3016694091796875	-0.24001871643066405	3.704071044921875	-5.130767822265625	-2.101898193359375	
277	1.108	0.0	0.0	0.0	0.0	0.003	0.003	0.006	0.006	9.882067352294921	-0.6476315490722656	0.076614453125	2.117156982421875	-3.0975341796875	-1.06048583984375	9.879673150634765	0.2932897033691406	0.08140285644531249	0.49591064453125	-4.87518310546875	-3.48663330078125	10.033500607299803	0.13646949462890623	-0.07062894897460938	4.055023193359375	-4.810333251953125	-2.410888671875	
278	1.112	0.0	0.0	0.0	0.0	0.003	0.003	0.003	0.006	9.704896429443359	0.05327098693847656	0.29089550170898437	3.345489501953125	-3.910064697265625	-0.93841552734375	9.584587796020507	0.5165490081787109	0.1897404815673828	0.270843505859375	-4.75311279296875	-3.002166748046875	9.680954412841796	0.029328970336914062	0.03172317199707031	3.597259521484375	-4.3487548828125	-2.170562744140625	
279	1.116	0.0	0.0	0.0	0.0	0.003	0.006	0.003	0.006	9.745597857666015	-0.22445640563964842	0.37708676147460934	2.254486083984375	-3.326416015625	-0.31280517578125	9.654618194580078	0.36810850524902344	0.43933600463867184	0.537872314453125	-5.123138427734375	-3.25775146484375	9.743203656005859	0.19812018737792966	0.20051438903808594	3.574371337890625	-4.913330078125	-2.346038818359375	
280	1.12	0.0	0.0	0.0	0.0	0.009000000000000001	0.003	0.003	0.006	9.993996279907225	-0.07242460021972656	-0.04848258361816406	1.922607421875	-3.299713134765625	-0.95367431640625	9.93294413757324	0.21487959899902342	-0.0718260498046875	0.339508056640625	-5.0506591796875	-3.0059814453125	10.057442623901366	-0.20231004028320312	-0.034715924072265626	3.574371337890625	-4.596710205078125	-1.9989013671875	
281	1.124	0.0	0.0	0.0	0.0	0.006	0.003	0.006	0.003	9.91498762512207	-0.06763619689941405	0.008379705810546874	4.924774169921875	-5.19561767578125	-0.9918212890625	9.78629928588867	0.4177881896972656	0.0718260498046875	0.461578369140625	-4.47845458984375	-2.864837646484375	9.71686743774414	0.23822306518554687	-0.08140285644531249	3.757476806640625	-4.100799560546875	-2.658843994140625	
282	1.1280000000000001	0.0	0.0	0.0	0.0	0.006	0.003	0.006	0.003	9.855731134033203	-0.2771288421630859	0.09157821350097656	4.100799560546875	-4.79888916015625	-0.640869140625	9.598953005981445	0.4495113616943359	0.21607669982910155	0.263214111328125	-5.092620849609375	-2.712249755859375	9.604938510131836	0.0796072052001953	0.20470424194335937	3.692626953125	-4.932403564453125	-2.040863037109375	
283	1.1320000000000001	0.0	0.0	0.0	0.0	0.006	0.006	0.003	0.003	9.938929641723632	-0.19572598571777342	0.11731588134765625	6.763458251953125	-6.52313232421875	-1.010894775390625	9.827599264526366	0.2902969512939453	0.25917232971191406	0.2593994140625	-4.550933837890625	-2.727508544921875	10.137049829101562	-0.13168109130859373	-0.14006079711914063	3.83758544921875	-4.5013427734375	-2.2430419921875	
284	1.1360000000000001	0.0	0.0	0.0	0.0	0.003	0.003	0.003	0.006	10.005967288208007	-0.5410895751953124	-0.03890577697753906	3.757476806640625	-4.5013427734375	-1.13677978515625	9.968258612060547	0.2747346405029297	0.10295067138671875	0.324249267578125	-4.8370361328125	-2.979278564453125	9.962871658325195	0.023343466186523436	-0.09696516723632811	3.60870361328125	-4.390716552734375	-2.2735595703125	
285	1.1400000000000001	0.0	0.0	0.0	0.0	0.003	0.003	0.003	0.006	9.725845693969726	-0.15023615417480468	0.3286041778564453	1.209259033203125	-2.399444580078125	-0.67138671875	9.56363853149414	0.5135562561035156	0.3076549133300781	0.41961669921875	-4.550933837890625	-3.07464599609375	9.81862100830078	0.06284779357910156	-0.0939724151611328	3.955841064453125	-4.398345947265625	-2.330780029296875	
286	1.1440000000000001	0.0	0.0	0.0	0.0	0.009000000000000001	0.006	0.003	0.006	9.891644158935547	-0.3076549133300781	0.1657984649658203	2.277374267578125	-3.6773681640625	-0.7781982421875	9.83897172241211	0.3399766357421875	0.29089550170898437	0.560760498046875	-5.558013916015625	-2.54058837890625	10.04846436767578	0.2753331909179687	-0.06284779357910156	3.719329833984375	-4.8980712890625	-1.79290771484375	
287	1.1480000000000001	0.0	0.0	0.0	0.0	0.003	0.006	4.626	4.596	9.977236868286132	-0.575206948852539	-0.10654197387695312	1.087188720703125	-2.62451171875	-0.743865966796875	10.136451278686522	0.4159925384521484	-0.12689268798828124	0.946044921875	-4.802703857421875	-2.98309326171875	10.273519323730468	-0.3016694091796875	-0.3794809631347656	3.841400146484375	-4.39453125	-2.346038818359375	
288	1.1520000000000001	0.0	0.0	0.0	0.0	4.602	4.644	4.647	4.602	9.897031112670899	-0.38845921936035155	0.08738836059570312	2.765655517578125	-3.62396240234375	-0.67901611328125	9.742605105590819	0.42317514343261714	0.24779987182617186	0.152587890625	-5.0201416015625	-2.66265869140625	10.002375985717773	0.3591302490234375	-0.17178396911621094	3.5552978515625	-4.627227783203125	-2.147674560546875	
289	1.156	0.0	0.0	0.0	0.0	4.599	4.644	4.644	4.602	9.725247143554688	-0.17477672119140625	0.24839842224121092	1.0528564453125	-2.620697021484375	-0.7781982421875	9.789890588378906	0.6141127258300781	0.15562310791015624	0.74005126953125	-4.96673583984375	-2.9296875	10.054449871826172	-0.020949264526367185	-0.32561142578124996	3.833770751953125	-4.57763671875	-1.68609619140625	
290	1.16	0.0	0.0	0.0	0.0	4.596	4.647	4.641	4.6080000000000005	9.713276135253906	0.03411737365722656	0.3274070770263672	1.903533935546875	-3.086090087890625	-0.9918212890625	10.10712230834961	0.2609679809570312	0.3124433166503906	0.240325927734375	-5.11932373046875	-2.62451171875	10.305841046142577	0.1610100616455078	-0.2747346405029297	3.734588623046875	-5.008697509765625	-1.9073486328125	
291	1.164	0.0	0.0	0.0	0.0	4.6080000000000005	4.647	4.647	4.59	9.852139831542969	-0.258573779296875	0.017357962036132813	1.678466796875	-2.658843994140625	-0.98419189453125	9.926360083007811	0.5207388610839844	-0.04189852905273437	0.8544921875	-4.638671875	-3.11279296875	10.340556970214843	-0.19812018737792966	-0.5835866546630859	3.7994384765625	-4.60052490234375	-2.20489501953125	
292	1.168	0.0	0.0	0.0	0.0	4.611	4.647	4.644	4.578	9.558850128173827	0.17477672119140625	0.36212300109863277	1.09100341796875	-2.73895263671875	-0.67901611328125	9.515754498291015	0.632667788696289	0.3812766143798828	0.091552734375	-5.06591796875	-2.666473388671875	9.910797772216796	0.33518823242187495	0.0053869537353515625	3.62396240234375	-4.383087158203125	-2.429962158203125	
293	1.172	0.0	0.0	0.0	0.0	4.6080000000000005	4.644	4.647	4.59	9.888651406860351	-0.21188684692382811	-0.020949264526367185	2.0599365234375	-3.48663330078125	-0.61798095703125	10.029310754394531	0.4525041137695312	-0.12330138549804687	0.52642822265625	-5.04302978515625	-3.078460693359375	10.324994659423828	-0.15861585998535155	-0.536899722290039	3.971099853515625	-4.669189453125	-1.796722412109375	
294	1.176	0.0	0.0	0.0	0.0	4.614	4.647	4.65	4.605	9.784503634643555	0.08140285644531249	0.07362170104980469	2.788543701171875	-3.3721923828125	-1.15203857421875	9.859322436523437	0.43574470214843747	0.07062894897460938	-0.23651123046875	-4.98199462890625	-2.532958984375	10.168773001098632	0.06105214233398437	-0.26336218261718747	3.597259521484375	-4.60052490234375	-2.43377685546875	
295	1.18	0.0	0.0	0.0	0.0	4.602	4.647	4.647	4.605	9.829394915771484	-0.13168109130859373	0.029328970336914062	0.12969970703125	-2.1209716796875	-0.92315673828125	9.810241302490233	0.4471171600341797	-0.05386953735351562	0.54168701171875	-5.130767822265625	-3.131866455078125	10.040084661865233	0.02154781494140625	-0.4608838195800781	3.635406494140625	-4.669189453125	-1.9378662109375	
296	1.184	0.0	0.0	0.0	0.0	4.602	4.644	4.647	4.605	9.593566052246093	-0.07541735229492187	0.3190273712158203	1.651763916015625	-3.1280517578125	-0.6103515625	9.690531219482422	0.565630142211914	0.20231004028320312	0.19073486328125	-5.092620849609375	-2.239227294921875	9.900023864746093	0.18614917907714842	-0.10714052429199218	3.36456298828125	-4.962921142578125	-2.23541259765625	
297	1.188	0.0	0.0	0.0	0.0	4.605	0.003	0.006	0.003	9.950302099609374	-0.2705447875976562	-0.06703764648437499	-0.3204345703125	-1.67083740234375	-0.701904296875	10.051457119750976	0.28969840087890625	-0.1849520782470703	0.629425048828125	-4.802703857421875	-3.34930419921875	10.301052642822265	0.033518823242187495	-0.5614402893066406	3.63922119140625	-4.89044189453125	-1.8310546875	
298	1.192	0.0	0.0	0.0	0.0	0.003	0.003	0.003	0.006	9.568426934814452	-0.013168109130859374	0.3094505645751953	1.1749267578125	-2.62451171875	-1.041412353515625	9.706692080688477	0.5117606048583984	0.12090718383789062	0.20599365234375	-4.413604736328125	-3.185272216796875	9.952696301269532	0.076614453125	-0.17477672119140625	3.47137451171875	-4.581451416015625	-2.31170654296875	
299	1.196	0.0	0.0	0.0	0.0	0.003	0.003	0.003	0.003	9.743203656005859	0.09157821350097656	0.19812018737792966	-0.41961669921875	-1.68609619140625	-0.98419189453125	9.70968483276367	0.517746109008789	0.14903905334472656	0.530242919921875	-5.16510009765625	-3.131866455078125	9.749189160156249	0.27892449340820313	-0.05746083984375	3.841400146484375	-4.825592041015625	-1.995086669921875	
300	1.2	0.0	0.0	0.0	0.0	-0.003	0.003	0.003	0.003	9.89523546142578	-0.1897404815673828	0.0047884033203125	1.4190673828125	-2.803802490234375	-0.736236572265625	9.816226806640625	0.43514615173339843	0.17477672119140625	0.29754638671875	-4.63104248046875	-3.31878662109375	9.894038360595703	-0.13467384338378904	-0.18315642700195311	3.570556640625	-4.306793212890625	-2.124786376953125	
301	1.204	0.0	0.0	0.0	0.0	0.003	0.003	0.003	0.003	9.95987890625	0.033518823242187495	-0.06823474731445311	-0.324249267578125	-1.15966796875	-0.751495361328125	9.85094273071289	0.2059013427734375	0.017357962036132813	0.118255615234375	-4.688262939453125	-3.13568115234375	10.067617980957031	0.07900865478515624	-0.3064578125	3.543853759765625	-4.669189453125	-2.227783203125	
302	1.208	0.0	0.0	0.0	0.0	0.006	0.006	0.006	0.006	9.839570272827148	0.16160861206054686	0.044292730712890624	2.925872802734375	-3.772735595703125	-1.06048583984375	9.551667523193359	0.6015431671142578	0.3232172241210937	0.232696533203125	-4.608154296875	-3.34930419921875	9.521740002441407	0.0909796630859375	0.1352723937988281	3.60870361328125	-4.2877197265625	-2.132415771484375	
303	1.212	0.0	0.0	0.0	0.0	0.006	0.006	0.003	0.003	9.958083255004881	-0.02633621826171875	-0.21966800231933592	6.04248046875	-5.88226318359375	-0.720977783203125	9.719261639404296	0.2651578338623047	0.19153613281249998	0.026702880859375	-5.260467529296875	-2.719879150390625	9.783905084228515	0.07122749938964844	-0.08439560852050781	3.414154052734375	-4.73785400390625	-2.09808349609375	
304	1.216	0.0	0.0	0.0	0.0	0.003	0.003	0.003	0.006	10.041281762695311	-0.06584054565429687	-0.16819266662597654	4.573822021484375	-4.611968994140625	-0.885009765625	9.87668039855957	0.2807201446533203	0.011372457885742187	0.1373291015625	-4.718780517578125	-3.0975341796875	9.966462960815429	-0.0909796630859375	-0.10235212097167969	3.658294677734375	-4.314422607421875	-2.086639404296875	
305	1.22	0.0	0.0	0.0	0.0	0.003	0.003	0.003	0.003	9.964667309570311	0.1562216583251953	-0.19692308654785154	7.205963134765625	-6.748199462890625	-1.10626220703125	9.60793126220703	0.20949264526367187	0.2214636535644531	0.17547607421875	-4.608154296875	-2.9296875	9.752780462646484	0.006584054565429687	-0.04848258361816406	3.475189208984375	-4.5318603515625	-2.5482177734375	
306	1.224	0.0	0.0	0.0	0.0	0.003	0.006	0.003	0.006	9.903615167236328	0.16639701538085935	-0.007781155395507812	4.840850830078125	-5.3558349609375	-0.713348388671875	9.610325463867188	0.5698199951171875	0.11731588134765625	0.415802001953125	-4.99725341796875	-2.7923583984375	9.704896429443359	0.18255787658691405	-0.00239420166015625	3.627777099609375	-4.680633544921875	-2.002716064453125	
