	time	dac1	dac2	dac3	dac4	adc1.3	adc2.3	adc3.3	adc4.3	imu1accx	imu1accy	imu1accz	imu1gyrox	imu1gyroy	imu1gyroz	imu2accx	imu2accy	imu2accz	imu2gyrox	imu2gyroy	imu2gyroz	imu3accx	imu3accy	imu3accz	imu3gyrox	imu3gyroy	imu3gyroz	log
0	0.0	0.0	0.0	0.0	0.0	0.003	0.003	0.003	0.006	9.875483297729492	-0.1640028137207031	0.12449848632812499	2.796173095703125	-3.635406494140625	-1.0528564453125	9.785102185058593	0.354341845703125	0.2088940948486328	0.2593994140625	-4.63104248046875	-2.98309326171875	10.014945544433592	0.001197100830078125	-0.08379705810546874	3.673553466796875	-4.627227783203125	-2.185821533203125	Estabilizou em 6s, 1044 rpm
1	0.004	0.0	0.0	0.0	0.0	0.006	0.003	0.003	0.003	9.861716638183593	-0.1640028137207031	0.13287819213867186	2.51007080078125	-3.63922119140625	-0.934600830078125	9.785102185058593	0.36212300109863277	0.20769699401855468	0.274658203125	-4.909515380859375	-2.93731689453125	9.998784683227539	0.015562310791015624	-0.08319850769042968	3.467559814453125	-4.566192626953125	-2.079010009765625	Started
2	0.008	0.0	0.0	0.0	0.0	0.003	0.003	0.006	0.003	9.865906491088866	-0.16220716247558592	0.11671733093261719	2.52532958984375	-3.543853759765625	-0.72479248046875	9.777919580078125	0.37768531188964843	0.1975216369628906	0.247955322265625	-4.69970703125	-2.864837646484375	9.9981861328125	0.03531447448730469	-0.09217676391601562	3.50189208984375	-4.61578369140625	-2.03704833984375	IMU1|LSM6DS3|0x6A|I2C-1|±2g (±19,6m/s²)|±125º/s|400Hz
3	0.012	0.0	0.0	0.0	0.0	0.003	0.003	0.006	0.003	9.873687646484374	-0.15562310791015624	0.10295067138671875	2.60162353515625	-3.74603271484375	-0.91552734375	9.783905084228515	0.36810850524902344	0.1849520782470703	0.278472900390625	-4.840850830078125	-2.92205810546875	10.00417163696289	0.020350714111328123	-0.08858546142578125	3.467559814453125	-4.6539306640625	-2.109527587890625	IMU2|LSM6DS3|0x6B|I2C-1|±2g (±19,6m/s²)|±125º/s|400Hz
4	0.016	0.0	0.0	0.0	0.0	0.003	0.006	0.003	0.006	9.878476049804688	-0.15203180541992187	0.10953472595214843	2.681732177734375	-3.551483154296875	-0.888824462890625	9.783905084228515	0.37768531188964843	0.20171148986816406	0.141143798828125	-4.978179931640625	-2.79998779296875	10.018536846923828	0.017956512451171875	-0.07721300354003906	3.42559814453125	-4.57763671875	-2.048492431640625	IMU3|LSM6DS3|0x6B|I2C-2|±2g (±19,6m/s²)|±125º/s|400Hz
5	0.02	0.0	0.0	0.0	0.0	0.006	0.003	0.003	0.003	9.883264453125	-0.1484405029296875	0.0939724151611328	2.460479736328125	-3.65447998046875	-1.12152099609375	9.804255798339844	0.3950432739257812	0.19333178405761717	0.186920166015625	-5.18035888671875	-2.95257568359375	10.022128149414062	0.03232172241210937	-0.08499415893554688	3.467559814453125	-4.817962646484375	-2.170562744140625	ADC|ADS1015|0|0|1|0|±6,144 V|2400 SPS
6	0.024	0.0	0.0	0.0	0.0	0.006	0.003	0.003	0.006	9.885060104370117	-0.14006079711914063	0.07841010437011718	2.574920654296875	-3.795623779296875	-0.98419189453125	9.785102185058593	0.3872621185302734	0.1867477294921875	0.14495849609375	-4.833221435546875	-2.8533935546875	10.015544094848632	0.044891281127929686	-0.08020575561523437	3.582000732421875	-4.405975341796875	-1.94549560546875	Gen1|Disabled
7	0.028	0.0	0.0	0.0	0.0	0.003	0.006	0.003	0.003	9.85752678527832	-0.14544775085449219	0.076614453125	2.349853515625	-3.582000732421875	-0.888824462890625	9.775525378417969	0.3890577697753906	0.1897404815673828	0.286102294921875	-4.791259765625	-2.994537353515625	10.004770187377929	0.028131869506835935	-0.06643909606933593	3.56292724609375	-4.5623779296875	-2.1209716796875	Gen2|Enabled|Noise|0.0|10.0|1668
8	0.032	0.0	0.0	0.0	0.0	0.003	0.003	0.003	0.006	9.855731134033203	-0.1274912384033203	0.05686228942871093	2.7618408203125	-3.948211669921875	-1.01470947265625	9.77432827758789	0.39983167724609375	0.17357962036132812	0.362396240234375	-4.825592041015625	-2.95257568359375	9.999981784057617	0.03890577697753906	-0.08379705810546874	3.65447998046875	-4.413604736328125	-2.01416015625	Gen3|Enabled|Noise|0.0|10.0|128
9	0.036000000000000004	0.0	0.0	0.0	0.0	0.003	0.003	0.003	0.003	9.865906491088866	-0.11671733093261719	0.037110125732421874	2.70843505859375	-3.326416015625	-0.96893310546875	9.782109432983399	0.4225765930175781	0.15023615417480468	0.244140625	-5.107879638671875	-2.887725830078125	10.011354241943359	0.05566518859863281	-0.11432312927246092	3.60870361328125	-4.856109619140625	-2.00653076171875	Gen4|Enabled|Noise|0.0|10.0|128
10	0.04	0.0	0.0	0.0	0.0	0.003	0.003	0.003	0.003	9.874884747314452	-0.11372457885742186	0.03411737365722656	2.696990966796875	-3.833770751953125	-0.576019287109375	9.787496386718749	0.4100070343017578	0.143652099609375	0.492095947265625	-5.130767822265625	-3.131866455078125	10.020931048583984	0.05566518859863281	-0.12030863342285156	3.5858154296875	-4.32586669921875	-2.048492431640625	Ctrl|Disabled
11	0.044	0.0	0.0	0.0	0.0	0.003	0.006	0.003	0.006	9.882067352294921	-0.09995791931152344	0.015562310791015624	2.788543701171875	-3.696441650390625	-0.91552734375	9.785700735473633	0.43035774841308594	0.12030863342285156	0.438690185546875	-4.764556884765625	-2.9296875	10.017938296508788	0.07541735229492187	-0.13467384338378904	3.833770751953125	-4.741668701171875	-2.105712890625	
12	0.048	0.0	0.0	0.0	0.0	0.003	0.006	0.003	0.003	9.881468801879882	-0.08918401184082031	0.013168109130859374	2.750396728515625	-3.681182861328125	-0.743865966796875	9.78689783630371	0.4531026641845703	0.10235212097167969	0.3814697265625	-4.63104248046875	-2.9754638671875	10.005967288208007	0.10295067138671875	-0.17118541870117188	3.6468505859375	-4.7760009765625	-2.117156982421875	
13	0.052000000000000005	0.0	0.0	0.0	0.0	0.006	0.003	0.006	0.003	9.86411083984375	-0.08319850769042968	0.01915361328125	2.5482177734375	-3.41033935546875	-0.751495361328125	9.78031378173828	0.4656722229003906	0.10414777221679687	0.45013427734375	-4.756927490234375	-2.73895263671875	9.998784683227539	0.10414777221679687	-0.20171148986816406	3.79180908203125	-4.4403076171875	-2.1820068359375	
14	0.056	0.0	0.0	0.0	0.0	0.003	0.006	0.003	0.003	9.868899243164062	-0.0718260498046875	0.0053869537353515625	2.75421142578125	-3.6773681640625	-1.07574462890625	9.777919580078125	0.4674678741455078	0.08858546142578125	0.335693359375	-5.096435546875	-2.918243408203125	10.011354241943359	0.11013327636718749	-0.20709844360351562	3.753662109375	-4.82177734375	-2.20489501953125	
15	0.06	0.0	0.0	0.0	0.0	0.006	0.003	0.003	0.006	9.868899243164062	-0.052073886108398436	-0.0017956512451171875	2.60162353515625	-3.51715087890625	-0.881195068359375	9.791087689208984	0.48183308410644526	0.07481880187988281	0.40435791015625	-4.82177734375	-2.925872802734375	10.031704956054687	0.12689268798828124	-0.2262520568847656	3.6163330078125	-4.46319580078125	-1.93023681640625	
16	0.064	0.0	0.0	0.0	0.0	0.006	0.006	0.006	0.003	9.88266590270996	-0.0526724365234375	-0.0053869537353515625	2.593994140625	-3.650665283203125	-1.03759765625	9.784503634643555	0.4752490295410156	0.06703764648437499	0.3204345703125	-4.8828125	-2.92205810546875	10.031106405639648	0.13407529296874998	-0.22026655273437498	3.57818603515625	-4.482269287109375	-2.044677734375	
17	0.068	0.0	0.0	0.0	0.0	0.006	0.003	0.003	0.006	9.871293444824218	-0.0526724365234375	-0.0053869537353515625	2.70843505859375	-3.5247802734375	-0.827789306640625	9.783306533813477	0.46806642456054687	0.09337386474609374	0.400543212890625	-4.82940673828125	-2.8228759765625	10.018536846923828	0.1227028350830078	-0.21188684692382811	3.62396240234375	-4.550933837890625	-2.086639404296875	
18	0.07200000000000001	0.0	0.0	0.0	0.0	0.006	0.003	0.006	0.003	9.858125335693359	-0.05626373901367187	0.010773907470703125	2.6397705078125	-3.612518310546875	-0.9765625	9.770736975097655	0.4782417816162109	0.09457096557617187	0.3509521484375	-4.6844482421875	-2.87628173828125	10.015544094848632	0.1322796417236328	-0.20709844360351562	3.871917724609375	-4.76837158203125	-2.0751953125	
19	0.076	0.0	0.0	0.0	0.0	0.003	0.006	0.003	0.003	9.868300692749022	-0.061650692749023434	0.020350714111328123	2.349853515625	-3.41796875	-0.9002685546875	9.773131176757811	0.4686649749755859	0.09696516723632811	0.3509521484375	-5.008697509765625	-2.925872802734375	10.017938296508788	0.11671733093261719	-0.19093758239746092	3.643035888671875	-4.52423095703125	-1.9683837890625	
20	0.08	0.0	0.0	0.0	0.0	0.009000000000000001	0.003	0.003	0.006	9.87608184814453	-0.07841010437011718	0.0383072265625	2.429962158203125	-3.4942626953125	-0.926971435546875	9.785102185058593	0.45489831542968745	0.11073182678222655	0.213623046875	-4.894256591796875	-2.8533935546875	10.01015714111328	0.10714052429199218	-0.17058686828613281	3.688812255859375	-4.634857177734375	-2.0904541015625	
21	0.084	0.0	0.0	0.0	0.0	0.009000000000000001	0.006	0.003	0.006	9.880271701049804	-0.08858546142578125	0.029927520751953124	2.544403076171875	-3.71551513671875	-0.823974609375	9.789890588378906	0.4537012145996093	0.12629413757324218	0.064849853515625	-4.558563232421875	-2.986907958984375	10.016142645263672	0.10594342346191406	-0.15263035583496093	3.376007080078125	-4.657745361328125	-2.0751953125	
22	0.088	0.0	0.0	0.0	0.0	0.003	0.003	0.003	0.003	9.8694977935791	-0.09816226806640624	0.034715924072265626	2.475738525390625	-3.3416748046875	-0.759124755859375	9.78629928588867	0.4369418029785156	0.13766659545898435	0.423431396484375	-5.023956298828125	-3.0059814453125	10.011354241943359	0.08439560852050781	-0.12150573425292968	3.65447998046875	-4.619598388671875	-2.010345458984375	
23	0.092	0.0	0.0	0.0	0.0	0.006	0.003	0.003	0.003	9.858723886108399	-0.10354922180175781	0.05746083984375	2.349853515625	-3.810882568359375	-0.6256103515625	9.779715231323241	0.4207809417724609	0.16460136413574217	0.1983642578125	-4.638671875	-2.895355224609375	10.007762939453125	0.07062894897460938	-0.10115502014160156	3.589630126953125	-4.673004150390625	-2.086639404296875	
24	0.096	0.0	0.0	0.0	0.0	0.006	0.003	0.006	0.003	9.861118087768554	-0.12689268798828124	0.08738836059570312	2.6092529296875	-3.467559814453125	-0.865936279296875	9.778518130493163	0.41060558471679687	0.1849520782470703	0.2288818359375	-4.82177734375	-2.948760986328125	10.002974536132811	0.051475335693359374	-0.08140285644531249	3.50189208984375	-4.6234130859375	-2.002716064453125	
25	0.1	0.0	0.0	0.0	0.0	0.003	0.003	0.006	0.003	9.861716638183593	-0.13168109130859373	0.08020575561523437	2.49481201171875	-3.73077392578125	-0.934600830078125	9.787496386718749	0.40402153015136716	0.1849520782470703	0.362396240234375	-4.76837158203125	-3.055572509765625	10.012551342773437	0.04369418029785156	-0.07541735229492187	3.6468505859375	-4.69207763671875	-2.094268798828125	
26	0.10400000000000001	0.0	0.0	0.0	0.0	0.006	0.006	0.003	0.006	9.873089096069336	-0.13587094421386717	0.0987608184814453	2.590179443359375	-3.597259521484375	-0.980377197265625	9.785102185058593	0.3854664672851562	0.1927332336425781	0.324249267578125	-4.92095947265625	-3.07464599609375	10.008361489868163	0.031124621582031248	-0.06284779357910156	3.662109375	-4.638671875	-1.9989013671875	
27	0.108	0.0	0.0	0.0	0.0	0.003	0.006	0.003	0.003	9.879673150634765	-0.1484405029296875	0.10594342346191406	2.50244140625	-3.490447998046875	-0.80108642578125	9.787496386718749	0.38666356811523434	0.20051438903808594	0.232696533203125	-4.96673583984375	-2.73895263671875	10.017938296508788	0.03232172241210937	-0.055066638183593745	3.688812255859375	-4.795074462890625	-2.044677734375	
28	0.112	0.0	0.0	0.0	0.0	0.003	0.003	0.006	0.003	9.874286196899414	-0.15382745666503905	0.1083376251220703	2.75421142578125	-3.551483154296875	-0.835418701171875	9.78031378173828	0.3764882110595703	0.20829554443359374	0.392913818359375	-5.107879638671875	-2.811431884765625	10.019135397338866	0.028730419921875	-0.06404489440917968	3.528594970703125	-4.459381103515625	-2.03704833984375	
29	0.116	0.0	0.0	0.0	0.0	0.006	0.006	0.003	0.006	9.860519537353515	-0.1580173095703125	0.11671733093261719	2.532958984375	-3.59344482421875	-0.9918212890625	9.779116680908203	0.37229835815429685	0.22206220397949217	0.30517578125	-5.115509033203125	-2.98309326171875	10.01733974609375	0.02693476867675781	-0.0718260498046875	3.719329833984375	-4.512786865234375	-2.155303955078125	
30	0.12	0.0	0.0	0.0	0.0	0.006	0.003	0.003	0.003	9.8694977935791	-0.15442600708007811	0.12509703674316405	2.7618408203125	-3.276824951171875	-0.81634521484375	9.783306533813477	0.3752911102294922	0.21966800231933592	0.6561279296875	-5.035400390625	-2.719879150390625	10.014945544433592	0.02154781494140625	-0.06284779357910156	3.902435302734375	-4.46319580078125	-2.1209716796875	
31	0.124	0.0	0.0	0.0	0.0	0.003	0.003	0.003	0.006	9.87069489440918	-0.15741875915527342	0.12389993591308593	2.72369384765625	-3.803253173828125	-1.056671142578125	9.787496386718749	0.3746925598144531	0.21068974609375	0.225067138671875	-4.85992431640625	-2.819061279296875	10.020931048583984	0.02154781494140625	-0.076614453125	3.72314453125	-4.550933837890625	-2.15911865234375	
32	0.128	0.0	0.0	0.0	0.0	0.003	0.006	0.003	0.003	9.868899243164062	-0.16041151123046873	0.11911153259277343	2.5177001953125	-3.47137451171875	-0.682830810546875	9.782707983398437	0.36930560607910157	0.2136824981689453	0.2288818359375	-4.772186279296875	-2.86865234375	10.017938296508788	0.017357962036132813	-0.0796072052001953	3.45611572265625	-4.38690185546875	-2.033233642578125	
33	0.132	0.0	0.0	0.0	0.0	0.003	0.006	0.003	0.006	9.859920986938477	-0.16519991455078123	0.12090718383789062	2.559661865234375	-3.536224365234375	-0.812530517578125	9.781510882568359	0.364517202758789	0.22206220397949217	0.0	-4.89044189453125	-2.8839111328125	10.013748443603514	0.0053869537353515625	-0.08080430603027343	3.482818603515625	-4.589080810546875	-2.025604248046875	
34	0.136	0.0	0.0	0.0	0.0	0.006	0.003	0.003	0.003	9.864709390258788	-0.17417817077636719	0.14006079711914063	2.529144287109375	-3.589630126953125	-0.9918212890625	9.775525378417969	0.35314474487304687	0.2154781494140625	0.423431396484375	-4.833221435546875	-2.895355224609375	10.001777435302733	0.003591302490234375	-0.08259995727539061	3.627777099609375	-4.688262939453125	-2.13623046875	
35	0.14	0.0	0.0	0.0	0.0	0.003	0.003	0.003	0.0	9.860519537353515	-0.17597382202148437	0.1370680450439453	2.55584716796875	-3.772735595703125	-0.911712646484375	9.782707983398437	0.3651157531738281	0.21727380065917967	0.202178955078125	-5.039215087890625	-2.887725830078125	10.007762939453125	0.011372457885742187	-0.08738836059570312	3.51715087890625	-4.69207763671875	-2.25830078125	
36	0.14400000000000002	0.0	0.0	0.0	0.0	0.006	0.003	0.003	0.006	9.872490545654296	-0.1771709228515625	0.13108254089355467	2.544403076171875	-3.559112548828125	-0.797271728515625	9.782109432983399	0.35673604736328124	0.21009119567871093	0.209808349609375	-4.7607421875	-2.9144287109375	10.00955859069824	-0.0005985504150390625	-0.08738836059570312	3.5552978515625	-4.573822021484375	-1.842498779296875	
37	0.148	0.0	0.0	0.0	0.0	0.003	0.003	0.003	0.006	9.873687646484374	-0.17956512451171874	0.1227028350830078	2.716064453125	-3.33404541015625	-0.698089599609375	9.782109432983399	0.3459621398925781	0.20231004028320312	0.301361083984375	-5.05828857421875	-3.093719482421875	10.014945544433592	0.0	-0.09457096557617187	3.57818603515625	-4.63104248046875	-2.086639404296875	
38	0.152	0.0	0.0	0.0	0.0	0.006	0.006	0.006	0.006	9.86291373901367	-0.17776947326660156	0.12689268798828124	2.635955810546875	-3.719329833984375	-0.919342041015625	9.781510882568359	0.3495534423828125	0.20051438903808594	0.156402587890625	-4.932403564453125	-2.99072265625	10.007164389038085	0.003591302490234375	-0.07721300354003906	3.490447998046875	-4.7149658203125	-2.2125244140625	
39	0.156	0.0	0.0	0.0	0.0	0.006	0.003	0.006	0.006	9.862315188598632	-0.17477672119140625	0.11013327636718749	2.41851806640625	-3.62396240234375	-0.965118408203125	9.784503634643555	0.3435679382324219	0.20231004028320312	0.270843505859375	-4.817962646484375	-2.777099609375	10.002974536132811	-0.012569558715820313	-0.08319850769042968	3.60107421875	-5.023956298828125	-2.140045166015625	
40	0.16	0.0	0.0	0.0	0.0	0.003	0.003	0.006	0.003	9.86411083984375	-0.18255787658691405	0.10773907470703124	2.368927001953125	-3.57818603515625	-0.629425048828125	9.788693487548828	0.3507505432128906	0.19931728820800781	0.240325927734375	-4.98199462890625	-2.8533935546875	10.00417163696289	-0.011971008300781249	-0.08200140686035155	3.47137451171875	-4.711151123046875	-2.086639404296875	
41	0.164	0.0	0.0	0.0	0.0	0.006	0.003	0.006	0.006	9.871293444824218	-0.17417817077636719	0.08738836059570312	2.727508544921875	-3.5858154296875	-0.743865966796875	9.784503634643555	0.36391865234375	0.18734627990722655	0.202178955078125	-4.84466552734375	-2.87628173828125	10.020332498168944	0.007781155395507812	-0.08499415893554688	3.59344482421875	-4.64630126953125	-1.964569091796875	
42	0.168	0.0	0.0	0.0	0.0	0.003	0.003	0.003	0.003	9.874884747314452	-0.1657984649658203	0.06943184814453125	2.52532958984375	-3.810882568359375	-0.827789306640625	9.783905084228515	0.3716998077392578	0.17058686828613281	0.518798828125	-5.229949951171875	-2.95257568359375	10.01733974609375	0.013168109130859374	-0.10714052429199218	3.803253173828125	-4.70733642578125	-2.06756591796875	
43	0.17200000000000001	0.0	0.0	0.0	0.0	0.003	0.003	0.003	0.003	9.86411083984375	-0.15682020874023436	0.061650692749023434	2.69317626953125	-3.726959228515625	-0.888824462890625	9.785102185058593	0.3752911102294922	0.16519991455078123	0.286102294921875	-4.72259521484375	-2.834320068359375	10.011354241943359	0.013766659545898436	-0.11252747802734374	3.643035888671875	-4.642486572265625	-1.983642578125	
44	0.176	0.0	0.0	0.0	0.0	0.003	0.006	0.003	0.003	9.87009634399414	-0.1466448516845703	0.058657940673828124	2.60162353515625	-3.688812255859375	-0.919342041015625	9.781510882568359	0.3860650177001953	0.15023615417480468	0.2288818359375	-4.978179931640625	-2.8839111328125	10.00417163696289	0.03411737365722656	-0.14006079711914063	3.368377685546875	-4.711151123046875	-2.288818359375	
45	0.18	0.0	0.0	0.0	0.0	0.003	0.003	0.006	0.0	9.87009634399414	-0.12808978881835936	0.04189852905273437	2.513885498046875	-3.70025634765625	-0.858306884765625	9.783905084228515	0.4100070343017578	0.1352723937988281	0.28228759765625	-5.084991455078125	-2.933502197265625	10.002974536132811	0.044891281127929686	-0.15023615417480468	3.83758544921875	-4.497528076171875	-2.132415771484375	
46	0.184	0.0	0.0	0.0	0.0	0.003	0.003	0.006	0.003	9.875483297729492	-0.11432312927246092	0.03232172241210937	2.849578857421875	-3.566741943359375	-0.873565673828125	9.789292037963866	0.4082113830566406	0.12150573425292968	0.316619873046875	-4.772186279296875	-2.86102294921875	10.006565838623047	0.055066638183593745	-0.16519991455078123	3.76129150390625	-4.566192626953125	-2.231597900390625	
47	0.188	0.0	0.0	0.0	0.0	0.003	0.006	0.006	0.003	9.874884747314452	-0.09157821350097656	0.017956512451171875	2.7923583984375	-3.62396240234375	-0.9918212890625	9.78629928588867	0.42975919799804685	0.10175357055664062	0.3509521484375	-5.01251220703125	-2.98309326171875	10.01015714111328	0.06943184814453125	-0.18315642700195311	3.73077392578125	-4.573822021484375	-2.117156982421875	
48	0.192	0.0	0.0	0.0	0.0	0.003	0.003	0.003	0.003	9.87668039855957	-0.086191259765625	0.020949264526367185	2.674102783203125	-3.864288330078125	-0.86212158203125	9.78629928588867	0.4435258575439453	0.09277531433105468	0.278472900390625	-4.78363037109375	-2.925872802734375	10.00955859069824	0.08858546142578125	-0.20231004028320312	3.76129150390625	-4.58526611328125	-2.170562744140625	
49	0.196	0.0	0.0	0.0	0.0	0.003	0.003	0.006	0.003	9.872490545654296	-0.08439560852050781	0.012569558715820313	2.52532958984375	-3.57818603515625	-0.86212158203125	9.787496386718749	0.4465186096191406	0.08379705810546874	0.45013427734375	-5.1422119140625	-3.047943115234375	10.01733974609375	0.09935936889648436	-0.20350714111328125	3.92913818359375	-4.7760009765625	-2.155303955078125	
50	0.2	0.0	0.0	0.0	0.0	0.006	0.003	0.003	0.006	9.864709390258788	-0.08200140686035155	0.0143652099609375	2.643585205078125	-3.971099853515625	-0.820159912109375	9.783306533813477	0.4608838195800781	0.08858546142578125	0.31280517578125	-4.8370361328125	-3.082275390625	10.022128149414062	0.09816226806640624	-0.21068974609375	3.68499755859375	-4.5623779296875	-1.949310302734375	
51	0.20400000000000001	0.0	0.0	0.0	0.0	0.003	0.003	0.006	0.003	9.868899243164062	-0.0718260498046875	0.016160861206054686	2.658843994140625	-3.59344482421875	-0.64849853515625	9.783905084228515	0.4572925170898437	0.09516951599121093	0.324249267578125	-5.031585693359375	-2.98309326171875	10.013748443603514	0.1083376251220703	-0.20530279235839843	3.482818603515625	-4.520416259765625	-2.117156982421875	
52	0.20800000000000002	0.0	0.0	0.0	0.0	0.003	0.006	0.003	0.003	9.884461553955077	-0.07541735229492187	0.009576806640625	2.38037109375	-3.826141357421875	-0.827789306640625	9.781510882568359	0.4656722229003906	0.10295067138671875	0.34332275390625	-4.886627197265625	-2.86865234375	10.012551342773437	0.11252747802734374	-0.201112939453125	3.68499755859375	-4.367828369140625	-2.017974853515625	
53	0.212	0.0	0.0	0.0	0.0	0.006	0.006	0.006	0.006	9.885060104370117	-0.07122749938964844	0.01975216369628906	2.590179443359375	-3.284454345703125	-0.881195068359375	9.787496386718749	0.46148236999511716	0.10654197387695312	0.080108642578125	-4.73785400390625	-2.811431884765625	10.008960040283203	0.1131260284423828	-0.19632453613281248	3.459930419921875	-4.73785400390625	-2.147674560546875	
54	0.216	0.0	0.0	0.0	0.0	0.003	0.003	0.003	0.003	9.877877499389648	-0.07302315063476562	0.017956512451171875	2.696990966796875	-3.467559814453125	-0.7476806640625	9.783905084228515	0.46148236999511716	0.11731588134765625	0.362396240234375	-5.01251220703125	-2.941131591796875	10.005368737792969	0.11192892761230468	-0.1867477294921875	3.63922119140625	-4.604339599609375	-2.292633056640625	
55	0.22	0.0	0.0	0.0	0.0	0.006	0.006	0.003	0.003	9.871293444824218	-0.08080430603027343	0.03950432739257812	2.460479736328125	-3.448486328125	-0.988006591796875	9.775525378417969	0.4626794708251953	0.13287819213867186	0.164031982421875	-5.153656005859375	-2.994537353515625	10.013748443603514	0.105344873046875	-0.15562310791015624	3.5552978515625	-4.57000732421875	-2.170562744140625	
56	0.224	0.0	0.0	0.0	0.0	0.006	0.003	0.003	0.0	9.87009634399414	-0.08858546142578125	0.0383072265625	2.773284912109375	-3.631591796875	-0.736236572265625	9.78031378173828	0.44412440795898434	0.1406593475341797	0.37384033203125	-4.638671875	-2.880096435546875	10.006565838623047	0.09576806640624999	-0.14305354919433594	3.444671630859375	-4.543304443359375	-2.02178955078125	
57	0.228	0.0	0.0	0.0	0.0	0.006	0.006	0.006	0.003	9.871293444824218	-0.08798691101074219	0.04129997863769531	2.513885498046875	-3.444671630859375	-0.81634521484375	9.783905084228515	0.43634325256347656	0.15682020874023436	0.354766845703125	-4.657745361328125	-3.070831298828125	10.001777435302733	0.0939724151611328	-0.15023615417480468	3.543853759765625	-4.638671875	-1.972198486328125	
58	0.232	0.0	0.0	0.0	0.0	0.003	0.006	0.003	0.003	9.880870251464843	-0.09636661682128905	0.05087678527832031	2.3956298828125	-3.509521484375	-0.74005126953125	9.78031378173828	0.4381389038085937	0.16639701538085935	0.476837158203125	-4.87518310546875	-2.948760986328125	10.002974536132811	0.086191259765625	-0.1292868896484375	3.513336181640625	-4.58526611328125	-1.979827880859375	
59	0.23600000000000002	0.0	0.0	0.0	0.0	0.003	0.003	0.003	0.003	9.872490545654296	-0.10594342346191406	0.058657940673828124	2.559661865234375	-3.41796875	-0.640869140625	9.773131176757811	0.4333505004882812	0.181959326171875	0.091552734375	-4.726409912109375	-2.81524658203125	10.007762939453125	0.07841010437011718	-0.10714052429199218	3.631591796875	-4.390716552734375	-1.99127197265625	
60	0.24	0.0	0.0	0.0	0.0	0.006	0.003	0.003	0.003	9.86291373901367	-0.1131260284423828	0.07541735229492187	2.658843994140625	-3.59344482421875	-0.827789306640625	9.776722479248047	0.41958384094238277	0.18854338073730467	0.29754638671875	-5.14984130859375	-3.002166748046875	10.005368737792969	0.07541735229492187	-0.10414777221679687	3.7078857421875	-4.37164306640625	-2.033233642578125	
61	0.244	0.0	0.0	0.0	0.0	0.006	0.003	0.006	0.003	9.868899243164062	-0.11671733093261719	0.076614453125	2.735137939453125	-3.368377685546875	-1.0528564453125	9.78629928588867	0.4171896392822265	0.18914193115234373	0.179290771484375	-4.730224609375	-2.8076171875	10.004770187377929	0.07062894897460938	-0.11013327636718749	3.543853759765625	-4.4403076171875	-1.903533935546875	
62	0.248	0.0	0.0	0.0	0.0	0.003	0.003	0.003	0.003	9.872490545654296	-0.11911153259277343	0.0987608184814453	2.9296875	-3.60107421875	-0.873565673828125	9.785102185058593	0.41539398803710936	0.201112939453125	0.354766845703125	-4.993438720703125	-2.864837646484375	10.006565838623047	0.06464344482421874	-0.11252747802734374	3.856658935546875	-4.730224609375	-2.307891845703125	
63	0.252	0.0	0.0	0.0	0.0	0.003	0.003	0.006	0.003	9.8694977935791	-0.12509703674316405	0.09816226806640624	2.8533935546875	-3.314971923828125	-0.705718994140625	9.783905084228515	0.4082113830566406	0.19931728820800781	0.3662109375	-4.75311279296875	-2.773284912109375	10.003573086547851	0.05626373901367187	-0.1149216796875	3.459930419921875	-4.44793701171875	-2.056121826171875	
64	0.256	0.0	0.0	0.0	0.0	0.006	0.006	0.006	0.003	9.872490545654296	-0.12509703674316405	0.105344873046875	2.7008056640625	-3.643035888671875	-0.934600830078125	9.783905084228515	0.4100070343017578	0.19931728820800781	0.308990478515625	-4.791259765625	-2.819061279296875	10.01075569152832	0.04848258361816406	-0.11611878051757812	3.51715087890625	-4.55474853515625	-2.185821533203125	
65	0.26	0.0	0.0	0.0	0.0	0.003	0.003	0.003	0.012	9.8694977935791	-0.1304839904785156	0.10235212097167969	2.529144287109375	-3.76129150390625	-0.98419189453125	9.785102185058593	0.39863457641601563	0.2088940948486328	0.217437744140625	-4.8675537109375	-2.941131591796875	10.013748443603514	0.052073886108398436	-0.09816226806640624	3.5858154296875	-4.642486572265625	-1.9989013671875	
66	0.264	0.0	0.0	0.0	0.0	0.006	0.003	0.003	0.006	9.861716638183593	-0.13347674255371092	0.11192892761230468	2.666473388671875	-3.54766845703125	-1.07574462890625	9.782109432983399	0.39324762268066404	0.19991583862304688	0.476837158203125	-4.82177734375	-2.872467041015625	10.001777435302733	0.04189852905273437	-0.10474632263183593	3.574371337890625	-4.558563232421875	-2.223968505859375	
67	0.268	0.0	0.0	0.0	0.0	0.0	0.006	0.003	0.006	9.872490545654296	-0.14125789794921875	0.1131260284423828	2.765655517578125	-3.60107421875	-0.827789306640625	9.783306533813477	0.3962403747558593	0.20231004028320312	0.42724609375	-5.01251220703125	-2.86865234375	10.013748443603514	0.037708676147460936	-0.10414777221679687	3.765106201171875	-4.5928955078125	-2.2735595703125	
68	0.272	0.0	0.0	0.0	0.0	0.003	0.003	0.003	0.003	9.874286196899414	-0.14006079711914063	0.1227028350830078	2.536773681640625	-3.7841796875	-0.6561279296875	9.785102185058593	0.3806780639648437	0.18914193115234373	0.30517578125	-4.947662353515625	-2.7923583984375	10.01733974609375	0.040102877807617184	-0.1197100830078125	3.42559814453125	-4.390716552734375	-2.063751220703125	
69	0.276	0.0	0.0	0.0	0.0	0.003	0.003	0.003	0.006	9.872490545654296	-0.14604630126953125	0.10893617553710937	2.643585205078125	-3.322601318359375	-0.81634521484375	9.787496386718749	0.3764882110595703	0.19033903198242186	0.064849853515625	-4.6234130859375	-2.941131591796875	10.026318002319336	0.022744915771484374	-0.11252747802734374	3.62396240234375	-4.5166015625	-1.91497802734375	
70	0.28	0.0	0.0	0.0	0.0	0.003	0.003	0.006	0.003	9.873089096069336	-0.15981296081542967	0.11372457885742186	2.521514892578125	-3.692626953125	-0.789642333984375	9.785102185058593	0.37409400939941406	0.20231004028320312	0.179290771484375	-4.7760009765625	-2.910614013671875	10.012551342773437	0.016759411621093748	-0.10414777221679687	3.582000732421875	-4.642486572265625	-2.079010009765625	
71	0.28400000000000003	0.0	0.0	0.0	0.0	0.0	0.003	0.006	0.003	9.86291373901367	-0.1657984649658203	0.11432312927246092	2.4566650390625	-3.513336181640625	-0.782012939453125	9.780912332153319	0.37289690856933594	0.21428104858398436	0.32806396484375	-4.92095947265625	-2.857208251953125	10.011952792358398	0.013168109130859374	-0.10235212097167969	3.4637451171875	-4.66156005859375	-2.040863037109375	
72	0.28800000000000003	0.0	0.0	0.0	0.0	0.003	0.006	0.003	0.009000000000000001	9.866505041503906	-0.17776947326660156	0.10474632263183593	2.513885498046875	-3.7384033203125	-0.774383544921875	9.785102185058593	0.36631285400390623	0.20470424194335937	0.255584716796875	-5.10406494140625	-2.9144287109375	10.001777435302733	0.00718260498046875	-0.09995791931152344	3.604888916015625	-4.61578369140625	-2.03704833984375	
73	0.292	0.0	0.0	0.0	0.0	0.006	0.003	0.003	0.006	9.86291373901367	-0.18076222534179687	0.09816226806640624	2.532958984375	-3.734588623046875	-0.949859619140625	9.78629928588867	0.36272155151367186	0.20350714111328125	0.308990478515625	-4.909515380859375	-2.98309326171875	10.016142645263672	-0.003591302490234375	-0.1005564697265625	3.620147705078125	-4.398345947265625	-2.03704833984375	
74	0.296	0.0	0.0	0.0	0.0	0.006	0.003	0.003	0.003	9.865906491088866	-0.1801636749267578	0.09217676391601562	2.593994140625	-3.5400390625	-0.74005126953125	9.785102185058593	0.35793314819335936	0.19931728820800781	0.377655029296875	-5.069732666015625	-2.994537353515625	10.011354241943359	-0.0005985504150390625	-0.10414777221679687	3.662109375	-4.547119140625	-2.101898193359375	
75	0.3	0.0	0.0	0.0	0.0	0.003	0.003	0.003	0.003	9.860519537353515	-0.18435352783203124	0.08978256225585937	2.483367919921875	-3.566741943359375	-0.835418701171875	9.784503634643555	0.35015199279785153	0.1867477294921875	0.1678466796875	-4.79888916015625	-3.0670166015625	10.01674119567871	0.010175357055664061	-0.0987608184814453	3.696441650390625	-4.5928955078125	-2.166748046875	
76	0.304	0.0	0.0	0.0	0.0	0.006	0.003	0.006	0.006	9.864709390258788	-0.17776947326660156	0.08140285644531249	2.5787353515625	-3.60870361328125	-0.8087158203125	9.780912332153319	0.3633201019287109	0.181959326171875	0.4425048828125	-5.054473876953125	-3.12042236328125	10.008361489868163	0.008978256225585938	-0.11192892761230468	3.711700439453125	-4.413604736328125	-2.14385986328125	
77	0.308	0.0	0.0	0.0	0.0	0.003	0.003	0.003	0.006	9.873687646484374	-0.16340426330566404	0.07302315063476562	2.63214111328125	-3.76129150390625	-0.69427490234375	9.782707983398437	0.3806780639648437	0.1879448303222656	0.67138671875	-4.978179931640625	-2.93731689453125	10.01015714111328	0.00718260498046875	-0.12689268798828124	3.448486328125	-4.550933837890625	-2.15911865234375	
78	0.312	0.0	0.0	0.0	0.0	0.003	0.003	0.003	0.006	9.866505041503906	-0.15382745666503905	0.058657940673828124	2.712249755859375	-3.7078857421875	-1.018524169921875	9.787496386718749	0.37768531188964843	0.1753752716064453	0.522613525390625	-4.72259521484375	-2.899169921875	10.018536846923828	0.017357962036132813	-0.12808978881835936	3.56292724609375	-4.669189453125	-2.155303955078125	
79	0.316	0.0	0.0	0.0	0.0	0.006	0.003	0.003	0.003	9.868300692749022	-0.14903905334472656	0.06763619689941405	2.567291259765625	-3.662109375	-0.75531005859375	9.78629928588867	0.3860650177001953	0.14963760375976562	0.335693359375	-4.924774169921875	-2.98309326171875	10.024522351074218	0.015562310791015624	-0.14903905334472656	3.509521484375	-4.688262939453125	-2.14385986328125	
80	0.32	0.0	0.0	0.0	0.0	0.003	0.003	0.006	0.006	9.87009634399414	-0.13467384338378904	0.055066638183593745	2.651214599609375	-3.841400146484375	-0.823974609375	9.788693487548828	0.3902548706054687	0.14245499877929688	0.370025634765625	-5.069732666015625	-2.956390380859375	10.027515103149414	0.03591302490234375	-0.1657984649658203	3.7689208984375	-4.550933837890625	-2.140045166015625	
81	0.324	0.0	0.0	0.0	0.0	0.003	0.006	0.003	0.006	9.87009634399414	-0.1304839904785156	0.03651157531738281	2.506256103515625	-3.39508056640625	-0.919342041015625	9.782109432983399	0.40462008056640625	0.1292868896484375	0.324249267578125	-4.8980712890625	-3.009796142578125	10.011354241943359	0.044292730712890624	-0.18255787658691405	3.742218017578125	-4.573822021484375	-2.094268798828125	
82	0.328	0.0	0.0	0.0	0.0	0.003	0.006	0.003	0.006	9.87608184814453	-0.1197100830078125	0.04369418029785156	2.51007080078125	-3.490447998046875	-0.946044921875	9.781510882568359	0.41898529052734373	0.12449848632812499	0.31280517578125	-4.962921142578125	-3.12042236328125	10.00955859069824	0.05327098693847656	-0.1945288848876953	3.70025634765625	-4.608154296875	-2.063751220703125	
83	0.332	0.0	0.0	0.0	0.0	0.003	0.003	0.003	0.006	9.868899243164062	-0.1149216796875	0.03591302490234375	2.73895263671875	-3.589630126953125	-0.7476806640625	9.78031378173828	0.4327519500732422	0.12389993591308593	0.461578369140625	-4.985809326171875	-2.899169921875	10.005967288208007	0.05566518859863281	-0.2041056915283203	3.650665283203125	-4.5928955078125	-2.124786376953125	
84	0.336	0.0	0.0	0.0	0.0	0.003	0.003	0.006	0.003	9.882067352294921	-0.10115502014160156	0.037708676147460936	2.655029296875	-3.42559814453125	-0.812530517578125	9.785102185058593	0.43155484924316406	0.12210428466796874	0.400543212890625	-4.7760009765625	-2.655029296875	10.008960040283203	0.06464344482421874	-0.20470424194335937	3.612518310546875	-4.611968994140625	-2.132415771484375	
85	0.34	0.0	0.0	0.0	0.0	0.003	0.003	0.003	0.003	9.875483297729492	-0.10175357055664062	0.04548983154296875	2.5634765625	-3.54766845703125	-0.804901123046875	9.783905084228515	0.43574470214843747	0.12330138549804687	0.156402587890625	-4.970550537109375	-2.7313232421875	10.007762939453125	0.06823474731445311	-0.21009119567871093	3.566741943359375	-4.5623779296875	-2.09808349609375	
86	0.34400000000000003	0.0	0.0	0.0	0.0	0.003	0.006	0.003	0.003	9.871293444824218	-0.09516951599121093	0.03890577697753906	2.51007080078125	-3.589630126953125	-0.934600830078125	9.784503634643555	0.43035774841308594	0.12808978881835936	0.484466552734375	-5.008697509765625	-2.964019775390625	10.014346994018554	0.07362170104980469	-0.19033903198242186	3.570556640625	-4.55474853515625	-2.185821533203125	
87	0.34800000000000003	0.0	0.0	0.0	0.0	0.006	0.003	0.003	0.006	9.87069489440918	-0.09576806640624999	0.0383072265625	2.368927001953125	-3.566741943359375	-0.827789306640625	9.776123928833007	0.43035774841308594	0.1304839904785156	0.133514404296875	-4.970550537109375	-2.7923583984375	10.01015714111328	0.07601590270996093	-0.1867477294921875	3.772735595703125	-4.82940673828125	-2.162933349609375	
88	0.352	0.0	0.0	0.0	0.0	0.003	0.003	0.006	0.006	9.87009634399414	-0.09516951599121093	0.040701428222656245	2.422332763671875	-3.62396240234375	-0.980377197265625	9.77492682800293	0.43155484924316406	0.13168109130859373	0.2288818359375	-4.856109619140625	-2.895355224609375	10.020332498168944	0.07242460021972656	-0.17178396911621094	3.589630126953125	-4.489898681640625	-2.178192138671875	
89	0.356	0.0	0.0	0.0	0.0	0.003	0.003	0.003	0.003	9.867103591918944	-0.09636661682128905	0.04129997863769531	2.452850341796875	-3.757476806640625	-0.698089599609375	9.773131176757811	0.43454760131835934	0.14544775085449219	0.00762939453125	-4.8065185546875	-2.8839111328125	10.007762939453125	0.0718260498046875	-0.17477672119140625	3.6163330078125	-4.398345947265625	-2.002716064453125	
90	0.36	0.0	0.0	0.0	0.0	0.003	0.003	0.003	0.006	9.872490545654296	-0.10115502014160156	0.052073886108398436	2.536773681640625	-3.475189208984375	-0.67901611328125	9.785102185058593	0.4291606475830078	0.14784195251464843	0.217437744140625	-4.856109619140625	-2.86865234375	10.013748443603514	0.0718260498046875	-0.16819266662597654	3.475189208984375	-4.40216064453125	-1.922607421875	
91	0.364	0.0	0.0	0.0	0.0	0.009000000000000001	0.006	0.003	0.003	9.861118087768554	-0.11372457885742186	0.08798691101074219	2.61688232421875	-3.753662109375	-0.865936279296875	9.777321029663085	0.39863457641601563	0.17956512451171874	0.091552734375	-4.7149658203125	-2.948760986328125	10.01733974609375	0.05985504150390625	-0.16460136413574217	3.643035888671875	-4.573822021484375	-2.044677734375	
92	0.368	0.0	0.0	0.0	0.0	0.003	0.003	0.006	0.006	9.87727894897461	-0.11372457885742186	0.05985504150390625	2.410888671875	-3.57818603515625	-0.70953369140625	9.798868844604492	0.43634325256347656	0.14425065002441406	0.293731689453125	-4.72259521484375	-2.880096435546875	10.049661468505859	0.06344634399414062	-0.19213468322753904	3.803253173828125	-4.82940673828125	-1.949310302734375	
93	0.372	0.0	0.0	0.0	0.0	0.006	0.003	0.003	0.003	9.871293444824218	-0.04967968444824218	0.06464344482421874	2.613067626953125	-3.44085693359375	-0.69427490234375	9.78031378173828	0.49320554199218747	0.19093758239746092	0.37384033203125	-4.810333251953125	-2.7923583984375	10.005967288208007	0.11013327636718749	-0.12808978881835936	3.498077392578125	-4.520416259765625	-2.0599365234375	
94	0.376	0.0	0.0	0.0	0.0	0.006	0.003	0.003	0.003	9.86291373901367	-0.20231004028320312	0.07003039855957031	2.25067138671875	-3.429412841796875	-0.96893310546875	9.813832604980469	0.2950853546142578	0.13646949462890623	0.423431396484375	-4.856109619140625	-2.941131591796875	10.034099157714843	-0.08200140686035155	-0.17357962036132812	3.742218017578125	-4.436492919921875	-2.01416015625	
95	0.38	0.0	0.0	0.0	0.0	0.003	0.003	0.006	0.006	9.885658654785155	-0.0526724365234375	0.061650692749023434	2.44140625	-3.5552978515625	-0.774383544921875	9.788693487548828	0.5207388610839844	0.1927332336425781	0.759124755859375	-4.825592041015625	-2.9754638671875	10.020332498168944	0.14125789794921875	-0.12389993591308593	3.59344482421875	-4.596710205078125	-2.300262451171875	
96	0.384	0.0	0.0	0.0	0.0	0.015	0.003	0.003	0.003	9.873687646484374	-0.017956512451171875	0.08379705810546874	3.0670166015625	-3.681182861328125	-0.66375732421875	9.785102185058593	0.4177881896972656	0.20231004028320312	0.110626220703125	-4.901885986328125	-2.689361572265625	10.035894808959961	0.017357962036132813	-0.18315642700195311	3.56292724609375	-4.627227783203125	-1.873016357421875	
97	0.388	0.0	0.0	0.0	0.0	0.003	0.006	0.006	0.006	9.880870251464843	-0.07481880187988281	0.058657940673828124	2.468109130859375	-3.50189208984375	-0.881195068359375	9.780912332153319	0.4333505004882812	0.20949264526367187	0.335693359375	-4.84466552734375	-3.086090087890625	10.002974536132811	0.06883329772949218	-0.12090718383789062	3.711700439453125	-4.535675048828125	-2.017974853515625	
98	0.392	0.0	0.0	0.0	0.0	0.0	0.003	0.006	0.003	9.886855755615233	-0.06284779357910156	0.08020575561523437	3.1280517578125	-3.7994384765625	-0.8544921875	9.80605144958496	0.36750995483398435	0.19572598571777342	0.392913818359375	-5.10406494140625	-3.025054931640625	10.026318002319336	-0.005985504150390624	-0.14544775085449219	3.894805908203125	-4.573822021484375	-2.124786376953125	
99	0.396	0.0	0.0	0.0	0.0	0.003	0.003	0.006	0.006	9.888052856445311	-0.013766659545898436	0.04369418029785156	2.43377685546875	-3.4332275390625	-0.675201416015625	9.753977563476562	0.5183446594238281	0.1801636749267578	0.362396240234375	-4.795074462890625	-3.13568115234375	9.999981784057617	0.22445640563964842	-0.11133037719726561	3.53240966796875	-4.6844482421875	-2.11334228515625	
100	0.4	0.0	0.0	0.0	0.0	0.006	0.003	0.003	0.003	9.885658654785155	-0.05327098693847656	0.08259995727539061	3.055572509765625	-3.803253173828125	-0.946044921875	9.79348189086914	0.28490999755859375	0.19871873779296872	0.057220458984375	-5.100250244140625	-2.696990966796875	9.988010775756836	-0.07003039855957031	-0.16160861206054686	3.398895263671875	-4.589080810546875	-2.010345458984375	
101	0.404	0.0	0.0	0.0	0.0	0.003	0.003	0.003	0.006	9.868899243164062	-0.051475335693359374	0.11252747802734374	3.47900390625	-4.230499267578125	-0.81634521484375	9.757568865966796	0.44053310546874996	0.20051438903808594	0.35858154296875	-4.78363037109375	-3.11279296875	9.967660061645507	0.05386953735351562	-0.1005564697265625	3.5858154296875	-4.5166015625	-2.292633056640625	
102	0.40800000000000003	0.0	0.0	0.0	0.0	0.003	0.003	0.003	0.0	9.907206469726562	0.015562310791015624	0.06883329772949218	3.33404541015625	-3.94439697265625	-0.698089599609375	9.79946739501953	0.3447650390625	0.20949264526367187	0.31280517578125	-4.817962646484375	-2.758026123046875	10.025120901489258	0.0017956512451171875	-0.16460136413574217	3.429412841796875	-4.589080810546875	-2.002716064453125	
103	0.41200000000000003	0.0	0.0	0.0	0.0	0.003	0.006	0.003	0.003	9.86411083984375	-0.023942016601562498	0.13766659545898435	3.849029541015625	-4.520416259765625	-0.926971435546875	9.738415252685547	0.4291606475830078	0.17896657409667968	0.423431396484375	-5.077362060546875	-3.032684326171875	9.9215716796875	0.08678981018066406	-0.10654197387695312	3.74603271484375	-4.657745361328125	-2.140045166015625	
104	0.41600000000000004	0.0	0.0	0.0	0.0	0.006	0.003	0.003	0.006	9.917980377197265	-0.011971008300781249	0.05805939025878906	2.86865234375	-3.90625	-0.89263916015625	9.75517466430664	0.3711012573242187	0.14484920043945312	0.255584716796875	-4.85992431640625	-2.689361572265625	10.022726699829102	-0.07362170104980469	-0.1466448516845703	3.72314453125	-4.566192626953125	-1.857757568359375	
105	0.42	0.0	0.0	0.0	0.0	0.006	0.003	0.003	0.003	9.87009634399414	-0.023343466186523436	0.11552023010253906	4.123687744140625	-4.425048828125	-0.843048095703125	9.771934075927733	0.4686649749755859	0.15741875915527342	0.019073486328125	-4.76837158203125	-3.124237060546875	9.961076007080077	0.10714052429199218	-0.10474632263183593	3.57818603515625	-4.41741943359375	-2.22015380859375	
106	0.424	0.0	0.0	0.0	0.0	0.003	0.006	0.003	0.003	9.903615167236328	-0.19812018737792966	-0.03172317199707031	3.021240234375	-3.8604736328125	-1.07574462890625	9.724648593139648	0.4034229797363281	0.1274912384033203	0.537872314453125	-5.100250244140625	-2.651214599609375	9.910797772216796	0.12090718383789062	-0.040701428222656245	3.692626953125	-4.726409912109375	-1.71661376953125	
107	0.428	0.0	0.0	0.0	0.0	0.003	0.006	0.003	0.006	9.846154327392577	-0.05027823486328125	0.15083470458984374	4.41741943359375	-4.66156005859375	-0.9918212890625	9.789292037963866	0.2914940521240234	0.12449848632812499	0.22125244140625	-4.772186279296875	-2.9449462890625	9.9215716796875	0.040102877807617184	-0.05386953735351562	3.662109375	-4.528045654296875	-2.506256103515625	
108	0.432	0.0	0.0	0.0	0.0	0.0	0.003	0.003	0.006	9.894038360595703	-0.25318682556152344	-0.030526071166992186	3.124237060546875	-3.955841064453125	-0.98419189453125	9.752181912231444	0.3699041564941406	0.12090718383789062	0.42724609375	-5.13458251953125	-2.620697021484375	9.97184991455078	0.06344634399414062	-0.0383072265625	3.6163330078125	-4.43267822265625	-1.8768310546875	
109	0.436	0.0	0.0	0.0	0.0	0.006	0.006	0.003	0.003	9.858125335693359	-0.4333505004882812	0.017357962036132813	1.922607421875	-3.017425537109375	-0.949859619140625	9.80066449584961	0.32082302246093747	0.08439560852050781	0.255584716796875	-4.779815673828125	-3.0670166015625	10.075997686767577	-0.09457096557617187	-0.21068974609375	3.879547119140625	-4.489898681640625	-2.1820068359375	
110	0.44	0.0	0.0	0.0	0.0	0.003	0.006	0.003	0.006	9.875483297729492	-0.2555810272216797	-0.02693476867675781	2.857208251953125	-4.116058349609375	-0.823974609375	9.730035546875	0.5728127471923827	0.23702596435546874	0.202178955078125	-5.04302978515625	-2.7313232421875	9.9078050201416	0.10773907470703124	-0.017357962036132813	3.84521484375	-4.5166015625	-1.964569091796875	
111	0.444	0.0	0.0	0.0	0.0	0.003	0.003	0.003	0.006	9.853935482788085	-0.5063736511230469	0.020350714111328123	1.750946044921875	-3.055572509765625	-0.865936279296875	9.83178911743164	0.26755203552246093	0.07841010437011718	0.339508056640625	-4.791259765625	-3.086090087890625	10.120290417480469	-0.15263035583496093	-0.21607669982910155	3.68499755859375	-4.497528076171875	-2.49481201171875	
112	0.448	0.0	0.0	0.0	0.0	0.003	0.003	0.003	0.006	9.91438907470703	-0.2932897033691406	-0.058657940673828124	3.116607666015625	-3.963470458984375	-1.1444091796875	9.759364517211914	0.5638344909667968	0.1975216369628906	0.392913818359375	-5.0048828125	-2.7618408203125	10.08018753967285	0.20709844360351562	-0.14425065002441406	3.437042236328125	-4.497528076171875	-1.89971923828125	
113	0.452	0.0	0.0	0.0	0.0	0.006	0.003	0.003	0.006	9.83777462158203	-0.5105635040283203	0.0	1.499176025390625	-3.170013427734375	-1.003265380859375	9.864709390258788	0.24600422058105467	0.05626373901367187	0.514984130859375	-4.7760009765625	-2.895355224609375	10.06881508178711	-0.10354922180175781	-0.23642741394042968	3.73077392578125	-4.55474853515625	-2.109527587890625	
114	0.456	0.0	0.0	0.0	0.0	0.006	0.003	0.003	0.006	9.744400756835937	-0.1693897674560547	0.3687070556640625	0.78582763671875	-2.17437744140625	-0.484466552734375	9.759364517211914	0.5913678100585937	0.20231004028320312	0.32806396484375	-4.955291748046875	-2.864837646484375	10.073004934692381	0.239420166015625	-0.14544775085449219	3.692626953125	-4.787445068359375	-1.995086669921875	
115	0.46	0.0	0.0	0.0	0.0	0.0	0.006	0.006	0.003	9.86411083984375	-0.5997475158691405	-0.04249707946777344	0.93841552734375	-2.796173095703125	-0.850677490234375	9.892841259765625	0.2136824981689453	0.033518823242187495	0.64849853515625	-5.207061767578125	-3.078460693359375	10.116699114990233	-0.1484405029296875	-0.29089550170898437	3.528594970703125	-4.66156005859375	-2.056121826171875	
116	0.464	0.0	0.0	0.0	0.0	0.0	0.003	0.003	0.006	9.720458740234374	-0.1484405029296875	0.3591302490234375	0.812530517578125	-2.254486083984375	-0.67901611328125	9.719261639404296	0.6452373474121094	0.31663316955566406	0.270843505859375	-4.852294921875	-2.84576416015625	10.074202035522461	0.2615665313720703	-0.18255787658691405	3.60107421875	-4.512786865234375	-1.94549560546875	
117	0.468	0.0	0.0	0.0	0.0	0.003	0.006	0.006	0.006	9.852139831542969	-0.6218938812255859	-0.025139117431640625	0.37384033203125	-1.99127197265625	-0.732421875	9.865906491088866	0.2711433380126953	0.03651157531738281	0.518798828125	-5.0048828125	-3.070831298828125	10.123283169555663	-0.19393033447265623	-0.29927520751953124	3.604888916015625	-4.627227783203125	-2.109527587890625	
118	0.47200000000000003	0.0	0.0	0.0	0.0	0.006	0.003	0.003	0.003	9.744400756835937	-0.18255787658691405	0.354940396118164	0.335693359375	-2.223968505859375	-0.41961669921875	9.727641345214844	0.6404489440917969	0.3280056274414062	0.057220458984375	-4.573822021484375	-2.964019775390625	10.082581741333007	0.2645592834472656	-0.19692308654785154	3.711700439453125	-4.558563232421875	-1.9989013671875	
119	0.47600000000000003	0.0	0.0	0.0	0.0	0.003	0.003	0.003	0.003	9.859920986938477	-0.17896657409667968	0.14006079711914063	0.3204345703125	-2.1820068359375	-0.507354736328125	9.840168823242188	0.1771709228515625	0.12150573425292968	-0.148773193359375	-4.863739013671875	-2.902984619140625	10.149619387817383	-0.2699462371826172	-0.3345896820068359	3.383636474609375	-4.604339599609375	-1.995086669921875	
120	0.48	0.0	0.0	0.0	0.0	0.003	0.003	0.006	0.003	9.708487731933593	-0.17357962036132812	0.37289690856933594	0.278472900390625	-1.8463134765625	-0.335693359375	9.702502227783203	0.6907271789550781	0.36212300109863277	0.087738037109375	-4.79888916015625	-3.05938720703125	9.995791931152343	0.2442085693359375	-0.09816226806640624	3.50189208984375	-4.49371337890625	-2.2430419921875	
121	0.484	0.0	0.0	0.0	0.0	0.003	0.006	0.003	0.006	9.865307940673828	-0.12808978881835936	0.1466448516845703	0.446319580078125	-2.094268798828125	-0.579833984375	9.836577520751952	0.2280477081298828	0.14185644836425781	0.118255615234375	-5.10406494140625	-2.735137939453125	10.129268673706054	-0.239420166015625	-0.32022447204589843	3.551483154296875	-4.482269287109375	-1.911163330078125	
122	0.488	0.0	0.0	0.0	0.0	0.006	0.003	0.006	0.003	9.995193380737303	0.2597708801269531	-0.13407529296874998	3.936767578125	-4.6234130859375	-1.04522705078125	9.719261639404296	0.6578069061279297	0.3651157531738281	0.370025634765625	-4.85992431640625	-3.0975341796875	10.011354241943359	0.2154781494140625	-0.09816226806640624	3.536224365234375	-4.375457763671875	-2.185821533203125	
123	0.492	0.0	0.0	0.0	0.0	0.003	0.003	0.003	0.003	9.879673150634765	-0.12988544006347655	0.13587094421386717	0.736236572265625	-2.22015380859375	-0.537872314453125	9.839570272827148	0.19153613281249998	0.14724340209960937	0.293731689453125	-4.9896240234375	-2.838134765625	9.984419473266602	-0.10354922180175781	-0.229843359375	3.387451171875	-4.878997802734375	-2.03704833984375	
124	0.496	0.0	0.0	0.0	0.0	0.003	0.006	0.006	0.009000000000000001	9.97843396911621	0.32620997619628905	-0.12330138549804687	4.268646240234375	-4.96673583984375	-0.934600830078125	9.770736975097655	0.5201403106689453	0.11851298217773437	0.518798828125	-4.726409912109375	-3.12042236328125	9.988609326171874	0.2663549346923828	-0.07841010437011718	3.509521484375	-4.57000732421875	-2.34222412109375	
125	0.5	0.0	0.0	0.0	0.0	0.003	0.006	0.003	0.006	9.890447058105469	-0.06284779357910156	0.11731588134765625	0.90789794921875	-2.26593017578125	-0.4425048828125	9.83897172241211	0.21128829650878905	0.13287819213867186	0.179290771484375	-5.023956298828125	-2.773284912109375	9.973047015380859	-0.06344634399414062	-0.23223756103515625	3.490447998046875	-4.802703857421875	-1.495361328125	
126	0.504	0.0	0.0	0.0	0.0	0.006	0.006	0.003	0.006	9.976638317871092	0.3597287994384765	-0.1083376251220703	5.123138427734375	-5.0811767578125	-1.01470947265625	9.785700735473633	0.4842272857666015	0.11552023010253906	0.46539306640625	-4.78363037109375	-3.13568115234375	10.025120901489258	0.2651578338623047	-0.086191259765625	3.28826904296875	-4.23431396484375	-2.57110595703125	
127	0.508	0.0	0.0	0.0	0.0	0.003	0.003	0.003	0.009000000000000001	9.926360083007811	0.4267664459228515	-0.11552023010253906	6.702423095703125	-6.44683837890625	-0.965118408203125	9.699509475708007	0.37289690856933594	0.20171148986816406	0.244140625	-4.85992431640625	-2.4871826171875	9.958681805419921	-0.08738836059570312	-0.21787235107421873	3.482818603515625	-4.726409912109375	-1.77764892578125	
128	0.512	0.0	0.0	0.0	0.0	0.006	0.003	0.003	0.003	9.958681805419921	0.4435258575439453	-0.11552023010253906	5.6610107421875	-5.37872314453125	-1.041412353515625	9.791087689208984	0.5572504364013672	0.1149216796875	0.637054443359375	-4.734039306640625	-3.21197509765625	9.846154327392577	0.18136077575683593	-0.06464344482421874	3.742218017578125	-4.5166015625	-2.532958984375	
129	0.516	0.0	0.0	0.0	0.0	0.006	0.003	0.003	0.006	9.943718045043944	0.4525041137695312	-0.1227028350830078	6.908416748046875	-6.256103515625	-0.843048095703125	9.694122521972655	0.3872621185302734	0.2184709014892578	0.3509521484375	-4.886627197265625	-2.605438232421875	9.982623822021484	-0.05566518859863281	-0.2603694305419922	3.688812255859375	-4.5013427734375	-1.644134521484375	
130	0.52	0.0	0.0	0.0	0.0	0.003	0.003	0.003	0.006	9.952097750854492	0.4584896179199218	-0.08978256225585937	4.7607421875	-4.90570068359375	-1.28173828125	9.782707983398437	0.28969840087890625	0.08379705810546874	0.225067138671875	-4.726409912109375	-3.10516357421875	9.842563024902343	0.1484405029296875	0.0005985504150390625	3.948211669921875	-4.535675048828125	-2.7923583984375	
131	0.524	0.0	0.0	0.0	0.0	0.006	0.003	0.003	0.003	9.910797772216796	0.4495113616943359	-0.105344873046875	7.11822509765625	-6.76727294921875	-1.1749267578125	9.687538467407226	0.3758896606445312	0.2561795776367187	0.1220703125	-5.084991455078125	-2.666473388671875	9.847949978637695	0.2549824768066406	0.04369418029785156	3.7078857421875	-4.49371337890625	-1.861572265625	
132	0.528	0.0	0.0	0.0	0.0	0.006	0.006	0.003	0.003	9.868899243164062	-0.2346317626953125	0.1388636962890625	4.253387451171875	-4.772186279296875	-1.323699951171875	9.773729727172851	0.34237083740234375	0.09816226806640624	0.41961669921875	-4.99725341796875	-3.173828125	9.829993466186522	0.23104046020507812	0.008379705810546874	3.753662109375	-4.18853759765625	-2.628326416015625	
133	0.532	0.0	0.0	0.0	0.0	0.003	0.003	0.003	0.003	9.90900212097168	0.4465186096191406	-0.07541735229492187	6.946563720703125	-6.49261474609375	-1.026153564453125	9.730035546875	0.594959112548828	0.11911153259277343	0.244140625	-4.84466552734375	-2.55584716796875	9.85094273071289	0.2555810272216797	0.03411737365722656	3.498077392578125	-4.4403076171875	-1.861572265625	
134	0.536	0.0	0.0	0.0	0.0	0.003	0.003	0.003	0.006	9.840767373657226	-0.3190273712158203	0.1352723937988281	3.8299560546875	-4.486083984375	-1.251220703125	9.776722479248047	0.3232172241210937	0.0796072052001953	0.05340576171875	-4.69970703125	-3.192901611328125	10.173561404418944	-0.3028665100097656	-0.3591302490234375	3.84521484375	-4.550933837890625	-2.346038818359375	
135	0.54	0.0	0.0	0.0	0.0	0.003	0.003	0.003	0.003	9.808445651245117	-0.7428010650634765	0.2059013427734375	-0.865936279296875	-1.026153564453125	-0.637054443359375	9.739612353515625	0.6206967803955078	0.10654197387695312	0.385284423828125	-4.848480224609375	-2.689361572265625	9.872490545654296	0.3190273712158203	0.008379705810546874	3.589630126953125	-4.810333251953125	-1.6937255859375	
136	0.544	0.0	0.0	0.0	0.0	0.009000000000000001	0.003	0.003	0.006	9.818022457885741	-0.3968389251708984	0.13467384338378904	2.986907958984375	-3.932952880859375	-1.13677978515625	9.9215716796875	0.19572598571777342	-0.022744915771484374	0.42724609375	-5.0048828125	-2.93731689453125	10.18313821105957	-0.239420166015625	-0.33698388366699217	3.780364990234375	-4.467010498046875	-2.338409423828125	
137	0.548	0.0	0.0	0.0	0.0	0.003	0.003	0.003	0.006	9.801861596679688	-0.7996633544921875	0.2328361114501953	-1.712799072265625	-1.10626220703125	-0.46539306640625	9.72943699645996	0.5680243438720702	0.11851298217773437	-0.110626220703125	-5.07354736328125	-2.712249755859375	10.095749850463866	0.2232593048095703	-0.09995791931152344	3.620147705078125	-4.69207763671875	-2.01416015625	
138	0.552	0.0	0.0	0.0	0.0	0.003	0.006	0.006	0.006	9.819818109130859	-0.4878185882568359	0.10594342346191406	2.559661865234375	-3.543853759765625	-1.19781494140625	9.919177478027343	0.20709844360351562	-0.006584054565429687	0.54168701171875	-5.054473876953125	-3.177642822265625	10.169371551513672	-0.2603694305419922	-0.3226186737060547	3.84521484375	-4.364013671875	-2.66265869140625	
139	0.556	0.0	0.0	0.0	0.0	0.003	0.003	0.003	0.003	9.794678991699218	-0.8116343627929687	0.25917232971191406	-1.926422119140625	-0.835418701171875	-0.408172607421875	9.73602105102539	0.6661866119384765	0.4052186309814453	0.3509521484375	-4.802703857421875	-3.05938720703125	10.08078609008789	0.2705447875976562	-0.06464344482421874	3.452301025390625	-4.63104248046875	-1.873016357421875	
140	0.56	0.0	0.0	0.0	0.0	0.003	0.003	0.006	0.006	9.87727894897461	-0.8086416107177734	-0.0143652099609375	-2.37274169921875	-0.41961669921875	-0.6561279296875	9.90840357055664	0.20290859069824219	0.00718260498046875	0.18310546875	-4.970550537109375	-2.8533935546875	10.165780249023436	-0.29867665710449215	-0.29568390502929687	3.612518310546875	-4.44793701171875	-2.47955322265625	
141	0.5640000000000001	0.0	0.0	0.0	0.0	0.009000000000000001	0.003	0.003	0.003	9.797073193359374	-0.8451531860351562	0.2765302917480469	-2.285003662109375	-0.400543212890625	-0.48065185546875	9.749189160156249	0.6500257507324219	0.40222587890625	0.492095947265625	-5.0506591796875	-3.082275390625	10.102932455444336	0.22086510314941404	-0.04548983154296875	3.62396240234375	-4.40216064453125	-1.842498779296875	
142	0.5680000000000001	0.0	0.0	0.0	0.0	0.009000000000000001	0.003	0.003	0.003	9.898826763916015	-0.6925228302001952	-0.01975216369628906	-2.109527587890625	-0.484466552734375	-0.48065185546875	9.910199221801758	0.24600422058105467	0.006584054565429687	0.55694580078125	-5.107879638671875	-3.086090087890625	10.14542953491211	-0.5141548065185546	-0.2705447875976562	3.459930419921875	-4.44793701171875	-1.861572265625	
143	0.5720000000000001	0.0	0.0	0.0	0.0	0.0	0.003	0.003	0.0	9.79408044128418	-0.8038532073974609	0.3082534637451172	3.490447998046875	-0.8697509765625	-0.54931640625	9.738415252685547	0.6793547210693359	0.430956298828125	0.20599365234375	-4.940032958984375	-2.841949462890625	10.08018753967285	0.21966800231933592	-0.03172317199707031	3.803253173828125	-4.72259521484375	-2.11334228515625	
144	0.5760000000000001	0.0	0.0	0.0	0.0	0.003	0.006	0.003	0.0	9.903615167236328	-0.5728127471923827	0.02633621826171875	-1.4801025390625	-0.843048095703125	-0.42724609375	9.882067352294921	0.1466448516845703	0.1466448516845703	0.751495361328125	-5.0506591796875	-3.177642822265625	10.127473022460936	-0.5781997009277343	-0.25737667846679685	3.482818603515625	-4.5318603515625	-1.922607421875	
145	0.58	0.0	0.0	0.0	0.0	0.0	0.003	0.003	0.006	9.87608184814453	0.6350619903564453	0.1370680450439453	3.89862060546875	-4.12750244140625	-1.033782958984375	9.758167416381836	0.7146691955566405	0.4291606475830078	0.5340576171875	-4.974365234375	-2.986907958984375	10.026318002319336	0.28790274963378903	-0.06763619689941405	3.566741943359375	-4.50897216796875	-1.861572265625	
146	0.584	0.0	0.0	0.0	0.0	0.009000000000000001	0.003	0.003	0.003	9.906009368896484	-0.4159925384521484	0.06105214233398437	-0.9002685546875	-1.094818115234375	-0.3662109375	9.899425314331054	0.16041151123046873	0.14245499877929688	0.377655029296875	-4.886627197265625	-3.055572509765625	10.128670123291014	-0.5991489654541016	-0.2759317413330078	3.66973876953125	-4.5318603515625	-1.79290771484375	
147	0.588	0.0	0.0	0.0	0.0	0.003	0.006	0.006	0.003	9.90122096557617	0.7673416320800781	0.105344873046875	4.7760009765625	-4.70733642578125	-0.957489013671875	9.771934075927733	0.5770026000976562	0.20290859069824219	0.400543212890625	-4.7760009765625	-3.139495849609375	9.997587582397461	0.24839842224121092	-0.04848258361816406	3.604888916015625	-4.650115966796875	-1.865386962890625	
148	0.592	0.0	0.0	0.0	0.0	0.003	0.003	0.003	0.003	9.840767373657226	0.6542156036376953	-0.07721300354003906	7.293701171875	-6.4697265625	-1.216888427734375	9.906009368896484	0.1693897674560547	0.14185644836425781	0.4119873046875	-5.25665283203125	-2.887725830078125	9.958681805419921	-0.061650692749023434	-0.30705636291503907	3.505706787109375	-4.6844482421875	-1.71661376953125	
149	0.596	0.0	0.0	0.0	0.0	0.0	0.006	0.003	0.009000000000000001	9.943119494628906	0.958877764892578	0.08678981018066406	5.611419677734375	-5.527496337890625	-1.10626220703125	9.78031378173828	0.6865373260498047	0.19871873779296872	0.43487548828125	-4.69207763671875	-3.131866455078125	10.024522351074218	0.35314474487304687	-0.07242460021972656	3.582000732421875	-4.5166015625	-1.861572265625	
150	0.6	0.0	0.0	0.0	0.0	0.003	0.003	0.006	0.006	9.977236868286132	0.7044938385009765	-0.0987608184814453	7.30133056640625	-6.73675537109375	-1.430511474609375	9.730035546875	0.2154781494140625	0.24660277099609373	-0.164031982421875	-5.023956298828125	-2.05230712890625	9.911396322631836	0.05566518859863281	-0.2998737579345703	3.620147705078125	-4.711151123046875	-1.567840576171875	
151	0.604	0.0	0.0	0.0	0.0	0.003	0.003	0.003	0.003	9.967061511230469	0.9522937103271484	0.0430956298828125	6.38580322265625	-5.72967529296875	-1.13677978515625	9.785102185058593	0.6015431671142578	0.20769699401855468	0.274658203125	-4.711151123046875	-3.19671630859375	9.983820922851562	0.2184709014892578	-0.013168109130859374	3.627777099609375	-4.413604736328125	-2.040863037109375	
152	0.608	0.0	0.0	0.0	0.0	0.003	0.003	0.003	0.003	9.989806427001952	0.6171054779052734	-0.1484405029296875	7.22503662109375	-6.7291259765625	-1.22833251953125	9.750984811401366	0.19033903198242186	0.23702596435546874	-0.194549560546875	-4.8828125	-2.292633056640625	9.910199221801758	-0.002992752075195312	-0.25258827514648435	3.6468505859375	-4.7760009765625	-1.617431640625	
153	0.612	0.0	0.0	0.0	0.0	0.003	0.006	0.003	0.006	9.797073193359374	-0.17896657409667968	0.11192892761230468	5.191802978515625	-5.523681640625	-1.514434814453125	9.708487731933593	0.20649989318847656	0.07481880187988281	0.0457763671875	-4.79888916015625	-3.009796142578125	9.835978970336914	0.3746925598144531	-0.14903905334472656	3.582000732421875	-4.444122314453125	-2.9449462890625	
154	0.616	0.0	0.0	0.0	0.0	0.006	0.006	0.006	0.003	9.97244846496582	0.5997475158691405	-0.17776947326660156	7.442474365234375	-6.75201416015625	-1.392364501953125	9.733626849365233	0.22026655273437498	0.26815058593749996	-0.43487548828125	-4.779815673828125	-2.26593017578125	9.860519537353515	0.006584054565429687	-0.19093758239746092	3.787994384765625	-4.57763671875	-1.6021728515625	
155	0.62	0.0	0.0	0.0	0.0	0.003	0.006	0.003	0.006	9.7928833404541	-0.3651157531738281	0.1131260284423828	4.627227783203125	-4.932403564453125	-1.560211181640625	9.734225399780273	0.14006079711914063	0.04369418029785156	-0.156402587890625	-4.703521728515625	-3.276824951171875	9.864709390258788	0.27353753967285155	-0.15741875915527342	3.85284423828125	-4.57000732421875	-2.956390380859375	
156	0.624	0.0	0.0	0.0	0.0	0.006	0.003	0.003	0.003	9.94072529296875	0.5931634613037109	-0.18076222534179687	7.01141357421875	-7.129669189453125	-1.6021728515625	9.677363110351562	0.4578910675048828	-0.004189852905273437	0.461578369140625	-5.016326904296875	-2.73895263671875	9.879074600219726	0.35015199279785153	-0.08439560852050781	3.4942626953125	-4.741668701171875	-2.132415771484375	
157	0.628	0.0	0.0	0.0	0.0	0.003	0.003	0.003	0.006	9.779116680908203	-0.42975919799804685	0.15861585998535155	3.498077392578125	-4.413604736328125	-1.468658447265625	9.670180505371093	0.316034619140625	0.08978256225585937	-0.049591064453125	-4.848480224609375	-3.39508056640625	9.803657247924804	0.3806780639648437	-0.06464344482421874	3.803253173828125	-4.619598388671875	-2.902984619140625	
158	0.632	0.0	0.0	0.0	0.0	0.006	0.003	0.006	0.003	9.756970315551758	-1.1737573638916015	0.11552023010253906	-2.857208251953125	-0.194549560546875	-0.408172607421875	9.698910925292969	0.31543606872558594	-0.0047884033203125	0.30517578125	-4.9896240234375	-2.941131591796875	9.879074600219726	0.42497079467773435	-0.010175357055664061	3.50189208984375	-4.5623779296875	-1.8768310546875	
159	0.636	0.0	0.0	0.0	0.0	0.003	0.003	0.003	0.006	9.750386260986328	-0.5213374114990235	0.22266075439453123	2.864837646484375	-4.0435791015625	-1.12152099609375	9.82580361328125	0.4842272857666015	0.058657940673828124	0.93841552734375	-5.18798828125	-3.4942626953125	10.18373676147461	-0.43993455505371093	-0.3022679595947265	3.70025634765625	-4.444122314453125	-2.529144287109375	
160	0.64	0.0	0.0	0.0	0.0	0.006	0.003	0.003	0.006	9.846154327392577	-0.9864110839843749	0.0383072265625	-3.200531005859375	-0.392913818359375	-0.1373291015625	9.711480484008788	0.2088940948486328	0.020949264526367185	0.484466552734375	-5.054473876953125	-3.185272216796875	9.879074600219726	0.010175357055664061	0.0053869537353515625	3.406524658203125	-4.535675048828125	-2.40325927734375	
161	0.644	0.0	0.0	0.0	0.0	0.006	0.006	0.006	0.006	9.879673150634765	-0.5506663818359374	-0.025139117431640625	0.827789306640625	-2.147674560546875	-0.949859619140625	9.85094273071289	0.5285200164794922	0.052073886108398436	0.80108642578125	-4.917144775390625	-3.269195556640625	10.177751257324218	0.47285482788085936	-0.30526071166992186	3.6163330078125	-4.32586669921875	-2.498626708984375	
162	0.648	0.0	0.0	0.0	0.0	0.003	0.003	0.003	0.003	9.86411083984375	-0.6272808349609375	0.07721300354003906	0.5645751953125	-2.25067138671875	-1.110076904296875	9.72285294189453	0.20709844360351562	0.04548983154296875	0.2899169921875	-4.95147705078125	-2.72369384765625	9.861716638183593	-0.5339069702148437	0.0909796630859375	3.582000732421875	-4.5928955078125	-1.140594482421875	
163	0.652	0.0	0.0	0.0	0.0	0.006	0.006	0.003	0.006	9.835380419921874	-0.36152445068359373	0.08918401184082031	-0.530242919921875	-1.373291015625	-0.63323974609375	9.841964474487304	0.4997895965576172	0.08140285644531249	0.637054443359375	-4.764556884765625	-3.002166748046875	10.177751257324218	0.17776947326660156	-0.29269115295410153	3.726959228515625	-4.550933837890625	-2.910614013671875	
164	0.656	0.0	0.0	0.0	0.0	0.009000000000000001	0.003	0.003	0.003	9.848548529052733	-0.7984662536621093	0.1406593475341797	-1.194000244140625	-1.2054443359375	-0.759124755859375	9.776722479248047	0.3746925598144531	0.5183446594238281	0.0762939453125	-4.92095947265625	-2.777099609375	10.120888967895507	0.2376245147705078	-0.07242460021972656	3.604888916015625	-4.550933837890625	-1.3427734375	
165	0.66	0.0	0.0	0.0	0.0	0.003	0.006	0.003	0.006	9.847949978637695	0.01915361328125	0.10594342346191406	-0.4730224609375	-1.190185546875	-0.804901123046875	9.821613760375977	0.5009866973876953	0.14604630126953125	0.30517578125	-4.756927490234375	-3.1890869140625	10.181342559814453	0.0	-0.25318682556152344	3.60107421875	-4.4097900390625	-2.574920654296875	
166	0.664	0.0	0.0	0.0	0.0	0.003	0.006	0.006	0.003	9.727641345214844	0.5596446380615234	0.4285620971679687	3.82232666015625	-4.0740966796875	-1.064300537109375	9.803657247924804	0.32022447204589843	0.4860229370117187	0.164031982421875	-4.5623779296875	-2.95257568359375	10.134057077026366	0.31663316955566406	-0.11013327636718749	3.612518310546875	-4.24957275390625	-1.4801025390625	
167	0.668	0.0	0.0	0.0	0.0	0.003	0.003	0.003	0.003	9.855132583618163	0.009576806640625	0.12030863342285156	0.46539306640625	-1.697540283203125	-0.7476806640625	9.848548529052733	0.4991910461425781	0.13168109130859373	0.52642822265625	-4.94384765625	-2.81524658203125	10.146028085327147	-0.430956298828125	-0.49799394531249996	3.856658935546875	-4.5623779296875	-2.37274169921875	
168	0.672	0.0	0.0	0.0	0.0	0.006	0.006	0.003	0.003	9.738415252685547	0.48123453369140623	0.3555389465332031	3.780364990234375	-4.047393798828125	-0.965118408203125	9.791686239624022	0.3429693878173828	0.517746109008789	0.247955322265625	-4.84466552734375	-3.1585693359375	10.135254177856444	0.3387795349121094	-0.12988544006347655	3.56292724609375	-4.3182373046875	-1.6632080078125	
169	0.676	0.0	0.0	0.0	0.0	0.003	0.003	0.003	0.003	9.889249957275391	0.12868833923339842	0.07481880187988281	0.705718994140625	-2.162933349609375	-0.518798828125	9.866505041503906	0.4830301849365234	0.0909796630859375	0.576019287109375	-5.008697509765625	-2.7618408203125	10.137049829101562	-0.4129997863769531	-0.5285200164794922	3.57818603515625	-4.703521728515625	-2.3651123046875	
170	0.68	0.0	0.0	0.0	0.0	0.003	0.003	0.003	0.003	9.783905084228515	0.5285200164794922	0.25737667846679685	5.008697509765625	-5.05828857421875	-1.03759765625	9.797073193359374	0.44113165588378905	0.06584054565429687	-0.06866455078125	-4.82177734375	-2.47955322265625	9.9981861328125	0.45669396667480466	-0.21787235107421873	3.47900390625	-4.76837158203125	-2.086639404296875	
171	0.684	0.0	0.0	0.0	0.0	0.012	0.003	0.003	0.003	9.988010775756836	0.047884033203124995	-0.2262520568847656	5.01251220703125	-5.36346435546875	-0.904083251953125	9.860519537353515	0.4878185882568359	0.07721300354003906	0.362396240234375	-5.046844482421875	-2.567291259765625	10.153809240722655	-0.3399766357421875	-0.5488707305908203	3.4637451171875	-4.627227783203125	-2.117156982421875	
172	0.6880000000000001	0.0	0.0	0.0	0.0	0.009000000000000001	0.003	0.003	0.006	9.782109432983399	0.4070142822265625	0.18854338073730467	5.802154541015625	-5.748748779296875	-1.110076904296875	9.764152920532226	0.44532150878906246	0.09217676391601562	0.0152587890625	-4.886627197265625	-2.658843994140625	9.95987890625	0.3746925598144531	-0.17298106994628906	3.444671630859375	-4.60052490234375	-2.178192138671875	
173	0.6920000000000001	0.0	0.0	0.0	0.0	0.006	0.003	0.003	0.003	9.935338339233398	-0.05746083984375	-0.15322890625	4.1961669921875	-5.039215087890625	-0.9002685546875	9.777919580078125	0.4159925384521484	-0.0143652099609375	0.209808349609375	-4.76837158203125	-2.838134765625	10.088567245483398	-0.26695348510742184	-0.45968671875	3.559112548828125	-4.711151123046875	-1.8768310546875	
174	0.6960000000000001	0.0	0.0	0.0	0.0	0.003	0.003	0.003	0.003	9.777321029663085	0.3124433166503906	0.18136077575683593	2.44140625	-3.68499755859375	-0.90789794921875	9.759963067626952	0.40222587890625	0.10414777221679687	0.0	-4.680633544921875	-2.681732177734375	9.96586441040039	0.29448680419921874	-0.10594342346191406	3.612518310546875	-4.604339599609375	-2.201080322265625	
175	0.7000000000000001	0.0	0.0	0.0	0.0	0.003	0.006	0.003	0.006	9.911396322631836	-0.13826514587402344	-0.08020575561523437	3.261566162109375	-4.09698486328125	-0.74005126953125	9.789890588378906	0.488417138671875	-0.017956512451171875	0.32806396484375	-4.871368408203125	-3.11279296875	9.938331091308592	-0.010175357055664061	-0.2663549346923828	3.688812255859375	-4.92095947265625	-2.01416015625	
176	0.704	0.0	0.0	0.0	0.0	0.003	0.003	0.003	0.003	9.813832604980469	-0.4836287353515625	0.052073886108398436	1.6937255859375	-3.170013427734375	-1.04522705078125	9.701305126953125	0.3435679382324219	0.14484920043945312	0.3814697265625	-5.008697509765625	-3.13568115234375	9.935936889648437	0.21906945190429686	-0.07900865478515624	3.711700439453125	-4.58526611328125	-2.452850341796875	
177	0.708	0.0	0.0	0.0	0.0	0.0	0.003	0.003	0.006	9.875483297729492	-0.17956512451171874	0.04908113403320312	2.15911865234375	-3.60870361328125	-0.93841552734375	9.803058697509766	0.5165490081787109	0.04249707946777344	0.370025634765625	-5.10406494140625	-2.895355224609375	9.94671079711914	0.05386953735351562	-0.26336218261718747	3.398895263671875	-4.8065185546875	-2.086639404296875	
178	0.712	0.0	0.0	0.0	0.0	0.003	0.003	0.003	0.003	9.843760125732421	-0.3555389465332031	0.05566518859863281	1.369476318359375	-3.215789794921875	-0.728607177734375	9.745597857666015	0.33099837951660155	0.1406593475341797	0.25177001953125	-4.730224609375	-3.253936767578125	9.898826763916015	-0.052073886108398436	0.002992752075195312	3.77655029296875	-4.566192626953125	-2.44903564453125	
179	0.716	0.0	0.0	0.0	0.0	0.003	0.006	0.006	0.003	9.90181951599121	-0.2214636535644531	-0.054468087768554684	2.12860107421875	-3.63922119140625	-0.98419189453125	9.685742816162108	0.36691140441894526	0.18255787658691405	0.5340576171875	-4.9896240234375	-2.8076171875	9.948506448364258	0.0526724365234375	-0.2549824768066406	3.6468505859375	-4.9896240234375	-2.03704833984375	
180	0.72	0.0	0.0	0.0	0.0	0.006	0.006	0.003	0.003	9.866505041503906	-0.2603694305419922	0.040102877807617184	1.758575439453125	-3.47900390625	-0.789642333984375	9.704896429443359	0.4016273284912109	0.1640028137207031	0.52642822265625	-4.924774169921875	-3.08990478515625	9.883264453125	-0.03232172241210937	-0.06045359191894531	3.849029541015625	-4.611968994140625	-2.201080322265625	
181	0.724	0.0	0.0	0.0	0.0	0.003	0.006	0.006	0.003	9.929951385498047	-0.25438392639160157	-0.086191259765625	2.811431884765625	-4.08935546875	-0.728607177734375	9.694721072387695	0.3136404174804687	0.16639701538085935	0.461578369140625	-5.18035888671875	-2.74658203125	9.87009634399414	0.1514332550048828	0.12330138549804687	3.51715087890625	-4.44793701171875	-2.071380615234375	
182	0.728	0.0	0.0	0.0	0.0	0.003	0.006	0.003	0.003	9.916783276367187	-0.2316390106201172	-0.02633621826171875	2.8076171875	-3.688812255859375	-0.797271728515625	9.752780462646484	0.3537432952880859	0.07781155395507812	0.614166259765625	-4.817962646484375	-2.872467041015625	9.918578927612304	-0.08140285644531249	-0.044891281127929686	3.631591796875	-4.33349609375	-2.3345947265625	
183	0.732	0.0	0.0	0.0	0.0	0.006	0.003	0.006	0.003	9.92755718383789	-0.31962592163085934	-0.13766659545898435	2.605438232421875	-3.90625	-1.132965087890625	9.647435589599608	0.3345896820068359	0.1304839904785156	0.54931640625	-5.107879638671875	-3.025054931640625	9.85094273071289	0.13168109130859373	0.13108254089355467	3.826141357421875	-4.61578369140625	-2.0904541015625	
184	0.736	0.0	0.0	0.0	0.0	0.006	0.003	0.006	0.003	9.83897172241211	-0.04548983154296875	0.13826514587402344	3.19671630859375	-3.879547119140625	-0.568389892578125	9.785700735473633	0.4644751220703125	0.21009119567871093	0.408172607421875	-4.734039306640625	-2.838134765625	9.855731134033203	0.013766659545898436	-0.037110125732421874	3.536224365234375	-4.40216064453125	-2.040863037109375	
185	0.74	0.0	0.0	0.0	0.0	0.006	0.003	0.003	0.006	9.97184991455078	-0.3184288208007812	-0.14963760375976562	2.69317626953125	-3.9520263671875	-1.068115234375	9.746794958496093	0.2825157958984375	0.10175357055664062	0.019073486328125	-5.401611328125	-3.04412841796875	9.95389340209961	0.06943184814453125	0.10235212097167969	3.662109375	-4.550933837890625	-2.0904541015625	
186	0.744	0.0	0.0	0.0	0.0	0.0	0.003	0.003	0.006	9.86291373901367	-0.2059013427734375	0.12030863342285156	2.872467041015625	-3.47137451171875	-0.705718994140625	9.804255798339844	0.46208092041015625	0.19871873779296872	0.453948974609375	-4.680633544921875	-3.01361083984375	10.182539660644531	-0.02693476867675781	-0.2747346405029297	3.696441650390625	-4.329681396484375	-2.384185791015625	
187	0.748	0.0	0.0	0.0	0.0	0.006	0.003	0.003	0.003	9.94012674255371	-0.2376245147705078	-0.17238251953125	3.414154052734375	-3.76129150390625	-0.888824462890625	9.740210903930663	0.37409400939941406	0.3716998077392578	-0.179290771484375	-5.1727294921875	-2.910614013671875	9.79946739501953	0.15682020874023436	0.10893617553710937	3.631591796875	-4.772186279296875	-2.216339111328125	
188	0.752	0.0	0.0	0.0	0.0	0.003	0.003	0.003	0.003	9.862315188598632	-0.28371289672851563	0.10773907470703124	2.38800048828125	-3.18145751953125	-0.75531005859375	9.847351428222655	0.4159925384521484	0.20769699401855468	0.335693359375	-4.7149658203125	-3.10516357421875	10.24718310546875	-0.00718260498046875	-0.32561142578124996	3.536224365234375	-4.337310791015625	-2.1514892578125	
189	0.756	0.0	0.0	0.0	0.0	0.003	0.003	0.003	0.003	9.73661960144043	0.15741875915527342	0.5584475372314452	3.265380859375	-3.849029541015625	-0.789642333984375	9.867702142333984	0.28490999755859375	0.32561142578124996	-0.05340576171875	-5.157470703125	-2.895355224609375	10.222642538452147	0.062249243164062495	-0.22505495605468748	3.448486328125	-4.657745361328125	-2.040863037109375	
190	0.76	0.0	0.0	0.0	0.0	0.003	0.006	0.006	0.003	9.85632968444824	-0.040701428222656245	0.03591302490234375	2.521514892578125	-3.51715087890625	-0.675201416015625	9.853336932373047	0.5740098480224609	0.012569558715820313	0.78582763671875	-4.69970703125	-2.72369384765625	10.102333905029296	0.05985504150390625	-0.28431144714355466	3.60870361328125	-4.306793212890625	-2.277374267578125	
191	0.764	0.0	0.0	0.0	0.0	0.0	0.006	0.003	0.003	9.67197615661621	0.07302315063476562	0.5997475158691405	3.078460693359375	-3.673553466796875	-0.4730224609375	9.792284790039062	0.38845921936035155	0.30047230834960936	0.415802001953125	-5.13458251953125	-2.719879150390625	10.129867224121092	0.17477672119140625	-0.22744915771484372	3.665924072265625	-4.589080810546875	-1.773834228515625	
192	0.768	0.0	0.0	0.0	0.0	0.006	0.006	0.003	0.003	9.938331091308592	0.04848258361816406	-0.0526724365234375	0.38909912109375	-2.285003662109375	-0.92315673828125	9.986215124511718	0.4542997650146484	-0.047884033203124995	0.957489013671875	-4.75311279296875	-2.70843505859375	10.228029492187499	-0.07302315063476562	-0.45968671875	3.50189208984375	-4.634857177734375	-1.964569091796875	
193	0.772	0.0	0.0	0.0	0.0	0.003	0.003	0.003	0.003	9.66000514831543	0.1753752716064453	0.6153098266601562	3.31878662109375	-3.6773681640625	-0.934600830078125	9.645639938354492	0.43634325256347656	0.4908113403320312	-0.17547607421875	-4.94384765625	-2.9449462890625	10.116699114990233	0.13646949462890623	-0.20649989318847656	3.658294677734375	-4.703521728515625	-2.063751220703125	
194	0.776	0.0	0.0	0.0	0.0	0.003	0.003	0.003	0.006	9.867702142333984	-0.09457096557617187	0.04908113403320312	-0.38909912109375	-1.987457275390625	-0.732421875	9.867702142333984	0.6278793853759765	-0.01915361328125	0.949859619140625	-4.772186279296875	-2.803802490234375	10.046070166015625	0.062249243164062495	-0.4584896179199218	3.4332275390625	-4.581451416015625	-1.712799072265625	
195	0.78	0.0	0.0	0.0	0.0	0.0	0.003	0.006	0.003	9.664195001220703	0.17477672119140625	0.5871779571533203	2.307891845703125	-3.055572509765625	-0.42724609375	9.699509475708007	0.3136404174804687	0.49260699157714843	-0.576019287109375	-4.856109619140625	-2.655029296875	10.24658455505371	0.04548983154296875	-0.2088940948486328	3.513336181640625	-4.31060791015625	-1.94549560546875	
196	0.784	0.0	0.0	0.0	0.0	0.006	0.003	0.003	0.006	9.913191973876952	0.006584054565429687	0.03531447448730469	0.19073486328125	-1.922607421875	-1.0833740234375	9.909600671386718	0.41838674011230464	-0.02454056701660156	0.579833984375	-5.19561767578125	-3.2806396484375	10.229226593017577	-0.0987608184814453	-0.508169302368164	3.631591796875	-4.596710205078125	-2.033233642578125	
197	0.788	0.0	0.0	0.0	0.0	0.006	0.003	0.003	0.003	9.962273107910155	-0.1514332550048828	-0.26695348510742184	2.044677734375	-3.292083740234375	-1.19781494140625	9.5384994140625	0.4572925170898437	0.5644330413818359	-0.080108642578125	-4.634857177734375	-2.7618408203125	9.812036953735351	0.15442600708007811	-0.14305354919433594	3.6163330078125	-4.558563232421875	-2.3956298828125	
198	0.792	0.0	0.0	0.0	0.0	0.006	0.003	0.003	0.006	9.867103591918944	0.12330138549804687	0.15562310791015624	-0.164031982421875	-1.789093017578125	-0.431060791015625	9.868899243164062	0.40581718139648437	0.029927520751953124	0.06103515625	-4.848480224609375	-3.0517578125	10.149020837402343	-0.07781155395507812	-0.3890577697753906	3.719329833984375	-4.73785400390625	-2.048492431640625	
199	0.796	0.0	0.0	0.0	0.0	0.003	0.006	0.003	0.003	10.015544094848632	-0.11791443176269531	-0.2501940734863281	3.620147705078125	-4.276275634765625	-1.46484375	9.759963067626952	0.3010708587646484	0.15203180541992187	0.194549560546875	-4.932403564453125	-2.93731689453125	10.032902056884765	-0.040701428222656245	-0.19632453613281248	3.704071044921875	-4.82940673828125	-2.315521240234375	
200	0.8	0.0	0.0	0.0	0.0	0.003	0.006	0.006	0.006	9.854534033203125	-0.054468087768554684	0.18914193115234373	3.932952880859375	-4.44793701171875	-0.55694580078125	9.83178911743164	0.5153519073486328	-0.016160861206054686	0.22125244140625	-4.810333251953125	-3.16619873046875	9.903016616821288	0.12449848632812499	-0.30346506042480464	3.60870361328125	-4.741668701171875	-2.09808349609375	
201	0.804	0.0	0.0	0.0	0.0	0.006	0.003	0.006	0.003	9.952696301269532	0.06584054565429687	-0.0939724151611328	2.74658203125	-3.826141357421875	-0.743865966796875	9.587580548095703	0.3956418243408203	0.3327940307617187	-0.141143798828125	-4.817962646484375	-3.170013427734375	9.829394915771484	0.0526724365234375	-0.054468087768554684	3.37982177734375	-4.4403076171875	-2.14385986328125	
202	0.808	0.0	0.0	0.0	0.0	0.006	0.003	0.003	0.003	9.935338339233398	0.1849520782470703	-0.1274912384033203	5.634307861328125	-5.767822265625	-1.178741455078125	9.961674557495117	0.40222587890625	-0.03531447448730469	0.48065185546875	-5.222320556640625	-2.9449462890625	10.037091909790039	0.047884033203124995	-0.26874913635253905	3.719329833984375	-5.023956298828125	-2.170562744140625	
203	0.812	0.0	0.0	0.0	0.0	0.003	0.003	0.003	0.003	9.97184991455078	-0.029328970336914062	-0.02154781494140625	4.306793212890625	-4.6539306640625	-1.621246337890625	9.6396544342041	0.41419688720703124	0.2980781066894531	-0.06866455078125	-4.7760009765625	-3.13568115234375	9.858125335693359	-0.1322796417236328	-0.059256491088867186	3.60870361328125	-4.20379638671875	-2.46429443359375	
204	0.8160000000000001	0.0	0.0	0.0	0.0	0.003	0.006	0.003	0.006	9.852139831542969	-0.16819266662597654	-0.058657940673828124	2.83050537109375	-4.06646728515625	-0.5645751953125	9.661800799560547	0.3477577911376953	0.033518823242187495	0.41961669921875	-4.978179931640625	-2.84576416015625	9.82520506286621	0.21009119567871093	-0.17477672119140625	3.5552978515625	-4.90570068359375	-1.89208984375	
205	0.8200000000000001	0.0	0.0	0.0	0.0	0.006	0.003	0.006	0.006	9.92217023010254	0.2166752502441406	-0.00239420166015625	6.389617919921875	-6.06536865234375	-0.75531005859375	9.694721072387695	0.33518823242187495	0.34715924072265625	0.499725341796875	-4.711151123046875	-3.66973876953125	9.867702142333984	-0.16998831787109375	-0.011372457885742187	3.692626953125	-4.41741943359375	-2.23541259765625	
206	0.8240000000000001	0.0	0.0	0.0	0.0	0.006	0.003	0.003	0.0	9.949104998779296	0.5255272644042969	-0.12150573425292968	7.26318359375	-6.641387939453125	-1.453399658203125	9.788693487548828	0.31543606872558594	-0.018555062866210937	0.667572021484375	-5.28717041015625	-2.960205078125	10.007762939453125	0.02454056701660156	-0.2741360900878906	3.627777099609375	-4.43267822265625	-2.15911865234375	
207	0.8280000000000001	0.0	0.0	0.0	0.0	2.169	4.626	4.6290000000000004	4.596	9.862315188598632	-0.7685387329101562	0.0909796630859375	3.963470458984375	-4.352569580078125	-0.95367431640625	9.714473236083984	0.40761283264160153	0.14963760375976562	0.213623046875	-4.390716552734375	-2.98309326171875	9.764152920532226	-0.1227028350830078	-0.020350714111328123	3.65447998046875	-4.02069091796875	-2.262115478515625	
208	0.8320000000000001	0.0	0.0	0.0	0.0	4.596	4.638	4.644	4.575	9.854534033203125	-0.5416881256103515	0.06883329772949218	2.3193359375	-3.734588623046875	-0.61798095703125	9.704896429443359	0.36152445068359373	0.1292868896484375	0.133514404296875	-5.001068115234375	-2.964019775390625	9.868899243164062	0.2819172454833984	0.14604630126953125	3.4332275390625	-4.657745361328125	-2.071380615234375	
209	0.836	0.0	0.0	0.0	0.0	4.599	4.641	4.644	4.572	10.00955859069824	0.20530279235839843	-0.19333178405761717	5.092620849609375	-5.31005859375	-0.507354736328125	9.834183319091796	0.316034619140625	0.061650692749023434	0.5035400390625	-4.680633544921875	-2.96783447265625	9.916783276367187	-0.25917232971191406	-0.07781155395507812	3.692626953125	-4.207611083984375	-2.193450927734375	
210	0.84	0.0	0.0	0.0	0.0	4.599	4.638	4.638	4.578	9.931747036743163	-0.1867477294921875	0.14245499877929688	6.35528564453125	-5.916595458984375	-1.804351806640625	9.867702142333984	0.3711012573242187	0.19213468322753904	0.019073486328125	-4.932403564453125	-2.437591552734375	9.909600671386718	0.29388825378417965	0.08978256225585937	3.604888916015625	-4.5013427734375	-2.094268798828125	
211	0.844	0.0	0.0	0.0	0.0	4.599	4.6290000000000004	4.641	4.59	9.83178911743164	-0.4782417816162109	0.17896657409667968	6.290435791015625	-5.977630615234375	-1.5869140625	9.668983404541015	0.40222587890625	0.28490999755859375	0.244140625	-4.99725341796875	-2.95257568359375	10.205284576416014	-0.15382745666503905	-0.42975919799804685	3.7078857421875	-4.39453125	-1.739501953125	
212	0.848	0.0	0.0	0.0	0.0	4.599	4.644	4.641	4.596	9.90181951599121	-1.0127473022460938	0.17058686828613281	-0.370025634765625	-1.628875732421875	0.141143798828125	9.858723886108399	0.3076549133300781	0.23343466186523437	-0.06866455078125	-4.94384765625	-2.51007080078125	9.995791931152343	0.25737667846679685	0.04668693237304687	3.688812255859375	-4.886627197265625	-2.285003662109375	
213	0.852	0.0	0.0	0.0	0.0	4.59	4.641	4.638	4.596	9.974842666625976	-0.5518634826660156	-0.10773907470703124	3.124237060546875	-3.551483154296875	-0.8087158203125	10.014346994018554	0.4369418029785156	-0.1610100616455078	1.132965087890625	-4.7454833984375	-2.887725830078125	10.324994659423828	-0.20530279235839843	-0.5452794281005859	3.673553466796875	-4.734039306640625	-1.781463623046875	
214	0.856	0.0	0.0	0.0	0.0	4.596	4.641	4.6290000000000004	4.596	9.932345587158203	0.670975015258789	0.08379705810546874	7.259368896484375	-6.328582763671875	-1.2664794921875	9.815029705810547	0.36391865234375	0.181959326171875	0.438690185546875	-5.16510009765625	-2.58636474609375	10.101136804199218	0.20051438903808594	-0.2699462371826172	3.60107421875	-4.93621826171875	-2.391815185546875	
215	0.86	0.0	0.0	0.0	0.0	4.596	4.638	4.638	4.572	9.817423907470703	-0.5129577056884765	0.1592144104003906	3.0517578125	-3.894805908203125	-1.659393310546875	9.94671079711914	0.5033808990478515	-0.08319850769042968	0.75531005859375	-4.970550537109375	-2.605438232421875	10.306439596557617	-0.15023615417480468	-0.5644330413818359	3.5552978515625	-4.634857177734375	-1.804351806640625	
216	0.864	0.0	0.0	0.0	0.0	4.599	4.641	4.644	4.569	9.868300692749022	-0.805050308227539	0.28012159423828126	4.21142578125	-4.489898681640625	-1.52587890625	9.667187753295899	0.526125814819336	0.3435679382324219	-0.09918212890625	-5.100250244140625	-3.02886962890625	10.216058483886718	0.1005564697265625	-0.3226186737060547	3.749847412109375	-4.604339599609375	-2.407073974609375	
217	0.868	0.0	0.0	0.0	0.0	4.605	4.635	4.641	4.59	9.90840357055664	-0.82360537109375	-0.03890577697753906	-3.765106201171875	0.4730224609375	0.263214111328125	9.911994873046874	0.412401235961914	-0.0526724365234375	1.110076904296875	-4.848480224609375	-3.082275390625	10.120888967895507	0.10115502014160156	-0.24899697265624998	3.5400390625	-4.688262939453125	-1.750946044921875	
218	0.872	0.0	0.0	0.0	0.0	4.596	4.641	4.641	4.593	9.750386260986328	0.6356605407714844	0.044891281127929686	3.337860107421875	-4.070281982421875	-0.90789794921875	9.655815295410155	0.6248866333007812	0.2753331909179687	0.45013427734375	-4.94384765625	-2.613067626953125	10.054449871826172	0.18555062866210936	-0.2549824768066406	3.314971923828125	-4.60052490234375	-2.05230712890625	
219	0.876	0.0	0.0	0.0	0.0	4.599	4.641	4.641	4.593	10.04846436767578	0.38247371520996093	-0.3333925811767578	4.428863525390625	-4.405975341796875	-1.251220703125	9.981426721191406	0.34715924072265625	-0.0526724365234375	0.667572021484375	-5.100250244140625	-3.08990478515625	10.147225186157225	0.1292868896484375	-0.3178302703857422	3.57818603515625	-4.711151123046875	-1.674652099609375	
220	0.88	0.0	0.0	0.0	0.0	4.59	4.638	4.635	4.596	9.721655841064452	-0.21607669982910155	0.17238251953125	4.00543212890625	-4.444122314453125	-1.65557861328125	9.750386260986328	0.5680243438720702	0.19333178405761717	0.0762939453125	-4.932403564453125	-2.3345947265625	10.146626635742187	0.14425065002441406	-0.30466216125488277	3.597259521484375	-4.87518310546875	-2.208709716796875	
221	0.884	0.0	0.0	0.0	0.0	4.596	4.638	4.6290000000000004	4.587	9.9078050201416	-0.35314474487304687	-0.06643909606933593	3.04412841796875	-4.150390625	-1.354217529296875	9.91558617553711	0.43574470214843747	-0.0143652099609375	0.3814697265625	-4.92095947265625	-3.322601318359375	10.121487518310547	0.18076222534179687	-0.3130418670654297	3.5858154296875	-4.596710205078125	-1.888275146484375	
222	0.888	0.0	0.0	0.0	0.0	4.596	4.638	4.638	4.578	9.606734161376952	-0.5925649108886718	0.35134909362792965	-2.38037109375	-0.5645751953125	-0.63323974609375	9.763554370117188	0.5446808776855468	0.4082113830566406	0.446319580078125	-5.0048828125	-3.3721923828125	9.819818109130859	-0.06763619689941405	0.05626373901367187	3.42559814453125	-4.31060791015625	-2.22015380859375	
223	0.892	0.0	0.0	0.0	0.0	4.602	4.638	2.325	0.003	9.880870251464843	-0.11911153259277343	0.11611878051757812	-2.06756591796875	-0.6103515625	-0.408172607421875	9.949104998779296	0.3848679168701172	-0.020949264526367185	0.946044921875	-4.871368408203125	-3.4637451171875	10.172962854003906	0.07541735229492187	-0.3716998077392578	3.5400390625	-4.7760009765625	-2.03704833984375	
224	0.896	0.0	0.0	0.0	0.0	0.003	0.006	0.003	0.006	9.664195001220703	-0.4016273284912109	0.2825157958984375	-2.6397705078125	-0.148773193359375	-0.560760498046875	9.670779055786133	0.48183308410644526	0.29867665710449215	0.606536865234375	-5.1116943359375	-3.406524658203125	9.802460147094726	-0.05626373901367187	0.07422025146484375	3.60870361328125	-4.695892333984375	-2.00653076171875	
225	0.9	0.0	0.0	0.0	0.0	0.006	0.003	0.003	0.003	9.928754284667969	0.2759317413330078	0.03950432739257812	1.53350830078125	-2.819061279296875	-0.6256103515625	9.91438907470703	0.41060558471679687	0.0430956298828125	0.102996826171875	-5.252838134765625	-2.811431884765625	9.865906491088866	0.2262520568847656	-0.0383072265625	3.68499755859375	-4.75311279296875	-1.934051513671875	
226	0.904	0.0	0.0	0.0	0.0	0.003	0.006	0.003	0.006	9.850344180297851	-0.1131260284423828	0.05566518859863281	6.320953369140625	-5.89752197265625	-1.079559326171875	9.75517466430664	0.469862075805664	0.22026655273437498	0.14495849609375	-4.58526611328125	-3.116607666015625	9.87009634399414	-0.06763619689941405	0.03890577697753906	3.520965576171875	-4.63104248046875	-2.254486083984375	
227	0.908	0.0	0.0	0.0	0.0	0.009000000000000001	0.003	0.003	0.006	9.974244116210937	0.44412440795898434	-0.05027823486328125	3.719329833984375	-4.306793212890625	-0.83160400390625	9.739612353515625	0.3321954803466797	0.20709844360351562	0.11444091796875	-4.89044189453125	-2.864837646484375	9.937133990478515	0.13646949462890623	-0.06943184814453125	3.47900390625	-4.76837158203125	-2.399444580078125	
228	0.912	0.0	0.0	0.0	0.0	0.006	0.003	0.003	0.003	9.808445651245117	0.12629413757324218	0.19931728820800781	5.718231201171875	-5.664825439453125	-1.0986328125	9.695319622802733	0.5823895538330078	0.20829554443359374	0.32806396484375	-4.69970703125	-2.98309326171875	9.80605144958496	0.010773907470703125	-0.03411737365722656	3.875732421875	-4.6234130859375	-2.422332763671875	
229	0.916	0.0	0.0	0.0	0.0	0.003	0.006	0.006	0.003	9.909600671386718	0.26396073303222656	0.02633621826171875	3.650665283203125	-4.154205322265625	-1.04522705078125	9.752181912231444	0.27293898925781246	0.21906945190429686	0.293731689453125	-5.096435546875	-2.96783447265625	9.936535440063476	0.10235212097167969	-0.12090718383789062	3.65447998046875	-4.52423095703125	-2.079010009765625	
230	0.92	0.0	0.0	0.0	0.0	0.003	0.006	0.003	0.006	9.864709390258788	-0.07601590270996093	0.17477672119140625	3.719329833984375	-4.15802001953125	-0.827789306640625	9.739612353515625	0.39145197143554683	0.19931728820800781	0.141143798828125	-4.547119140625	-2.99835205078125	9.880271701049804	-0.02154781494140625	-0.07541735229492187	3.719329833984375	-4.39453125	-1.99127197265625	
231	0.924	0.0	0.0	0.0	0.0	0.003	0.003	0.006	0.003	9.998784683227539	-0.2041056915283203	-0.10235212097167969	4.665374755859375	-5.046844482421875	-0.96893310546875	9.688735568237304	0.22685060729980466	0.22685060729980466	-0.05340576171875	-4.871368408203125	-3.002166748046875	9.8449572265625	0.07302315063476562	-0.09457096557617187	3.604888916015625	-4.657745361328125	-2.44903564453125	
232	0.928	0.0	0.0	0.0	0.0	0.006	0.003	0.003	0.003	9.917980377197265	-0.008978256225585938	0.06703764648437499	4.375457763671875	-4.528045654296875	-0.579833984375	9.720458740234374	0.45010991210937495	0.11432312927246092	0.3662109375	-4.730224609375	-3.108978271484375	9.804255798339844	0.05985504150390625	-0.006584054565429687	3.7994384765625	-4.329681396484375	-2.105712890625	
233	0.932	0.0	0.0	0.0	0.0	0.003	0.003	0.003	0.003	10.012551342773437	-0.3890577697753906	-0.16819266662597654	5.817413330078125	-5.741119384765625	-0.946044921875	9.822810861206055	0.2442085693359375	0.10295067138671875	0.18310546875	-5.10406494140625	-2.590179443359375	10.008960040283203	-0.08259995727539061	-0.03651157531738281	3.5858154296875	-4.909515380859375	-1.857757568359375	
234	0.936	0.0	0.0	0.0	0.0	0.006	0.003	0.003	0.006	9.945513696289062	-0.09337386474609374	0.007781155395507812	5.680084228515625	-5.60760498046875	-0.69427490234375	9.72285294189453	0.40940848388671874	0.1227028350830078	0.263214111328125	-4.665374755859375	-3.017425537109375	9.822212310791015	0.05027823486328125	-0.018555062866210937	3.742218017578125	-4.37164306640625	-2.101898193359375	
235	0.9400000000000001	0.0	0.0	0.0	0.0	0.006	0.006	0.003	0.006	9.911994873046874	-0.3764882110595703	0.0053869537353515625	5.86700439453125	-5.9814453125	-0.701904296875	9.743203656005859	0.32561142578124996	0.14544775085449219	0.08392333984375	-4.730224609375	-2.628326416015625	9.922768780517577	-0.0430956298828125	-0.02154781494140625	3.76129150390625	-4.749298095703125	-1.83868408203125	
236	0.9440000000000001	0.0	0.0	0.0	0.0	0.003	0.003	0.003	0.003	9.827000714111328	-0.5422866760253906	-0.06703764648437499	1.964569091796875	-2.849578857421875	-0.60272216796875	9.932345587158203	0.39863457641601563	-0.03531447448730469	0.995635986328125	-4.81414794921875	-2.655029296875	10.262745416259765	0.07003039855957031	-0.5027823486328125	3.68499755859375	-4.337310791015625	-2.03704833984375	
237	0.9480000000000001	0.0	0.0	0.0	0.0	0.006	0.003	0.003	0.003	9.904213717651366	-0.49799394531249996	0.04249707946777344	5.2032470703125	-5.352020263671875	-1.1444091796875	9.821015209960937	0.2867056488037109	0.04548983154296875	0.518798828125	-5.157470703125	-2.61688232421875	10.001777435302733	-0.11671733093261719	-0.04967968444824218	3.589630126953125	-4.73785400390625	-2.147674560546875	
238	0.9520000000000001	0.0	0.0	0.0	0.0	0.006	0.003	0.003	0.003	9.841365924072266	-0.6637924102783203	-0.07841010437011718	0.461578369140625	-2.410888671875	-0.66375732421875	9.920374578857421	0.36571430358886714	-0.054468087768554684	0.934600830078125	-5.046844482421875	-2.67791748046875	10.235810647583007	0.1197100830078125	-0.5051765502929687	3.80706787109375	-4.45556640625	-2.41851806640625	
239	0.9560000000000001	0.0	0.0	0.0	0.0	0.003	0.003	0.003	0.003	9.880271701049804	-0.6607996582031249	-0.008978256225585938	-0.9613037109375	-1.129150390625	-0.598907470703125	9.734823950195311	0.5434837768554687	0.34177228698730466	0.324249267578125	-4.955291748046875	-2.773284912109375	10.081384640502929	0.023942016601562498	-0.12509703674316405	3.72314453125	-4.84466552734375	-2.28118896484375	
240	0.96	0.0	0.0	0.0	0.0	0.003	0.003	0.003	0.003	9.836577520751952	-0.719457598876953	-0.06344634399414062	-0.125885009765625	-1.7852783203125	-0.629425048828125	9.937133990478515	0.4129997863769531	-0.029927520751953124	1.04522705078125	-5.001068115234375	-2.7923583984375	10.286687432861328	0.061650692749023434	-0.47644613037109373	3.70025634765625	-4.5318603515625	-1.956939697265625	
241	0.964	0.0	0.0	0.0	0.0	0.003	0.006	0.003	0.003	9.592368951416015	-0.2962824554443359	0.5614402893066406	-1.407623291015625	-0.759124755859375	-0.576019287109375	9.763554370117188	0.47764323120117186	0.39983167724609375	0.244140625	-4.695892333984375	-2.9144287109375	10.126275921630858	0.011971008300781249	-0.09696516723632811	3.620147705078125	-4.528045654296875	-1.895904541015625	
242	0.968	0.0	0.0	0.0	0.0	0.003	0.003	0.003	0.006	9.776123928833007	-0.7188590484619141	0.0430956298828125	-1.33514404296875	-0.965118408203125	-0.728607177734375	9.8694977935791	0.4225765930175781	0.15322890625	0.339508056640625	-4.703521728515625	-3.170013427734375	10.248380206298828	0.1005564697265625	-0.42437224426269526	3.391265869140625	-4.52423095703125	-2.025604248046875	
243	0.972	0.0	0.0	0.0	0.0	0.006	0.006	0.003	0.003	9.581595043945311	-0.15083470458984374	0.6105214233398437	-1.873016357421875	-0.2593994140625	-0.621795654296875	9.744400756835937	0.37708676147460934	0.479438882446289	0.370025634765625	-5.01251220703125	-2.99835205078125	10.071807833862303	0.04189852905273437	-0.010773907470703125	3.5552978515625	-4.802703857421875	-2.05230712890625	
244	0.976	0.0	0.0	0.0	0.0	0.003	0.006	0.003	0.006	9.97783541870117	0.38367081604003905	0.028131869506835935	0.09918212890625	-1.83868408203125	-0.6561279296875	9.855731134033203	0.4860229370117187	0.20051438903808594	0.4119873046875	-4.848480224609375	-3.265380859375	10.088567245483398	-0.04908113403320312	-0.3459621398925781	3.54766845703125	-4.573822021484375	-2.17437744140625	
245	0.98	0.0	0.0	0.0	0.0	0.003	0.006	0.003	0.006	9.656413845825195	0.17776947326660156	0.526125814819336	-1.651763916015625	-0.42724609375	-0.41961669921875	9.769539874267577	0.4255693450927734	0.526125814819336	0.041961669921875	-4.764556884765625	-2.86102294921875	10.160991845703125	0.07841010437011718	-0.11911153259277343	3.475189208984375	-4.53948974609375	-1.926422119140625	
246	0.984	0.0	0.0	0.0	0.0	0.003	0.003	0.003	0.003	10.026916552734374	0.5015852478027344	-0.06105214233398437	2.288818359375	-3.353118896484375	-1.064300537109375	9.872490545654296	0.4626794708251953	0.17657237243652343	0.46539306640625	-4.810333251953125	-3.0975341796875	10.054449871826172	-0.06344634399414062	-0.3477577911376953	3.681182861328125	-4.547119140625	-2.11334228515625	
247	0.988	0.0	0.0	0.0	0.0	0.006	0.003	0.003	0.003	9.685742816162108	0.5201403106689453	0.5291185668945312	0.568389892578125	-1.873016357421875	-0.9765625	9.75517466430664	0.39863457641601563	0.20470424194335937	0.02288818359375	-4.787445068359375	-2.849578857421875	9.819219558715819	0.1514332550048828	-0.002992752075195312	3.688812255859375	-4.848480224609375	-2.197265625	
248	0.992	0.0	0.0	0.0	0.0	0.003	0.006	0.003	0.006	10.086173043823242	0.508169302368164	-0.17357962036132812	3.520965576171875	-4.314422607421875	-0.682830810546875	9.913191973876952	0.49320554199218747	0.0987608184814453	0.026702880859375	-4.802703857421875	-2.742767333984375	10.109516510009765	0.0017956512451171875	-0.4560954162597656	3.7841796875	-4.497528076171875	-2.285003662109375	
249	0.996	0.0	0.0	0.0	0.0	0.003	0.003	0.006	0.003	10.070012182617187	-0.11133037719726561	-0.30885201416015623	7.251739501953125	-6.591796875	-1.02996826171875	9.776123928833007	0.4010287780761719	0.12868833923339842	0.08392333984375	-4.85992431640625	-2.910614013671875	9.843161575317382	0.20231004028320312	0.012569558715820313	3.757476806640625	-4.45556640625	-1.800537109375	
250	1.0	0.0	0.0	0.0	0.0	0.003	0.006	0.003	0.006	10.058041174316406	0.4626794708251953	-0.21248539733886718	5.36346435546875	-5.68389892578125	-1.201629638671875	9.758765966796874	0.35314474487304687	-0.02454056701660156	0.133514404296875	-4.9591064453125	-2.796173095703125	9.865307940673828	-0.16639701538085935	-0.19512743530273435	3.47137451171875	-4.817962646484375	-2.3040771484375	
251	1.004	0.0	0.0	0.0	0.0	0.006	0.003	0.003	0.003	9.95987890625	-0.2059013427734375	-0.14245499877929688	7.02667236328125	-6.6680908203125	-1.087188720703125	9.712079034423828	0.41419688720703124	0.14484920043945312	0.125885009765625	-4.98199462890625	-2.716064453125	9.840168823242188	0.2902969512939453	-0.044292730712890624	3.482818603515625	-4.543304443359375	-1.804351806640625	
252	1.008	0.0	0.0	0.0	0.0	0.003	0.006	0.006	0.009000000000000001	10.022128149414062	0.2825157958984375	-0.17657237243652343	4.024505615234375	-4.886627197265625	-0.904083251953125	9.771934075927733	0.4542997650146484	-0.010773907470703125	0.1220703125	-4.82177734375	-3.078460693359375	9.931148486328125	-0.14544775085449219	-0.16819266662597654	3.51715087890625	-4.764556884765625	-2.25830078125	
253	1.012	0.0	0.0	0.0	0.0	0.006	0.006	0.003	0.003	9.843161575317382	-0.33698388366699217	0.0430956298828125	5.02777099609375	-5.279541015625	-1.15966796875	9.698910925292969	0.37828386230468747	0.17417817077636719	0.48065185546875	-4.817962646484375	-3.173828125	9.912593423461914	0.23702596435546874	-0.07302315063476562	3.765106201171875	-4.398345947265625	-2.429962158203125	
254	1.016	0.0	0.0	0.0	0.0	0.006	0.003	0.003	0.003	9.76774422302246	-0.39923312683105466	0.13407529296874998	1.220703125	-2.93731689453125	-0.843048095703125	9.718064538574218	0.5267243652343749	0.014963760375976562	0.446319580078125	-5.06591796875	-2.98309326171875	9.87668039855957	-0.09816226806640624	-0.2059013427734375	3.54766845703125	-4.795074462890625	-2.2430419921875	
255	1.02	0.0	0.0	0.0	0.0	0.003	0.003	0.003	0.006	9.807847100830077	-0.469862075805664	0.14724340209960937	2.445220947265625	-3.597259521484375	-0.81634521484375	9.674968908691406	0.364517202758789	0.2316390106201172	0.278472900390625	-4.75311279296875	-2.948760986328125	9.88266590270996	0.19153613281249998	-0.027533319091796873	3.5552978515625	-4.486083984375	-2.407073974609375	
256	1.024	0.0	0.0	0.0	0.0	0.006	0.003	0.003	0.006	9.93354268798828	-0.3172317199707031	-0.032920272827148434	1.65557861328125	-2.74658203125	-0.75531005859375	9.898826763916015	0.2914940521240234	0.14006079711914063	0.22125244140625	-4.92095947265625	-2.918243408203125	9.975441217041014	-0.1406593475341797	-0.14784195251464843	3.662109375	-4.55474853515625	-2.0904541015625	
257	1.028	0.0	0.0	0.0	0.0	0.003	0.003	0.006	0.003	9.943718045043944	-0.22086510314941404	0.008978256225585938	3.10516357421875	-3.711700439453125	-0.55694580078125	9.674370358276366	0.3178302703857422	0.17178396911621094	-0.08392333984375	-4.52423095703125	-2.895355224609375	9.907206469726562	0.09995791931152344	-0.06763619689941405	3.570556640625	-4.344940185546875	-2.410888671875	
258	1.032	0.0	0.0	0.0	0.0	0.003	0.003	0.003	0.006	9.949703549194336	-0.23343466186523437	-0.2262520568847656	2.60162353515625	-3.79180908203125	-0.728607177734375	9.74200655517578	0.4070142822265625	0.14125789794921875	0.446319580078125	-5.199432373046875	-2.70843505859375	9.86411083984375	0.12868833923339842	0.08858546142578125	3.65447998046875	-4.352569580078125	-1.651763916015625	
259	1.036	0.0	0.0	0.0	0.0	0.0	0.003	0.003	0.006	9.92755718383789	-0.4064157318115234	0.016759411621093748	3.265380859375	-3.86810302734375	-0.54168701171875	9.911396322631836	0.4590881683349609	0.08738836059570312	0.568389892578125	-4.665374755859375	-2.620697021484375	9.982623822021484	0.012569558715820313	-0.08319850769042968	3.71551513671875	-4.31060791015625	-2.2125244140625	
260	1.04	0.0	0.0	0.0	0.0	0.003	0.003	0.003	0.003	10.00417163696289	-0.25438392639160157	-0.2088940948486328	4.0283203125	-4.95147705078125	-0.7476806640625	9.860519537353515	0.30526071166992186	0.018555062866210937	0.396728515625	-5.001068115234375	-2.994537353515625	10.09993970336914	0.020350714111328123	-0.028730419921875	3.662109375	-4.802703857421875	-1.728057861328125	
261	1.044	0.0	0.0	0.0	0.0	0.0	0.003	0.003	0.006	9.81862100830078	-0.1867477294921875	0.08379705810546874	3.60107421875	-4.1351318359375	-0.98419189453125	9.78031378173828	0.5039794494628906	0.10175357055664062	0.965118408203125	-4.756927490234375	-2.918243408203125	10.152013589477539	-0.06943184814453125	-0.3705027069091797	3.753662109375	-4.131317138671875	-2.26593017578125	
262	1.048	0.0	0.0	0.0	0.0	0.006	0.006	0.003	0.006	9.683348614501952	0.03232172241210937	0.5823895538330078	2.349853515625	-3.261566162109375	-0.804901123046875	9.779116680908203	0.4674678741455078	0.47884033203125	-0.1220703125	-4.985809326171875	-2.79998779296875	10.002375985717773	0.21428104858398436	0.016160861206054686	3.50189208984375	-4.665374755859375	-1.5411376953125	
263	1.052	0.0	0.0	0.0	0.0	0.003	0.003	0.003	0.003	9.92755718383789	-0.6607996582031249	-0.04548983154296875	1.590728759765625	-2.979278564453125	-0.67138671875	9.943119494628906	0.4321533996582031	0.15263035583496093	0.698089599609375	-4.673004150390625	-2.925872802734375	10.392032305908202	-0.2663549346923828	-0.38845921936035155	3.73077392578125	-4.32586669921875	-2.178192138671875	
264	1.056	0.0	0.0	0.0	0.0	0.006	0.006	0.003	0.003	9.752780462646484	-0.1879448303222656	0.47105917663574215	0.93841552734375	-2.0904541015625	-0.70953369140625	9.80665	0.3010708587646484	0.43634325256347656	0.1220703125	-5.123138427734375	-3.0670166015625	9.900622415161132	0.20949264526367187	0.10235212097167969	3.54766845703125	-4.398345947265625	-2.094268798828125	
265	1.06	0.0	0.0	0.0	0.0	0.006	0.003	0.003	0.006	9.830592016601562	-0.31483751831054685	0.02693476867675781	-0.446319580078125	-1.567840576171875	-0.743865966796875	9.750386260986328	0.6003460662841796	0.16759411621093748	0.698089599609375	-4.673004150390625	-3.143310546875	10.146626635742187	-0.03950432739257812	-0.43514615173339843	3.84521484375	-4.93621826171875	-1.949310302734375	
266	1.064	0.0	0.0	0.0	0.0	0.006	0.003	0.003	0.006	9.758167416381836	-0.06883329772949218	0.47884033203125	1.918792724609375	-2.956390380859375	-0.949859619140625	9.932345587158203	0.297479556274414	0.4082113830566406	0.026702880859375	-5.08880615234375	-2.87628173828125	10.188525164794921	0.16460136413574217	-0.17417817077636719	3.551483154296875	-4.66156005859375	-2.03704833984375	
267	1.068	0.0	0.0	0.0	0.0	0.006	0.003	0.003	0.0	9.920973129272461	-0.06643909606933593	0.10235212097167969	-0.644683837890625	-1.407623291015625	-1.007080078125	10.005368737792969	0.4369418029785156	-0.06643909606933593	0.83160400390625	-4.69970703125	-3.22723388671875	10.365696087646484	-0.27832594299316404	-0.4674678741455078	3.60107421875	-4.695892333984375	-2.29644775390625	
268	1.072	0.0	0.0	0.0	0.0	0.003	2.217	4.626	4.596	9.630077627563477	-0.04129997863769531	0.5021837982177734	1.15203857421875	-2.4261474609375	-0.64849853515625	9.695319622802733	0.5572504364013672	0.4578910675048828	-0.1220703125	-4.8828125	-2.758026123046875	9.90840357055664	0.2861070983886719	-0.1867477294921875	3.444671630859375	-4.581451416015625	-2.155303955078125	
269	1.076	0.0	0.0	0.0	0.0	4.596	4.638	4.641	4.578	9.898228213500976	0.0047884033203125	0.13168109130859373	-1.31988525390625	-1.2054443359375	-0.591278076171875	9.97125136413574	0.37888241271972656	-0.025737667846679687	1.22833251953125	-5.10406494140625	-2.75421142578125	10.089764346313476	0.08319850769042968	-0.3585316986083984	3.475189208984375	-4.657745361328125	-1.45721435546875	
270	1.08	0.0	0.0	0.0	0.0	4.599	4.641	4.644	4.569	10.041281762695311	-0.12509703674316405	-0.17238251953125	2.61688232421875	-3.520965576171875	-1.0986328125	9.810241302490233	0.49260699157714843	0.3268085266113281	0.05340576171875	-4.852294921875	-3.002166748046875	10.33038161315918	-0.008379705810546874	-0.25737667846679685	3.459930419921875	-4.61578369140625	-2.323150634765625	
271	1.084	0.0	0.0	0.0	0.0	4.599	4.638	4.638	4.581	9.935936889648437	0.05626373901367187	-0.0005985504150390625	-0.980377197265625	-1.3275146484375	-1.087188720703125	9.807847100830077	0.5207388610839844	-0.005985504150390624	0.667572021484375	-4.848480224609375	-3.33404541015625	9.955090502929687	0.05805939025878906	-0.21966800231933592	3.5247802734375	-4.60052490234375	-2.105712890625	
272	1.088	0.0	0.0	0.0	0.0	4.599	4.6290000000000004	4.641	4.59	9.887454306030273	0.1197100830078125	-0.00239420166015625	2.330780029296875	-3.42559814453125	-0.713348388671875	9.574412438964844	0.6428431457519531	0.36092590026855464	-0.11444091796875	-4.69207763671875	-2.6092529296875	9.562441430664062	0.14245499877929688	0.06344634399414062	3.597259521484375	-4.5013427734375	-2.28118896484375	
273	1.092	0.0	0.0	0.0	0.0	4.593	4.644	4.641	4.593	10.018536846923828	-0.20769699401855468	-0.05327098693847656	0.408172607421875	-2.2125244140625	-0.64849853515625	9.94072529296875	0.17836802368164062	0.044891281127929686	0.385284423828125	-4.970550537109375	-3.292083740234375	10.23401499633789	-0.1149216796875	-0.1370680450439453	3.448486328125	-4.6539306640625	-1.79290771484375	
274	1.096	0.0	0.0	0.0	0.0	4.59	4.638	4.641	4.596	9.94671079711914	-0.18555062866210936	-0.017357962036132813	2.620697021484375	-3.3111572265625	-1.132965087890625	9.673771807861328	0.47105917663574215	0.2603694305419922	-0.041961669921875	-4.955291748046875	-3.0670166015625	9.828197814941406	-0.19871873779296872	0.014963760375976562	3.574371337890625	-4.5013427734375	-2.513885498046875	
275	1.1	0.0	0.0	0.0	0.0	4.5840000000000005	4.635	4.632	4.599	9.795277542114258	0.10474632263183593	0.08200140686035155	2.7008056640625	-3.9215087890625	-0.640869140625	9.655815295410155	0.5488707305908203	0.08020575561523437	0.614166259765625	-5.176544189453125	-3.162384033203125	9.850344180297851	0.3489548919677734	-0.24839842224121092	3.8909912109375	-4.749298095703125	-2.1820068359375	
276	1.104	0.0	0.0	0.0	0.0	4.599	4.641	4.644	4.578	9.854534033203125	-0.2555810272216797	0.1388636962890625	1.5106201171875	-3.040313720703125	-0.92315673828125	9.623493572998047	0.38307226562499996	0.41838674011230464	0.29754638671875	-4.57763671875	-3.376007080078125	9.874286196899414	-0.22565350646972654	0.12808978881835936	3.398895263671875	-4.665374755859375	-2.147674560546875	
277	1.108	0.0	0.0	0.0	0.0	4.602	4.641	4.644	4.569	9.955090502929687	-0.11911153259277343	-0.018555062866210937	2.593994140625	-3.650665283203125	-1.2054443359375	9.922768780517577	0.12569558715820311	0.025139117431640625	0.518798828125	-4.848480224609375	-3.452301025390625	10.154407791137695	-0.02154781494140625	-0.1406593475341797	3.665924072265625	-4.650115966796875	-2.475738525390625	
278	1.112	0.0	0.0	0.0	0.0	4.596	4.635	4.641	4.587	9.791087689208984	-0.1406593475341797	0.1484405029296875	4.638671875	-4.70733642578125	-0.72479248046875	9.516951599121093	0.6685808135986328	0.23223756103515625	0.164031982421875	-4.58526611328125	-3.574371337890625	9.569025485229492	0.14305354919433594	0.008379705810546874	3.59344482421875	-4.558563232421875	-2.231597900390625	
279	1.116	0.0	0.0	0.0	0.0	4.602	4.644	0.003	0.003	9.853935482788085	0.11552023010253906	0.09337386474609374	1.556396484375	-2.98309326171875	-0.644683837890625	9.634267480468749	0.3028665100097656	0.3908534210205078	0.392913818359375	-4.856109619140625	-2.552032470703125	9.7545761138916	0.28311434631347654	0.09457096557617187	3.570556640625	-4.81414794921875	-1.9378662109375	
280	1.12	0.0	0.0	0.0	0.0	0.006	0.003	0.003	0.003	10.025719451904296	-0.2813186950683594	-0.031124621582031248	4.505157470703125	-4.669189453125	-0.888824462890625	9.891644158935547	0.24061726684570311	0.18435352783203124	0.152587890625	-4.73785400390625	-3.39508056640625	10.225036740112303	-0.38187516479492184	-0.2519897247314453	3.780364990234375	-4.306793212890625	-1.983642578125	
281	1.124	0.0	0.0	0.0	0.0	0.003	0.003	0.006	0.003	9.966462960815429	0.26874913635253905	-0.12808978881835936	3.543853759765625	-3.99017333984375	-0.957489013671875	9.732429748535155	0.33399113159179683	0.06464344482421874	0.28228759765625	-4.7607421875	-2.849578857421875	9.720458740234374	0.2705447875976562	-0.13467384338378904	3.482818603515625	-4.520416259765625	-2.399444580078125	
282	1.1280000000000001	0.0	0.0	0.0	0.0	0.003	0.003	0.006	0.006	9.843760125732421	0.18555062866210936	0.1352723937988281	6.275177001953125	-5.786895751953125	-0.507354736328125	9.559448678588867	0.594959112548828	0.2603694305419922	0.19073486328125	-4.802703857421875	-2.620697021484375	9.613916766357422	0.15322890625	-0.02154781494140625	3.635406494140625	-4.37164306640625	-1.9073486328125	
283	1.1320000000000001	0.0	0.0	0.0	0.0	0.003	0.003	0.003	0.003	9.954491952514648	-0.42377369384765623	0.05087678527832031	6.244659423828125	-6.09588623046875	-0.9765625	9.951499200439452	0.06703764648437499	0.018555062866210937	0.17547607421875	-4.669189453125	-2.643585205078125	10.245986004638672	-0.16160861206054686	-0.14963760375976562	3.41033935546875	-4.528045654296875	-1.6937255859375	
284	1.1360000000000001	0.0	0.0	0.0	0.0	0.003	0.006	0.003	0.006	10.06163247680664	0.025139117431640625	-0.15083470458984374	7.358551025390625	-6.610870361328125	-0.99945068359375	9.93354268798828	0.38247371520996093	-0.08140285644531249	0.644683837890625	-4.779815673828125	-3.086090087890625	10.038887561035155	-0.022146365356445312	-0.3298012786865234	3.47137451171875	-4.1351318359375	-2.429962158203125	
285	1.1400000000000001	0.0	0.0	0.0	0.0	0.003	0.003	0.006	0.006	9.798270294189452	-0.20231004028320312	0.181959326171875	4.970550537109375	-5.4473876953125	-1.16729736328125	9.495403784179686	0.47884033203125	0.24061726684570311	-0.06866455078125	-4.73785400390625	-2.422332763671875	9.749787710571288	0.2136824981689453	-0.11851298217773437	3.63922119140625	-4.4403076171875	-2.00653076171875	
286	1.1440000000000001	0.0	0.0	0.0	0.0	0.006	0.003	0.003	0.006	9.913191973876952	-0.3016694091796875	0.17118541870117188	6.4697265625	-6.099700927734375	-0.843048095703125	9.90122096557617	0.26336218261718747	0.0718260498046875	0.40435791015625	-5.02777099609375	-2.887725830078125	10.007762939453125	-0.08499415893554688	-0.08499415893554688	3.51715087890625	-4.63104248046875	-1.659393310546875	
287	1.1480000000000001	0.0	0.0	0.0	0.0	0.003	0.003	0.003	0.006	9.98561657409668	-0.6919242797851562	-0.03232172241210937	2.86102294921875	-4.131317138671875	-0.957489013671875	10.013149893188476	0.31004911499023435	0.044292730712890624	0.423431396484375	-4.894256591796875	-2.74658203125	10.272920773315429	-0.23044190979003906	-0.28730419921875	3.57818603515625	-4.291534423828125	-2.079010009765625	
288	1.1520000000000001	0.0	0.0	0.0	0.0	0.003	0.003	0.006	0.003	9.80605144958496	-0.21128829650878905	-0.08319850769042968	-0.518798828125	-1.323699951171875	-0.91552734375	9.6917283203125	0.6183025787353515	0.05805939025878906	0.957489013671875	-4.7760009765625	-2.979278564453125	10.072406384277343	0.26216508178710934	-0.49200844116210934	3.513336181640625	-4.50897216796875	-2.300262451171875	
289	1.156	0.0	0.0	0.0	0.0	0.003	0.003	0.003	0.003	9.765948571777344	-0.479438882446289	0.30885201416015623	3.376007080078125	-4.09698486328125	-0.8544921875	9.715670336914062	0.3447650390625	0.38247371520996093	0.0	-4.85992431640625	-2.384185791015625	9.874884747314452	-0.0718260498046875	0.12090718383789062	3.681182861328125	-4.64630126953125	-1.739501953125	
290	1.16	0.0	0.0	0.0	0.0	0.003	0.003	0.006	0.003	9.888052856445311	-0.6512228515624999	-0.028730419921875	-0.96893310546875	-1.239776611328125	-0.8392333984375	10.070012182617187	0.4171896392822265	-0.06045359191894531	0.5035400390625	-4.89044189453125	-2.89154052734375	10.522516296386717	-0.022744915771484374	-0.6302735870361328	3.803253173828125	-4.444122314453125	-2.231597900390625	
291	1.164	0.0	0.0	0.0	0.0	0.0	0.006	0.003	0.006	9.83178911743164	-0.5955576629638671	0.08499415893554688	-0.652313232421875	-1.125335693359375	-0.873565673828125	9.79348189086914	0.4495113616943359	0.11432312927246092	0.110626220703125	-4.833221435546875	-2.79998779296875	10.175357055664062	0.03950432739257812	-0.33099837951660155	3.70025634765625	-4.764556884765625	-2.105712890625	
292	1.168	0.0	0.0	0.0	0.0	0.003	0.006	0.003	0.003	9.620500820922851	-0.19333178405761717	0.3298012786865234	-2.15911865234375	-0.58746337890625	-0.69427490234375	9.643844287109374	0.6218938812255859	0.2549824768066406	0.743865966796875	-4.8675537109375	-2.78472900390625	9.958681805419921	0.27353753967285155	-0.17238251953125	3.437042236328125	-4.245758056640625	-1.987457275390625	
293	1.172	0.0	0.0	0.0	0.0	0.0	0.006	0.006	0.003	9.683348614501952	-0.012569558715820313	0.4578910675048828	-1.2969970703125	-1.110076904296875	-0.732421875	9.797073193359374	0.5153519073486328	0.3268085266113281	0.087738037109375	-5.115509033203125	-3.009796142578125	10.265139617919921	-0.027533319091796873	-0.14784195251464843	3.398895263671875	-4.634857177734375	-1.567840576171875	
294	1.176	0.0	0.0	0.0	0.0	0.003	0.006	0.003	0.006	9.847949978637695	-0.2472013214111328	0.04967968444824218	-2.18963623046875	-0.186920166015625	-0.682830810546875	9.97125136413574	0.4782417816162109	0.002992752075195312	0.8087158203125	-4.787445068359375	-3.27301025390625	10.277110626220702	-0.07062894897460938	-0.6009446166992187	3.589630126953125	-4.8828125	-2.529144287109375	
295	1.18	0.0	0.0	0.0	0.0	0.003	0.003	0.006	0.003	9.664195001220703	0.5746083984375	0.48243163452148435	0.446319580078125	-1.537322998046875	-0.81634521484375	9.483432775878907	0.6248866333007812	0.5303156677246094	-0.041961669921875	-4.45556640625	-3.10516357421875	9.834781869506836	0.14305354919433594	0.018555062866210937	3.459930419921875	-4.474639892578125	-2.056121826171875	
296	1.184	0.0	0.0	0.0	0.0	0.003	0.003	0.003	0.006	9.974244116210937	0.47285482788085936	-0.011971008300781249	4.390716552734375	-4.871368408203125	-0.79345703125	9.717465988159178	0.4656722229003906	0.35194764404296874	-0.1678466796875	-4.924774169921875	-2.79998779296875	10.013748443603514	0.1197100830078125	-0.38247371520996093	3.65447998046875	-4.894256591796875	-2.11334228515625	
297	1.188	0.0	0.0	0.0	0.0	0.003	0.003	0.003	0.003	9.989806427001952	0.3794809631347656	-0.010773907470703125	1.5411376953125	-2.41851806640625	-0.90789794921875	9.872490545654296	0.411802685546875	0.2885013000488281	0.030517578125	-4.7607421875	-3.009796142578125	10.311826550292968	0.012569558715820313	-0.05805939025878906	3.56292724609375	-4.833221435546875	-2.06756591796875	
298	1.192	0.0	0.0	0.0	0.0	0.006	0.006	0.003	0.003	10.024522351074218	0.5901707092285156	-0.23343466186523437	7.350921630859375	-6.29425048828125	-1.0223388671875	9.712079034423828	0.41898529052734373	0.20350714111328125	-0.087738037109375	-4.6539306640625	-2.99072265625	9.88266590270996	0.05566518859863281	-0.3010708587646484	3.498077392578125	-4.467010498046875	-2.201080322265625	
299	1.196	0.0	0.0	0.0	0.0	0.003	0.006	0.003	0.006	9.885658654785155	0.689530078125	0.10474632263183593	3.0059814453125	-3.597259521484375	-1.148223876953125	9.551667523193359	0.469862075805664	0.2962824554443359	0.1373291015625	-4.741668701171875	-2.79998779296875	9.613318215942382	0.3555389465332031	0.10354922180175781	3.56292724609375	-4.825592041015625	-1.811981201171875	
300	1.2	0.0	0.0	0.0	0.0	0.006	0.003	0.003	0.006	10.08677159423828	0.18375497741699218	-0.2998737579345703	7.51495361328125	-7.2784423828125	-0.67901611328125	9.975441217041014	0.3585316986083984	-0.0796072052001953	0.0	-4.955291748046875	-2.6702880859375	10.225635290527343	-0.19871873779296872	-0.5141548065185546	3.448486328125	-4.92095947265625	-2.12860107421875	
301	1.204	0.0	0.0	0.0	0.0	0.009000000000000001	0.003	0.003	0.006	9.924564431762695	-0.5141548065185546	-0.04249707946777344	6.443023681640625	-6.08062744140625	-1.010894775390625	9.785102185058593	0.29269115295410153	0.01975216369628906	0.339508056640625	-4.489898681640625	-3.1280517578125	9.93354268798828	0.15861585998535155	-0.14963760375976562	3.5858154296875	-4.512786865234375	-2.0294189453125	
302	1.208	0.0	0.0	0.0	0.0	0.003	0.006	0.006	0.006	9.764751470947266	0.2442085693359375	0.12868833923339842	6.744384765625	-6.694793701171875	-1.010894775390625	9.491213931274414	0.5099649536132812	0.22266075439453123	0.54168701171875	-4.92095947265625	-2.9449462890625	9.658808047485351	-0.011971008300781249	-0.0383072265625	3.63922119140625	-4.886627197265625	-2.292633056640625	
303	1.212	0.0	0.0	0.0	0.0	0.006	0.003	0.003	0.006	9.770736975097655	-0.5189432098388671	0.2699462371826172	3.658294677734375	-4.505157470703125	-0.701904296875	9.756970315551758	0.2819172454833984	0.15981296081542967	0.335693359375	-4.8980712890625	-3.12042236328125	9.897629663085937	0.22026655273437498	-0.04608838195800781	3.566741943359375	-4.87518310546875	-1.987457275390625	
304	1.216	0.0	0.0	0.0	0.0	0.006	0.006	0.003	0.003	9.897629663085937	-0.11731588134765625	-0.0005985504150390625	0.55694580078125	-5.191802978515625	-1.178741455078125	9.862315188598632	0.29568390502929687	-0.03232172241210937	0.579833984375	-5.157470703125	-3.177642822265625	10.06821653137207	-0.28311434631347654	-0.20769699401855468	3.795623779296875	-4.69970703125	-2.31170654296875	
305	1.22	0.0	0.0	0.0	0.0	0.003	0.003	0.003	0.003	9.739612353515625	-0.2902969512939453	0.2663549346923828	2.593994140625	-3.376007080078125	-0.896453857421875	9.555258825683593	0.43574470214843747	0.3902548706054687	0.58746337890625	-4.627227783203125	-3.07464599609375	9.865906491088866	0.16160861206054686	-0.08499415893554688	3.80706787109375	-4.436492919921875	-2.376556396484375	
306	1.224	0.0	0.0	0.0	0.0	0.006	0.003	0.006	0.003	9.897629663085937	-0.32920272827148434	0.03411737365722656	1.51824951171875	-3.143310546875	-0.579833984375	9.670180505371093	0.3902548706054687	0.1322796417236328	0.091552734375	-5.04302978515625	-2.9296875	9.719860189819336	-0.013168109130859374	0.018555062866210937	3.582000732421875	-4.825592041015625	-2.155303955078125	
307	1.228	0.0	0.0	0.0	0.0	0.006	0.006	0.006	0.006	9.970054263305663	-0.29269115295410153	-0.017357962036132813	4.49371337890625	-4.566192626953125	-0.91552734375	9.980828170776366	0.27952304382324217	0.01915361328125	0.705718994140625	-5.214691162109375	-3.261566162109375	10.134655627441406	-0.1005564697265625	-0.1927332336425781	3.70025634765625	-4.154205322265625	-2.346038818359375	
