	time	dac1	dac2	dac3	dac4	adc1.3	adc2.3	adc3.3	adc4.3	imu1accx	imu1accy	imu1accz	imu1gyrox	imu1gyroy	imu1gyroz	imu2accx	imu2accy	imu2accz	imu2gyrox	imu2gyroy	imu2gyroz	imu3accx	imu3accy	imu3accz	imu3gyrox	imu3gyroy	imu3gyroz	log
0	0.0	0.0	0.0	0.0	0.0	0.006	0.003	0.003	0.003	9.868899243164062	-0.1484405029296875	0.11372457885742186	2.582550048828125	-3.498077392578125	-1.02996826171875	9.770138424682617	0.39324762268066404	0.20829554443359374	0.49591064453125	-4.924774169921875	-2.9144287109375	10.01015714111328	0.03651157531738281	-0.1083376251220703	3.734588623046875	-4.76837158203125	-2.03704833984375	Estabilizou em 5s, 956 rpm
1	0.004	0.0	0.0	0.0	0.0	0.0	0.003	0.006	0.003	9.864709390258788	-0.143652099609375	0.1197100830078125	2.490997314453125	-3.662109375	-0.74005126953125	9.769539874267577	0.39444472351074217	0.21487959899902342	0.6103515625	-5.218505859375	-3.101348876953125	10.008361489868163	0.029328970336914062	-0.11013327636718749	3.566741943359375	-4.505157470703125	-2.05230712890625	Started
2	0.008	0.0	0.0	0.0	0.0	0.006	0.003	0.006	0.006	9.865307940673828	-0.1466448516845703	0.10714052429199218	2.582550048828125	-3.795623779296875	-0.782012939453125	9.77492682800293	0.39444472351074217	0.20829554443359374	0.2288818359375	-4.7607421875	-2.735137939453125	10.013748443603514	0.028730419921875	-0.1149216796875	3.4637451171875	-4.5013427734375	-2.2125244140625	IMU1|LSM6DS3|0x6A|I2C-1|±2g (±19,6m/s²)|±125º/s|400Hz
3	0.012	0.0	0.0	0.0	0.0	0.006	0.003	0.006	0.006	9.871293444824218	-0.15203180541992187	0.11192892761230468	2.544403076171875	-3.74603271484375	-0.751495361328125	9.78629928588867	0.3758896606445312	0.2088940948486328	0.20599365234375	-4.6234130859375	-2.87628173828125	10.011354241943359	0.025139117431640625	-0.09696516723632811	3.509521484375	-4.459381103515625	-2.101898193359375	IMU2|LSM6DS3|0x6B|I2C-1|±2g (±19,6m/s²)|±125º/s|400Hz
4	0.016	0.0	0.0	0.0	0.0	0.003	0.006	0.003	0.003	9.87009634399414	-0.1514332550048828	0.10893617553710937	2.25830078125	-3.330230712890625	-0.579833984375	9.788693487548828	0.38307226562499996	0.201112939453125	0.164031982421875	-4.92095947265625	-2.849578857421875	10.011952792358398	0.032920272827148434	-0.0987608184814453	3.543853759765625	-4.634857177734375	-2.277374267578125	IMU3|LSM6DS3|0x6B|I2C-2|±2g (±19,6m/s²)|±125º/s|400Hz
5	0.02	0.0	0.0	0.0	0.0	0.003	0.006	0.003	0.006	9.867702142333984	-0.15203180541992187	0.11611878051757812	2.521514892578125	-3.635406494140625	-0.89263916015625	9.789890588378906	0.38247371520996093	0.201112939453125	0.102996826171875	-5.096435546875	-2.864837646484375	10.011952792358398	0.028730419921875	-0.09516951599121093	3.353118896484375	-4.512786865234375	-2.124786376953125	ADC|ADS1015|0|0|1|0|±6,144 V|2400 SPS
6	0.024	0.0	0.0	0.0	0.0	0.003	0.003	0.006	0.006	9.86411083984375	-0.16220716247558592	0.12569558715820311	2.6702880859375	-3.5858154296875	-0.797271728515625	9.781510882568359	0.37289690856933594	0.2041056915283203	0.385284423828125	-5.069732666015625	-2.796173095703125	10.005967288208007	0.008978256225585938	-0.08738836059570312	3.627777099609375	-4.69207763671875	-2.00653076171875	Gen1|Disabled
7	0.028	0.0	0.0	0.0	0.0	0.006	0.003	0.003	0.006	9.86351228942871	-0.15741875915527342	0.12509703674316405	2.552032470703125	-3.4942626953125	-0.98419189453125	9.78031378173828	0.37768531188964843	0.2166752502441406	0.1983642578125	-4.955291748046875	-2.857208251953125	10.002974536132811	0.022146365356445312	-0.07481880187988281	3.5858154296875	-4.608154296875	-2.208709716796875	Gen2|Enabled|Noise|0.0|10.0|1668
8	0.032	0.0	0.0	0.0	0.0	0.003	0.006	0.003	0.006	9.87608184814453	-0.15502455749511718	0.11013327636718749	2.57110595703125	-3.5552978515625	-0.835418701171875	9.785102185058593	0.3758896606445312	0.21009119567871093	0.255584716796875	-5.039215087890625	-2.796173095703125	10.007762939453125	0.014963760375976562	-0.08080430603027343	3.536224365234375	-4.67681884765625	-2.101898193359375	Gen3|Enabled|Noise|0.0|10.0|128
9	0.036000000000000004	0.0	0.0	0.0	0.0	0.006	0.006	0.003	0.009000000000000001	9.87009634399414	-0.1562216583251953	0.10235212097167969	2.5787353515625	-3.673553466796875	-0.77056884765625	9.784503634643555	0.36691140441894526	0.21428104858398436	0.453948974609375	-5.023956298828125	-2.887725830078125	10.012551342773437	0.0143652099609375	-0.08379705810546874	3.505706787109375	-4.558563232421875	-2.094268798828125	Gen4|Enabled|Noise|0.0|10.0|128
10	0.04	0.0	0.0	0.0	0.0	0.006	0.006	0.003	0.003	9.86291373901367	-0.15861585998535155	0.11552023010253906	2.521514892578125	-3.631591796875	-0.804901123046875	9.785102185058593	0.3716998077392578	0.21428104858398436	0.20599365234375	-4.73785400390625	-2.872467041015625	10.00417163696289	0.01975216369628906	-0.08319850769042968	3.77655029296875	-4.5318603515625	-2.0904541015625	Ctrl|Disabled
11	0.044	0.0	0.0	0.0	0.0	0.003	0.006	0.003	0.003	9.868300692749022	-0.14724340209960937	0.0987608184814453	2.597808837890625	-3.73077392578125	-0.8697509765625	9.78629928588867	0.3752911102294922	0.201112939453125	0.48065185546875	-5.092620849609375	-2.994537353515625	10.001178884887695	0.031124621582031248	-0.086191259765625	3.810882568359375	-4.38690185546875	-2.1820068359375	
12	0.048	0.0	0.0	0.0	0.0	0.003	0.003	0.003	0.006	9.861716638183593	-0.15023615417480468	0.08319850769042968	2.544403076171875	-3.7384033203125	-0.823974609375	9.783905084228515	0.38666356811523434	0.18555062866210936	0.553131103515625	-4.497528076171875	-2.86102294921875	9.999981784057617	0.037110125732421874	-0.09457096557617187	3.757476806640625	-4.627227783203125	-2.231597900390625	
13	0.052000000000000005	0.0	0.0	0.0	0.0	0.003	0.003	0.003	0.003	9.867702142333984	-0.1370680450439453	0.07601590270996093	2.8228759765625	-3.7384033203125	-0.995635986328125	9.785102185058593	0.3908534210205078	0.18255787658691405	0.3814697265625	-4.657745361328125	-2.74658203125	10.007762939453125	0.03591302490234375	-0.1149216796875	3.53240966796875	-4.6234130859375	-2.1514892578125	
14	0.056	0.0	0.0	0.0	0.0	0.003	0.003	0.003	0.003	9.87727894897461	-0.1304839904785156	0.07481880187988281	2.51007080078125	-3.62396240234375	-0.9002685546875	9.784503634643555	0.40282442932128903	0.15502455749511718	0.400543212890625	-4.7760009765625	-2.964019775390625	10.013748443603514	0.03950432739257812	-0.12389993591308593	3.757476806640625	-4.634857177734375	-2.033233642578125	
15	0.06	0.0	0.0	0.0	0.0	0.006	0.006	0.003	0.003	9.865906491088866	-0.12569558715820311	0.05686228942871093	2.658843994140625	-3.60107421875	-0.881195068359375	9.790489138793944	0.4112041351318359	0.14604630126953125	0.301361083984375	-5.05828857421875	-2.96783447265625	10.00955859069824	0.05626373901367187	-0.143652099609375	3.520965576171875	-4.566192626953125	-2.025604248046875	
16	0.064	0.0	0.0	0.0	0.0	0.006	0.006	0.003	0.006	9.874884747314452	-0.10594342346191406	0.05087678527832031	2.834320068359375	-3.570556640625	-0.835418701171875	9.783905084228515	0.41539398803710936	0.14425065002441406	0.244140625	-5.06591796875	-2.880096435546875	10.014945544433592	0.05985504150390625	-0.16460136413574217	3.4942626953125	-4.5166015625	-2.0294189453125	
17	0.068	0.0	0.0	0.0	0.0	0.003	0.006	0.006	0.003	9.871293444824218	-0.09337386474609374	0.047884033203124995	2.658843994140625	-3.8299560546875	-1.033782958984375	9.785700735473633	0.4285620971679687	0.12808978881835936	0.530242919921875	-4.947662353515625	-2.73895263671875	10.002375985717773	0.06703764648437499	-0.18914193115234373	3.879547119140625	-4.6539306640625	-1.99127197265625	
18	0.07200000000000001	0.0	0.0	0.0	0.0	0.0	0.003	0.003	0.003	9.878476049804688	-0.09157821350097656	0.030526071166992186	2.76947021484375	-3.566741943359375	-0.86212158203125	9.78629928588867	0.43514615173339843	0.12330138549804687	0.102996826171875	-4.978179931640625	-2.880096435546875	10.00417163696289	0.08379705810546874	-0.20949264526367187	3.5400390625	-4.3792724609375	-2.11334228515625	
19	0.076	0.0	0.0	0.0	0.0	0.003	0.006	0.003	0.003	9.86291373901367	-0.1005564697265625	0.027533319091796873	2.78472900390625	-3.6773681640625	-0.8087158203125	9.78629928588867	0.4327519500732422	0.11791443176269531	0.232696533203125	-5.008697509765625	-2.8839111328125	10.008960040283203	0.08798691101074219	-0.21487959899902342	3.597259521484375	-4.72259521484375	-2.101898193359375	
20	0.08	0.0	0.0	0.0	0.0	0.006	0.003	0.006	0.003	9.87069489440918	-0.08978256225585937	0.025139117431640625	2.655029296875	-3.757476806640625	-0.934600830078125	9.785102185058593	0.4477157104492187	0.10295067138671875	0.408172607421875	-4.680633544921875	-2.79998779296875	10.00955859069824	0.08439560852050781	-0.20949264526367187	3.559112548828125	-4.84466552734375	-2.109527587890625	
21	0.084	0.0	0.0	0.0	0.0	0.0	0.006	0.003	0.006	9.87668039855957	-0.08798691101074219	0.028131869506835935	2.55584716796875	-3.5858154296875	-0.820159912109375	9.782707983398437	0.45070846252441404	0.1131260284423828	0.118255615234375	-4.825592041015625	-2.9144287109375	9.9981861328125	0.09157821350097656	-0.21607669982910155	3.528594970703125	-4.421234130859375	-2.040863037109375	
22	0.088	0.0	0.0	0.0	0.0	0.003	0.003	0.003	0.003	9.87009634399414	-0.09038111267089843	0.022146365356445312	2.582550048828125	-3.650665283203125	-0.797271728515625	9.783306533813477	0.44592005920410155	0.11432312927246092	0.518798828125	-4.955291748046875	-2.864837646484375	10.002974536132811	0.07721300354003906	-0.19093758239746092	3.56292724609375	-4.550933837890625	-2.048492431640625	
23	0.092	0.0	0.0	0.0	0.0	0.003	0.006	0.003	0.003	9.867103591918944	-0.10295067138671875	0.028730419921875	2.635955810546875	-3.570556640625	-0.83160400390625	9.782109432983399	0.43514615173339843	0.12509703674316405	0.4425048828125	-5.054473876953125	-2.979278564453125	10.011354241943359	0.0718260498046875	-0.19093758239746092	3.73077392578125	-4.67681884765625	-2.1820068359375	
24	0.096	0.0	0.0	0.0	0.0	0.003	0.003	0.006	0.006	9.874884747314452	-0.09756371765136718	0.03172317199707031	2.62451171875	-3.57818603515625	-0.732421875	9.785102185058593	0.4291606475830078	0.13108254089355467	0.225067138671875	-5.031585693359375	-2.960205078125	10.006565838623047	0.06763619689941405	-0.18555062866210936	3.528594970703125	-4.6234130859375	-2.2735595703125	
25	0.1	0.0	0.0	0.0	0.0	0.009000000000000001	0.003	0.003	0.003	9.868899243164062	-0.0987608184814453	0.040102877807617184	2.483367919921875	-3.41033935546875	-0.80108642578125	9.784503634643555	0.42317514343261714	0.1274912384033203	0.17547607421875	-4.863739013671875	-2.84576416015625	10.005967288208007	0.06464344482421874	-0.1693897674560547	3.8299560546875	-4.673004150390625	-2.1820068359375	
26	0.10400000000000001	0.0	0.0	0.0	0.0	0.003	0.003	0.003	0.009000000000000001	9.873089096069336	-0.1149216796875	0.023942016601562498	2.651214599609375	-3.6773681640625	-0.9765625	9.783905084228515	0.41060558471679687	0.143652099609375	0.17547607421875	-4.8828125	-3.017425537109375	10.011952792358398	0.05985504150390625	-0.1514332550048828	3.498077392578125	-4.34112548828125	-1.903533935546875	
27	0.108	0.0	0.0	0.0	0.0	0.003	0.003	0.006	0.006	9.871293444824218	-0.11252747802734374	0.03531447448730469	2.719879150390625	-3.696441650390625	-0.782012939453125	9.782109432983399	0.4177881896972656	0.14425065002441406	0.362396240234375	-4.749298095703125	-2.956390380859375	10.007762939453125	0.051475335693359374	-0.15502455749511718	3.643035888671875	-4.5928955078125	-2.0751953125	
28	0.112	0.0	0.0	0.0	0.0	0.003	0.003	0.003	0.0	9.867103591918944	-0.11851298217773437	0.04848258361816406	2.391815185546875	-3.414154052734375	-0.9002685546875	9.779116680908203	0.4129997863769531	0.16160861206054686	0.125885009765625	-4.6844482421875	-2.780914306640625	10.008960040283203	0.058657940673828124	-0.14425065002441406	3.604888916015625	-4.894256591796875	-2.071380615234375	
29	0.116	0.0	0.0	0.0	0.0	0.0	0.003	0.003	0.006	9.86351228942871	-0.13407529296874998	0.054468087768554684	2.55584716796875	-3.589630126953125	-0.80108642578125	9.780912332153319	0.40761283264160153	0.14903905334472656	0.30517578125	-4.9591064453125	-2.99072265625	10.006565838623047	0.03651157531738281	-0.13287819213867186	3.448486328125	-4.6539306640625	-2.1209716796875	
30	0.12	0.0	0.0	0.0	0.0	0.003	0.003	0.003	0.006	9.865906491088866	-0.12808978881835936	0.05985504150390625	2.471923828125	-3.65447998046875	-0.804901123046875	9.782109432983399	0.412401235961914	0.1562216583251953	0.30517578125	-4.8065185546875	-2.81524658203125	10.011952792358398	0.04189852905273437	-0.13168109130859373	3.6163330078125	-4.40216064453125	-1.903533935546875	
31	0.124	0.0	0.0	0.0	0.0	0.003	0.006	0.003	0.003	9.8694977935791	-0.1322796417236328	0.07541735229492187	2.5634765625	-3.86810302734375	-0.84686279296875	9.78629928588867	0.4034229797363281	0.16220716247558592	0.324249267578125	-5.031585693359375	-2.910614013671875	10.01733974609375	0.04369418029785156	-0.12868833923339842	3.5858154296875	-4.428863525390625	-2.15911865234375	
32	0.128	0.0	0.0	0.0	0.0	0.003	0.003	0.003	0.003	9.874286196899414	-0.12808978881835936	0.07900865478515624	2.819061279296875	-3.459930419921875	-0.843048095703125	9.779116680908203	0.41958384094238277	0.16759411621093748	0.28228759765625	-4.894256591796875	-2.834320068359375	10.00955859069824	0.04848258361816406	-0.1322796417236328	3.6468505859375	-4.589080810546875	-2.124786376953125	
33	0.132	0.0	0.0	0.0	0.0	0.006	0.006	0.006	0.006	9.867103591918944	-0.12689268798828124	0.08080430603027343	2.593994140625	-3.70025634765625	-0.80108642578125	9.779715231323241	0.40880993347167965	0.17238251953125	0.461578369140625	-4.94384765625	-2.89154052734375	10.013748443603514	0.047884033203124995	-0.143652099609375	3.5858154296875	-4.673004150390625	-2.117156982421875	
34	0.136	0.0	0.0	0.0	0.0	0.0	0.006	0.003	0.003	9.861716638183593	-0.13467384338378904	0.08319850769042968	2.685546875	-3.696441650390625	-0.83160400390625	9.773131176757811	0.4064157318115234	0.1610100616455078	0.461578369140625	-4.810333251953125	-2.941131591796875	10.01015714111328	0.04668693237304687	-0.1514332550048828	3.711700439453125	-4.5166015625	-2.0904541015625	
35	0.14	0.0	0.0	0.0	0.0	0.003	0.003	0.006	0.003	9.864709390258788	-0.1388636962890625	0.09756371765136718	2.46429443359375	-3.7384033203125	-0.9918212890625	9.78629928588867	0.40402153015136716	0.16639701538085935	0.453948974609375	-4.917144775390625	-2.902984619140625	10.014945544433592	0.04608838195800781	-0.14425065002441406	3.56292724609375	-4.547119140625	-2.048492431640625	
36	0.14400000000000002	0.0	0.0	0.0	0.0	0.006	0.003	0.003	0.006	9.878476049804688	-0.1406593475341797	0.09038111267089843	2.54058837890625	-3.631591796875	-0.74005126953125	9.785102185058593	0.4034229797363281	0.17836802368164062	0.34332275390625	-4.6844482421875	-2.960205078125	10.015544094848632	0.04189852905273437	-0.13946224670410157	3.696441650390625	-4.6539306640625	-2.292633056640625	
37	0.148	0.0	0.0	0.0	0.0	0.006	0.003	0.006	0.003	9.87069489440918	-0.13467384338378904	0.0987608184814453	2.38800048828125	-3.4942626953125	-0.995635986328125	9.781510882568359	0.3950432739257812	0.18076222534179687	0.2593994140625	-4.955291748046875	-2.902984619140625	10.013748443603514	0.034715924072265626	-0.1322796417236328	3.448486328125	-4.5623779296875	-2.063751220703125	
38	0.152	0.0	0.0	0.0	0.0	0.0	0.003	0.003	0.003	9.871891995239258	-0.143652099609375	0.11133037719726561	2.64739990234375	-3.520965576171875	-0.78582763671875	9.785102185058593	0.3860650177001953	0.17238251953125	0.202178955078125	-4.932403564453125	-2.979278564453125	10.001777435302733	0.04189852905273437	-0.12988544006347655	3.711700439453125	-4.64630126953125	-1.9683837890625	
39	0.156	0.0	0.0	0.0	0.0	0.003	0.006	0.006	0.006	9.860519537353515	-0.14903905334472656	0.10474632263183593	2.574920654296875	-3.643035888671875	-0.972747802734375	9.782109432983399	0.38367081604003905	0.19213468322753904	0.4119873046875	-4.825592041015625	-2.964019775390625	10.006565838623047	0.025737667846679687	-0.1292868896484375	3.448486328125	-4.650115966796875	-2.071380615234375	
40	0.16	0.0	0.0	0.0	0.0	0.003	0.003	0.003	0.003	9.87009634399414	-0.14784195251464843	0.10714052429199218	2.5177001953125	-3.719329833984375	-0.812530517578125	9.783905084228515	0.38845921936035155	0.19213468322753904	0.530242919921875	-4.98199462890625	-2.994537353515625	10.000580334472655	0.029328970336914062	-0.11133037719726561	3.566741943359375	-4.82177734375	-2.201080322265625	
41	0.164	0.0	0.0	0.0	0.0	0.003	0.006	0.003	0.003	9.878476049804688	-0.14784195251464843	0.09576806640624999	2.655029296875	-3.65447998046875	-0.698089599609375	9.78629928588867	0.3806780639648437	0.19093758239746092	0.202178955078125	-4.7149658203125	-2.712249755859375	10.01075569152832	0.027533319091796873	-0.10953472595214843	3.742218017578125	-4.6844482421875	-2.132415771484375	
42	0.168	0.0	0.0	0.0	0.0	0.003	0.003	0.003	0.006	9.87009634399414	-0.14903905334472656	0.11192892761230468	2.55584716796875	-3.482818603515625	-0.8544921875	9.788693487548828	0.37768531188964843	0.20530279235839843	0.240325927734375	-5.092620849609375	-2.994537353515625	10.011354241943359	0.028730419921875	-0.10953472595214843	3.437042236328125	-4.5166015625	-2.09808349609375	
43	0.17200000000000001	0.0	0.0	0.0	0.0	-0.003	0.003	0.003	0.003	9.87727894897461	-0.14903905334472656	0.105344873046875	2.60162353515625	-3.45611572265625	-0.92315673828125	9.783905084228515	0.3699041564941406	0.19632453613281248	0.537872314453125	-5.08880615234375	-3.063201904296875	10.014945544433592	0.033518823242187495	-0.10594342346191406	3.459930419921875	-4.497528076171875	-2.002716064453125	
44	0.176	0.0	0.0	0.0	0.0	0.003	0.006	0.003	0.003	9.868300692749022	-0.14604630126953125	0.10474632263183593	2.76947021484375	-3.59344482421875	-0.804901123046875	9.779116680908203	0.3812766143798828	0.19991583862304688	0.31280517578125	-4.901885986328125	-2.79998779296875	10.008960040283203	0.01975216369628906	-0.10175357055664062	3.658294677734375	-4.66156005859375	-2.132415771484375	
45	0.18	0.0	0.0	0.0	0.0	0.003	0.003	0.003	0.003	9.867702142333984	-0.14903905334472656	0.1005564697265625	2.460479736328125	-3.528594970703125	-0.92315673828125	9.782707983398437	0.3794809631347656	0.20171148986816406	0.46539306640625	-4.940032958984375	-2.99835205078125	10.001777435302733	0.02454056701660156	-0.09636661682128905	3.726959228515625	-4.50897216796875	-2.22015380859375	
46	0.184	0.0	0.0	0.0	0.0	0.003	0.006	0.006	0.006	9.871293444824218	-0.14963760375976562	0.08678981018066406	2.4871826171875	-3.37982177734375	-0.774383544921875	9.785102185058593	0.3794809631347656	0.19512743530273435	0.431060791015625	-4.932403564453125	-2.9296875	10.014945544433592	0.02633621826171875	-0.10953472595214843	3.51715087890625	-4.57763671875	-2.0751953125	
47	0.188	0.0	0.0	0.0	0.0	0.003	0.003	0.003	0.003	9.878476049804688	-0.14425065002441406	0.07362170104980469	2.750396728515625	-3.681182861328125	-0.827789306640625	9.789292037963866	0.38367081604003905	0.16519991455078123	0.1983642578125	-4.84466552734375	-3.01361083984375	10.01015714111328	0.04369418029785156	-0.12030863342285156	3.70025634765625	-4.44793701171875	-2.197265625	
48	0.192	0.0	0.0	0.0	0.0	0.003	0.006	0.003	0.003	9.868899243164062	-0.12988544006347655	0.08798691101074219	2.593994140625	-3.631591796875	-0.98419189453125	9.785700735473633	0.3950432739257812	0.16460136413574217	0.23651123046875	-4.787445068359375	-2.70843505859375	10.011354241943359	0.040102877807617184	-0.13587094421386717	3.66973876953125	-4.5318603515625	-2.01416015625	
49	0.196	0.0	0.0	0.0	0.0	0.003	0.003	0.006	0.003	9.87009634399414	-0.12868833923339842	0.07721300354003906	2.5787353515625	-3.753662109375	-0.80108642578125	9.78031378173828	0.4082113830566406	0.15382745666503905	0.66375732421875	-4.962921142578125	-2.9449462890625	10.014346994018554	0.04848258361816406	-0.15083470458984374	3.60107421875	-4.680633544921875	-2.14385986328125	
50	0.2	0.0	0.0	0.0	0.0	0.003	0.003	0.006	0.009000000000000001	9.87009634399414	-0.11133037719726561	0.06584054565429687	2.5177001953125	-3.6163330078125	-0.850677490234375	9.77432827758789	0.41060558471679687	0.15382745666503905	0.370025634765625	-4.940032958984375	-3.025054931640625	9.999981784057617	0.05386953735351562	-0.16280571289062498	3.551483154296875	-4.566192626953125	-1.93023681640625	
51	0.20400000000000001	0.0	0.0	0.0	0.0	0.0	0.003	0.003	0.006	9.8694977935791	-0.1149216796875	0.06404489440917968	2.506256103515625	-3.604888916015625	-0.782012939453125	9.779116680908203	0.4177881896972656	0.14724340209960937	0.179290771484375	-4.70733642578125	-2.918243408203125	10.005967288208007	0.062249243164062495	-0.17178396911621094	3.77655029296875	-4.66156005859375	-2.03704833984375	
52	0.20800000000000002	0.0	0.0	0.0	0.0	0.006	0.003	0.003	0.006	9.880870251464843	-0.11372457885742186	0.04967968444824218	2.75421142578125	-3.45611572265625	-0.881195068359375	9.785102185058593	0.42377369384765623	0.14305354919433594	0.545501708984375	-5.0048828125	-2.99072265625	10.006565838623047	0.06763619689941405	-0.1879448303222656	3.5858154296875	-4.5623779296875	-1.9378662109375	
53	0.212	0.0	0.0	0.0	0.0	0.006	0.006	0.006	0.006	9.875483297729492	-0.10295067138671875	0.04848258361816406	2.490997314453125	-3.814697265625	-0.9307861328125	9.783905084228515	0.421978042602539	0.11911153259277343	0.476837158203125	-5.077362060546875	-2.918243408203125	10.015544094848632	0.07062894897460938	-0.1897404815673828	3.513336181640625	-4.642486572265625	-2.02178955078125	
54	0.216	0.0	0.0	0.0	0.0	0.003	0.003	0.006	0.003	9.878476049804688	-0.10175357055664062	0.05327098693847656	2.422332763671875	-3.448486328125	-0.80108642578125	9.779715231323241	0.42975919799804685	0.12629413757324218	0.354766845703125	-4.764556884765625	-2.773284912109375	10.007164389038085	0.06584054565429687	-0.1897404815673828	3.574371337890625	-4.673004150390625	-2.063751220703125	
55	0.22	0.0	0.0	0.0	0.0	0.0	0.006	0.003	0.003	9.867702142333984	-0.10773907470703124	0.055066638183593745	2.658843994140625	-3.51715087890625	-0.89263916015625	9.782707983398437	0.42796354675292964	0.13407529296874998	0.385284423828125	-5.0506591796875	-3.086090087890625	10.011354241943359	0.06643909606933593	-0.20051438903808594	3.627777099609375	-4.642486572265625	-2.02178955078125	
56	0.224	0.0	0.0	0.0	0.0	0.0	0.003	0.006	0.003	9.87727894897461	-0.10414777221679687	0.040701428222656245	2.62451171875	-3.826141357421875	-0.98419189453125	9.780912332153319	0.421978042602539	0.1352723937988281	0.156402587890625	-4.779815673828125	-2.880096435546875	10.008960040283203	0.06045359191894531	-0.19153613281249998	3.7078857421875	-4.61578369140625	-2.178192138671875	
57	0.228	0.0	0.0	0.0	0.0	0.003	0.006	0.006	0.003	9.87668039855957	-0.14006079711914063	0.017357962036132813	2.635955810546875	-3.814697265625	-0.743865966796875	9.78629928588867	0.4064157318115234	0.13766659545898435	0.308990478515625	-4.901885986328125	-2.880096435546875	9.994594830322265	0.034715924072265626	-0.14604630126953125	3.570556640625	-4.547119140625	-2.03704833984375	
58	0.232	0.0	0.0	0.0	0.0	0.003	0.006	0.006	0.003	9.878476049804688	-0.08858546142578125	0.047884033203124995	2.5787353515625	-3.54766845703125	-0.70953369140625	9.790489138793944	0.4632780212402344	0.13467384338378904	0.370025634765625	-4.73785400390625	-2.887725830078125	10.029310754394531	0.10893617553710937	-0.17298106994628906	3.551483154296875	-4.604339599609375	-2.140045166015625	
59	0.23600000000000002	0.0	0.0	0.0	0.0	0.006	0.006	0.003	0.003	9.843760125732421	-0.12030863342285156	0.10773907470703124	2.51007080078125	-3.2958984375	-0.91552734375	9.763554370117188	0.4165910888671875	0.1849520782470703	0.270843505859375	-5.008697509765625	-2.956390380859375	10.005368737792969	0.0718260498046875	-0.16759411621093748	3.696441650390625	-4.55474853515625	-1.97601318359375	
60	0.24	0.0	0.0	0.0	0.0	0.003	0.003	0.003	0.009000000000000001	9.865307940673828	-0.15562310791015624	0.058657940673828124	2.8228759765625	-3.726959228515625	-1.01470947265625	9.782707983398437	0.3938461730957031	0.16160861206054686	0.301361083984375	-4.58526611328125	-3.108978271484375	10.01733974609375	-0.00718260498046875	-0.17118541870117188	3.45611572265625	-4.428863525390625	-2.1820068359375	
61	0.244	0.0	0.0	0.0	0.0	0.003	0.006	0.006	0.006	9.840168823242188	-0.0383072265625	0.14006079711914063	2.521514892578125	-3.505706787109375	-0.659942626953125	9.778518130493163	0.489015689086914	0.18914193115234373	0.152587890625	-4.9591064453125	-2.727508544921875	10.049661468505859	0.19812018737792966	-0.1975216369628906	3.627777099609375	-4.734039306640625	-1.922607421875	
62	0.248	0.0	0.0	0.0	0.0	0.006	0.003	0.003	0.003	9.854534033203125	-0.2041056915283203	0.055066638183593745	2.25067138671875	-3.276824951171875	-0.8697509765625	9.804255798339844	0.30526071166992186	0.11192892761230468	0.278472900390625	-4.99725341796875	-2.948760986328125	10.022128149414062	-0.044891281127929686	-0.20470424194335937	3.6773681640625	-4.638671875	-2.22015380859375	
63	0.252	0.0	0.0	0.0	0.0	0.009000000000000001	0.003	0.003	0.003	9.833584768676758	-0.076614453125	0.17776947326660156	2.593994140625	-3.34930419921875	-0.823974609375	9.776722479248047	0.4147954376220703	0.21188684692382811	0.23651123046875	-5.016326904296875	-2.864837646484375	10.038887561035155	0.0796072052001953	-0.17058686828613281	3.22723388671875	-4.611968994140625	-2.03704833984375	
64	0.256	0.0	0.0	0.0	0.0	0.003	0.003	0.006	0.003	9.903016616821288	-0.16759411621093748	0.016759411621093748	2.407073974609375	-3.406524658203125	-0.823974609375	9.842563024902343	0.35015199279785153	0.08319850769042968	0.713348388671875	-5.14984130859375	-2.742767333984375	10.084975942993163	0.0005985504150390625	-0.23523031311035156	3.589630126953125	-4.61578369140625	-2.14385986328125	
65	0.26	0.0	0.0	0.0	0.0	0.003	0.003	0.003	0.006	9.828197814941406	-0.034715924072265626	0.19093758239746092	2.719879150390625	-3.57818603515625	-0.80108642578125	9.757568865966796	0.5207388610839844	0.17836802368164062	0.31280517578125	-4.69970703125	-2.704620361328125	10.01015714111328	0.12389993591308593	-0.1945288848876953	3.76129150390625	-4.711151123046875	-1.9378662109375	
66	0.264	0.0	0.0	0.0	0.0	0.006	0.003	0.003	0.003	9.898228213500976	-0.2507926239013672	0.014963760375976562	1.964569091796875	-3.200531005859375	-0.84686279296875	9.849745629882811	0.24121581726074218	0.09277531433105468	0.476837158203125	-4.795074462890625	-2.811431884765625	10.069413632202147	-0.14125789794921875	-0.2567781280517578	3.5858154296875	-4.61578369140625	-2.063751220703125	
67	0.268	0.0	0.0	0.0	0.0	0.003	0.003	0.003	0.003	9.92755718383789	-0.04129997863769531	0.006584054565429687	2.902984619140625	-4.150390625	-1.033782958984375	9.78629928588867	0.5668272430419922	0.181959326171875	0.423431396484375	-5.031585693359375	-2.83050537109375	10.019733947753906	0.201112939453125	-0.1466448516845703	3.711700439453125	-4.5013427734375	-1.9989013671875	
68	0.272	0.0	0.0	0.0	0.0	0.006	0.006	0.003	0.003	9.907206469726562	-0.23523031311035156	-0.00239420166015625	1.71661376953125	-3.063201904296875	-0.90789794921875	9.842563024902343	0.23223756103515625	0.05746083984375	0.1678466796875	-4.924774169921875	-2.9449462890625	10.05564697265625	-0.08858546142578125	-0.28490999755859375	3.692626953125	-4.58526611328125	-1.983642578125	
69	0.276	0.0	0.0	0.0	0.0	0.006	0.006	0.006	0.006	9.91498762512207	-0.06045359191894531	0.007781155395507812	2.803802490234375	-4.0740966796875	-0.81634521484375	9.759963067626952	0.5111620544433594	0.19572598571777342	0.576019287109375	-5.27191162109375	-2.964019775390625	9.993397729492187	0.1304839904785156	-0.14604630126953125	3.765106201171875	-4.5928955078125	-2.002716064453125	
70	0.28	0.0	0.0	0.0	0.0	0.0	0.003	0.003	0.003	9.90241806640625	-0.2711433380126953	0.022744915771484374	1.987457275390625	-3.391265869140625	-0.926971435546875	9.847351428222655	0.35194764404296874	0.13108254089355467	0.385284423828125	-4.665374755859375	-2.880096435546875	10.058639724731444	-0.06344634399414062	-0.20769699401855468	3.631591796875	-4.718780517578125	-2.033233642578125	
71	0.28400000000000003	0.0	0.0	0.0	0.0	0.003	0.006	0.003	0.006	9.925761532592773	-0.0143652099609375	0.002992752075195312	2.674102783203125	-3.6773681640625	-0.84686279296875	9.74200655517578	0.613514175415039	0.20470424194335937	0.545501708984375	-4.93621826171875	-2.99072265625	10.001178884887695	0.23044190979003906	-0.14006079711914063	3.44085693359375	-4.44793701171875	-2.05230712890625	
72	0.28800000000000003	0.0	0.0	0.0	0.0	0.009000000000000001	0.006	0.003	0.003	9.8311905670166	-0.04848258361816406	0.11731588134765625	3.19671630859375	-3.94439697265625	-0.70953369140625	9.801861596679688	0.28790274963378903	0.13826514587402344	0.011444091796875	-4.81414794921875	-2.918243408203125	10.001777435302733	-0.11432312927246092	-0.18914193115234373	3.543853759765625	-4.67681884765625	-1.819610595703125	
73	0.292	0.0	0.0	0.0	0.0	0.003	0.006	0.003	0.006	9.938331091308592	-0.029328970336914062	0.010773907470703125	3.07464599609375	-3.692626953125	-0.96893310546875	9.743203656005859	0.5758054992675781	0.19333178405761717	0.499725341796875	-4.9896240234375	-3.3111572265625	9.962273107910155	0.08080430603027343	-0.07122749938964844	3.59344482421875	-4.69207763671875	-2.2735595703125	
74	0.296	0.0	0.0	0.0	0.0	0.006	0.006	0.006	0.006	9.840767373657226	0.02454056701660156	0.10235212097167969	3.65447998046875	-4.2724609375	-0.67901611328125	9.841964474487304	0.33099837951660155	0.1322796417236328	-0.049591064453125	-4.93621826171875	-2.780914306640625	10.028712203979492	-0.05566518859863281	-0.19991583862304688	3.51715087890625	-4.428863525390625	-1.728057861328125	
75	0.3	0.0	0.0	0.0	0.0	0.003	0.006	0.003	0.003	9.925162982177733	-0.009576806640625	0.0	3.231048583984375	-3.856658935546875	-0.957489013671875	9.72345149230957	0.5572504364013672	0.19931728820800781	0.46539306640625	-4.802703857421875	-3.326416015625	9.90122096557617	0.07841010437011718	-0.05027823486328125	3.620147705078125	-4.46319580078125	-2.361297607421875	
76	0.304	0.0	0.0	0.0	0.0	0.009000000000000001	0.003	0.003	0.006	9.83178911743164	-0.010175357055664061	0.12689268798828124	3.429412841796875	-4.08935546875	-0.690460205078125	9.730035546875	0.4010287780761719	0.19093758239746092	0.186920166015625	-4.9591064453125	-2.750396728515625	10.02332525024414	-0.10893617553710937	-0.17417817077636719	3.66973876953125	-4.92095947265625	-2.20489501953125	
77	0.308	0.0	0.0	0.0	0.0	0.003	0.003	0.003	0.006	9.907206469726562	-0.10714052429199218	0.08858546142578125	3.330230712890625	-3.86810302734375	-0.820159912109375	9.743203656005859	0.6075286712646484	0.18614917907714842	0.331878662109375	-4.69207763671875	-3.299713134765625	9.941323843383788	0.13407529296874998	-0.04608838195800781	3.520965576171875	-4.24957275390625	-2.34222412109375	
78	0.312	0.0	0.0	0.0	0.0	0.003	0.006	0.006	0.006	9.826402163696288	0.029328970336914062	0.11791443176269531	3.635406494140625	-4.238128662109375	-0.789642333984375	9.710881933593749	0.4010287780761719	0.1879448303222656	0.438690185546875	-4.791259765625	-2.750396728515625	9.848548529052733	0.11073182678222655	0.01915361328125	3.589630126953125	-4.650115966796875	-1.888275146484375	
79	0.316	0.0	0.0	0.0	0.0	0.003	0.003	0.003	0.006	9.906009368896484	-0.1274912384033203	0.12330138549804687	3.597259521484375	-4.21905517578125	-1.12152099609375	9.795277542114258	0.2932897033691406	0.20769699401855468	0.2593994140625	-4.947662353515625	-3.238677978515625	9.917980377197265	0.10474632263183593	-0.005985504150390624	3.650665283203125	-4.413604736328125	-2.40325927734375	
80	0.32	0.0	0.0	0.0	0.0	0.006	0.003	0.003	0.003	9.920973129272461	-0.28790274963378903	0.01975216369628906	1.9989013671875	-3.368377685546875	-0.911712646484375	9.74200655517578	0.4291606475830078	0.14963760375976562	0.28228759765625	-5.0201416015625	-2.689361572265625	9.892242709350585	0.1484405029296875	0.014963760375976562	3.421783447265625	-4.4097900390625	-1.705169677734375	
81	0.324	0.0	0.0	0.0	0.0	0.003	0.006	0.003	0.003	9.9078050201416	-0.1322796417236328	0.10115502014160156	3.551483154296875	-4.062652587890625	-1.201629638671875	9.787496386718749	0.3058592620849609	0.15083470458984374	-0.003814697265625	-4.528045654296875	-3.24249267578125	10.065223779296874	-0.105344873046875	-0.229843359375	3.772735595703125	-4.543304443359375	-2.0904541015625	
82	0.328	0.0	0.0	0.0	0.0	0.003	0.006	0.006	0.006	9.88266590270996	-0.297479556274414	0.05386953735351562	1.93023681640625	-3.337860107421875	-0.84686279296875	9.773131176757811	0.4171896392822265	0.1945288848876953	0.217437744140625	-4.947662353515625	-2.689361572265625	9.853336932373047	0.13766659545898435	0.020949264526367185	3.814697265625	-4.69207763671875	-1.956939697265625	
83	0.332	0.0	0.0	0.0	0.0	0.003	0.003	0.006	0.006	9.926958633422851	-0.16460136413574217	0.076614453125	3.57818603515625	-4.550933837890625	-1.190185546875	9.813832604980469	0.30705636291503907	0.14185644836425781	0.263214111328125	-5.039215087890625	-3.25775146484375	10.08737014465332	-0.12330138549804687	-0.23104046020507812	3.79180908203125	-4.5928955078125	-2.38037109375	
84	0.336	0.0	0.0	0.0	0.0	0.006	0.003	0.003	0.003	9.904812268066406	-0.30705636291503907	0.02154781494140625	1.6632080078125	-3.307342529296875	-0.759124755859375	9.779715231323241	0.43514615173339843	0.15682020874023436	0.09918212890625	-4.9591064453125	-2.49481201171875	10.086173043823242	0.23882161560058593	-0.2059013427734375	3.51715087890625	-4.69207763671875	-1.987457275390625	
85	0.34	0.0	0.0	0.0	0.0	0.006	0.003	0.003	0.003	9.828796365356444	-0.3938461730957031	0.05327098693847656	1.800537109375	-3.025054931640625	-0.911712646484375	9.85752678527832	0.1580173095703125	0.040102877807617184	0.568389892578125	-4.917144775390625	-3.070831298828125	10.06881508178711	-0.10714052429199218	-0.24959552307128904	3.59344482421875	-4.306793212890625	-2.32696533203125	
86	0.34400000000000003	0.0	0.0	0.0	0.0	0.006	0.003	0.006	0.003	9.900023864746093	-0.32501287536621093	0.05686228942871093	1.57928466796875	-3.124237060546875	-0.81634521484375	9.76894132385254	0.4495113616943359	0.17597382202148437	0.2899169921875	-5.092620849609375	-2.735137939453125	10.089764346313476	0.24061726684570311	-0.19333178405761717	3.597259521484375	-4.673004150390625	-1.743316650390625	
87	0.34800000000000003	0.0	0.0	0.0	0.0	0.003	0.003	0.003	0.006	9.847949978637695	-0.4375403533935547	0.0430956298828125	1.33514404296875	-2.567291259765625	-0.782012939453125	9.885658654785155	0.11911153259277343	0.013766659545898436	0.614166259765625	-4.93621826171875	-2.986907958984375	10.098742602539062	-0.13287819213867186	-0.28431144714355466	3.421783447265625	-4.29534912109375	-2.25830078125	
88	0.352	0.0	0.0	0.0	0.0	0.006	0.003	0.006	0.003	9.892841259765625	-0.34536358947753903	0.07003039855957031	2.17437744140625	-3.02886962890625	-0.476837158203125	9.756371765136718	0.604535919189453	0.3016694091796875	0.2593994140625	-4.82177734375	-2.819061279296875	10.092158547973632	0.2855085479736328	-0.20231004028320312	3.7078857421875	-4.665374755859375	-1.6326904296875	
89	0.356	0.0	0.0	0.0	0.0	0.003	0.006	0.006	0.006	9.8449572265625	-0.4429273071289062	0.03232172241210937	0.9918212890625	-2.69317626953125	-1.010894775390625	9.87668039855957	0.12330138549804687	0.04129997863769531	0.54168701171875	-4.833221435546875	-3.040313720703125	10.158597644042969	-0.2867056488037109	-0.3597287994384765	3.482818603515625	-4.4403076171875	-2.033233642578125	
90	0.36	0.0	0.0	0.0	0.0	0.003	0.003	0.003	0.003	9.73661960144043	0.16041151123046873	0.28012159423828126	2.094268798828125	-3.177642822265625	-0.720977783203125	9.712079034423828	0.5602431884765625	0.31064766540527344	0.431060791015625	-4.894256591796875	-2.7618408203125	10.11909331665039	0.2741360900878906	-0.22565350646972654	3.650665283203125	-4.38690185546875	-1.743316650390625	
91	0.364	0.0	0.0	0.0	0.0	0.006	0.006	0.003	0.003	9.8694977935791	-0.48243163452148435	-0.010175357055664061	0.644683837890625	-2.38037109375	-0.77056884765625	9.888651406860351	0.12569558715820311	0.020949264526367185	0.396728515625	-4.779815673828125	-3.82232666015625	10.178948358154296	-0.32142157287597656	-0.39145197143554683	3.665924072265625	-4.680633544921875	-2.2735595703125	
92	0.368	0.0	0.0	0.0	0.0	0.006	0.003	0.003	0.006	9.732429748535155	0.19572598571777342	0.2747346405029297	2.025604248046875	-3.086090087890625	-0.751495361328125	9.685742816162108	0.5530605834960938	0.31962592163085934	0.446319580078125	-5.031585693359375	-2.7618408203125	10.014945544433592	0.34656069030761716	-0.12210428466796874	3.482818603515625	-4.57000732421875	-2.105712890625	
93	0.372	0.0	0.0	0.0	0.0	0.006	0.003	0.003	0.006	9.89463691101074	-0.11252747802734374	0.0652419952392578	2.040863037109375	-3.35693359375	-0.6561279296875	9.864709390258788	0.028730419921875	0.05566518859863281	0.461578369140625	-5.04302978515625	-2.86102294921875	10.174159954833984	-0.36930560607910157	-0.39803602600097654	3.658294677734375	-4.436492919921875	-1.861572265625	
94	0.376	0.0	0.0	0.0	0.0	0.006	0.006	0.003	0.006	9.753977563476562	0.19632453613281248	0.21906945190429686	2.18963623046875	-3.173828125	-0.54168701171875	9.71686743774414	0.5363011718749999	0.30466216125488277	0.3509521484375	-4.76837158203125	-2.62451171875	10.041880313110351	0.3393780853271484	-0.1406593475341797	3.47900390625	-4.6234130859375	-2.017974853515625	
95	0.38	0.0	0.0	0.0	0.0	0.003	0.006	0.003	0.003	9.878476049804688	-0.06643909606933593	0.08678981018066406	2.5787353515625	-3.391265869140625	-0.583648681640625	9.8694977935791	-0.001197100830078125	0.04189852905273437	0.324249267578125	-4.878997802734375	-2.712249755859375	9.984419473266602	-0.12389993591308593	-0.23882161560058593	3.570556640625	-4.79888916015625	-1.903533935546875	
96	0.384	0.0	0.0	0.0	0.0	0.0	0.006	0.003	0.003	9.7545761138916	0.19812018737792966	0.19931728820800781	2.162933349609375	-3.25775146484375	-0.827789306640625	9.701903677368163	0.6194996795654296	0.2645592834472656	0.4425048828125	-4.608154296875	-3.002166748046875	10.019733947753906	0.3327940307617187	-0.13168109130859373	3.448486328125	-4.726409912109375	-2.117156982421875	
97	0.388	0.0	0.0	0.0	0.0	0.003	0.006	0.006	0.003	9.884461553955077	-0.033518823242187495	0.07122749938964844	2.6702880859375	-3.513336181640625	-0.545501708984375	9.892841259765625	-0.04249707946777344	-0.014963760375976562	0.60272216796875	-5.0048828125	-2.597808837890625	9.97843396911621	-0.1322796417236328	-0.2549824768066406	3.505706787109375	-4.810333251953125	-1.758575439453125	
98	0.392	0.0	0.0	0.0	0.0	0.003	0.003	0.006	0.003	9.919177478027343	0.04668693237304687	-0.11791443176269531	4.44793701171875	-5.06591796875	-1.15966796875	9.706093530273437	0.5817910034179687	0.28012159423828126	0.530242919921875	-4.87518310546875	-3.082275390625	10.027515103149414	0.3220201232910156	-0.13467384338378904	3.5858154296875	-4.302978515625	-2.67791748046875	
99	0.396	0.0	0.0	0.0	0.0	0.003	0.006	0.003	0.003	9.874884747314452	-0.002992752075195312	0.08978256225585937	2.811431884765625	-3.76129150390625	-0.766754150390625	9.686939916992188	0.4177881896972656	0.1388636962890625	0.38909912109375	-4.8065185546875	-2.63214111328125	9.975441217041014	-0.13766659545898435	-0.2555810272216797	3.6163330078125	-4.8675537109375	-1.76239013671875	
100	0.4	0.0	0.0	0.0	0.0	0.003	0.003	0.003	0.006	9.93294413757324	0.0796072052001953	-0.11073182678222655	4.734039306640625	-5.16510009765625	-1.0986328125	9.719261639404296	0.5889736083984375	0.28490999755859375	0.537872314453125	-4.688262939453125	-2.79998779296875	9.860519537353515	0.1945288848876953	-0.014963760375976562	3.83758544921875	-4.283905029296875	-2.6702880859375	
101	0.404	0.0	0.0	0.0	0.0	0.006	0.003	0.003	0.003	9.872490545654296	-0.0053869537353515625	0.08678981018066406	3.482818603515625	-4.108428955078125	-0.640869140625	9.704896429443359	0.3393780853271484	0.14245499877929688	0.438690185546875	-5.039215087890625	-2.773284912109375	9.991003527832031	-0.16519991455078123	-0.28012159423828126	3.459930419921875	-4.970550537109375	-1.800537109375	
102	0.40800000000000003	0.0	0.0	0.0	0.0	0.006	0.006	0.003	0.003	9.906009368896484	0.059256491088867186	-0.06404489440917968	4.764556884765625	-5.07354736328125	-1.22833251953125	9.721655841064452	0.5979518646240234	0.14963760375976562	0.766754150390625	-4.726409912109375	-3.643035888671875	9.855731134033203	0.15203180541992187	0.009576806640625	3.753662109375	-4.390716552734375	-2.536773681640625	
103	0.41200000000000003	0.0	0.0	0.0	0.0	0.006	0.006	0.003	0.006	9.89523546142578	-0.07601590270996093	-0.0987608184814453	3.07464599609375	-4.245758056640625	-0.58746337890625	9.710881933593749	0.33039982910156246	0.12210428466796874	0.3814697265625	-5.08880615234375	-2.597808837890625	9.815029705810547	0.19812018737792966	0.04369418029785156	3.665924072265625	-4.573822021484375	-1.8463134765625	
104	0.41600000000000004	0.0	0.0	0.0	0.0	0.003	0.003	0.003	0.003	9.904812268066406	0.06643909606933593	-0.0383072265625	4.802703857421875	-5.062103271484375	-1.102447509765625	9.714473236083984	0.6189011291503906	0.1640028137207031	0.308990478515625	-4.695892333984375	-3.520965576171875	9.847949978637695	0.18435352783203124	0.017956512451171875	3.5400390625	-4.20379638671875	-2.58636474609375	
105	0.42	0.0	0.0	0.0	0.0	0.009000000000000001	0.003	0.003	0.006	9.896432562255859	-0.1352723937988281	-0.08200140686035155	2.796173095703125	-3.84521484375	-0.820159912109375	9.743203656005859	0.651821401977539	0.19512743530273435	0.301361083984375	-5.1422119140625	-2.51007080078125	9.81862100830078	0.12090718383789062	0.06344634399414062	3.6163330078125	-4.7760009765625	-1.9378662109375	
106	0.424	0.0	0.0	0.0	0.0	0.003	0.003	0.006	0.003	9.835380419921874	-0.4016273284912109	0.11731588134765625	2.76947021484375	-3.7384033203125	-1.07574462890625	9.6917283203125	0.6099228729248046	0.18315642700195311	0.598907470703125	-4.66156005859375	-3.505706787109375	10.116699114990233	-0.24001871643066405	-0.28431144714355466	3.543853759765625	-4.49371337890625	-2.47955322265625	
107	0.428	0.0	0.0	0.0	0.0	0.003	0.006	0.003	0.006	9.912593423461914	-0.08918401184082031	-0.09636661682128905	2.685546875	-3.932952880859375	-0.6256103515625	9.737218151855469	0.6865373260498047	0.18555062866210936	0.209808349609375	-5.2032470703125	-2.582550048828125	9.81263550415039	0.1406593475341797	0.07721300354003906	3.6468505859375	-4.66156005859375	-1.83868408203125	
108	0.432	0.0	0.0	0.0	0.0	0.006	0.003	0.003	0.003	9.82460651245117	-0.39803602600097654	0.11133037719726561	2.666473388671875	-3.4637451171875	-0.995635986328125	9.721655841064452	0.32920272827148434	0.08798691101074219	0.362396240234375	-4.573822021484375	-3.28826904296875	10.111312161254883	-0.2753331909179687	-0.2699462371826172	3.47900390625	-4.444122314453125	-2.41851806640625	
109	0.436	0.0	0.0	0.0	0.0	0.0	0.003	0.006	0.003	9.916783276367187	-0.1562216583251953	-0.11372457885742186	2.89154052734375	-4.108428955078125	-0.77056884765625	9.746794958496093	0.5973533142089843	0.17956512451171874	0.35858154296875	-5.06591796875	-2.376556396484375	9.807847100830077	0.06464344482421874	0.11252747802734374	3.4332275390625	-4.650115966796875	-1.52587890625	
110	0.44	0.0	0.0	0.0	0.0	0.006	0.003	0.003	0.003	9.816226806640625	-0.4064157318115234	0.08200140686035155	2.86865234375	-3.726959228515625	-1.068115234375	9.87009634399414	0.316034619140625	0.09995791931152344	0.339508056640625	-4.791259765625	-3.498077392578125	10.108319409179687	-0.3315969299316406	-0.23523031311035156	3.7384033203125	-4.45556640625	-2.8228759765625	
111	0.444	0.0	0.0	0.0	0.0	0.006	0.006	0.003	0.003	9.752780462646484	0.15023615417480468	0.45968671875	1.354217529296875	-2.5634765625	-0.598907470703125	9.73661960144043	0.6877344268798827	0.181959326171875	-0.041961669921875	-4.90570068359375	-2.61688232421875	10.104129556274414	0.3806780639648437	-0.14544775085449219	3.82232666015625	-4.703521728515625	-1.73187255859375	
112	0.448	0.0	0.0	0.0	0.0	0.003	0.003	0.003	0.003	9.819818109130859	-0.4746504791259765	0.09516951599121093	2.643585205078125	-3.48663330078125	-0.95367431640625	9.87608184814453	0.30885201416015623	0.1131260284423828	0.244140625	-4.657745361328125	-3.3416748046875	10.107720858764647	-0.36810850524902344	-0.22385785522460935	3.559112548828125	-4.169464111328125	-2.361297607421875	
113	0.452	0.0	0.0	0.0	0.0	0.006	0.003	0.003	0.006	9.724050042724608	0.14305354919433594	0.5069722015380859	1.1444091796875	-2.50244140625	-0.54168701171875	9.749787710571288	0.7146691955566405	0.4333505004882812	-0.179290771484375	-5.11932373046875	-2.62451171875	10.112509262084961	0.28969840087890625	-0.13287819213867186	3.559112548828125	-4.764556884765625	-1.613616943359375	
114	0.456	0.0	0.0	0.0	0.0	0.006	0.003	0.003	0.003	9.828197814941406	-0.4896142395019531	0.07362170104980469	-0.537872314453125	-1.522064208984375	-0.81634521484375	9.881468801879882	0.3699041564941406	0.12868833923339842	0.522613525390625	-4.72259521484375	-3.566741943359375	10.186729513549803	-0.47644613037109373	-0.40761283264160153	3.681182861328125	-4.428863525390625	-2.086639404296875	
115	0.46	0.0	0.0	0.0	0.0	0.006	0.006	0.003	0.006	9.682750064086914	0.22685060729980466	0.5620388397216797	1.2359619140625	-2.559661865234375	-0.568389892578125	9.721655841064452	0.6889315277099609	0.45968671875	-0.087738037109375	-4.82940673828125	-2.529144287109375	10.112509262084961	0.33099837951660155	-0.15682020874023436	3.498077392578125	-4.917144775390625	-1.51824951171875	
116	0.464	0.0	0.0	0.0	0.0	0.003	0.006	0.003	0.003	9.892841259765625	-0.3812766143798828	0.047285482788085934	-0.728607177734375	-1.54876708984375	-0.79345703125	9.938331091308592	0.07422025146484375	-0.0526724365234375	0.57220458984375	-4.9285888671875	-2.941131591796875	10.17056865234375	-0.4590881683349609	-0.373495458984375	3.673553466796875	-4.413604736328125	-1.850128173828125	
117	0.468	0.0	0.0	0.0	0.0	0.0	0.006	0.003	0.006	9.673173257446289	0.1879448303222656	0.5913678100585937	0.820159912109375	-1.89208984375	-0.560760498046875	9.745597857666015	0.4171896392822265	0.4435258575439453	-0.244140625	-4.92095947265625	-2.38037109375	9.988609326171874	0.43634325256347656	-0.05985504150390625	3.62396240234375	-4.6539306640625	-2.399444580078125	
118	0.47200000000000003	0.0	0.0	0.0	0.0	0.003	0.003	0.006	0.006	9.90122096557617	-0.3591302490234375	0.05686228942871093	-0.766754150390625	-1.522064208984375	-0.77056884765625	9.926360083007811	0.4644751220703125	-0.05027823486328125	0.797271728515625	-5.02777099609375	-3.482818603515625	10.174159954833984	-0.32620997619628905	-0.38307226562499996	3.79180908203125	-4.57000732421875	-1.995086669921875	
119	0.47600000000000003	0.0	0.0	0.0	0.0	0.006	0.003	0.003	0.003	10.022128149414062	0.23702596435546874	-0.26695348510742184	3.337860107421875	-3.887176513671875	-1.068115234375	9.683947164916992	0.4842272857666015	0.3573345977783203	0.240325927734375	-4.810333251953125	-2.5634765625	9.958681805419921	0.48123453369140623	-0.05087678527832031	3.62396240234375	-4.24957275390625	-2.094268798828125	
120	0.48	0.0	0.0	0.0	0.0	0.003	0.003	0.003	0.006	9.919776028442381	-0.3489548919677734	0.044891281127929686	-0.87738037109375	-1.209259033203125	-0.6866455078125	9.937732540893554	0.7691372833251953	-0.12808978881835936	1.068115234375	-4.726409912109375	-3.04412841796875	10.193313568115233	-0.33758243408203126	-0.41838674011230464	3.47900390625	-4.66156005859375	-1.972198486328125	
121	0.484	0.0	0.0	0.0	0.0	0.006	0.003	0.003	0.006	10.019135397338866	0.14903905334472656	-0.23403321228027343	3.574371337890625	-4.44793701171875	-1.1749267578125	9.70968483276367	0.229843359375	0.3633201019287109	-0.2288818359375	-4.657745361328125	-2.628326416015625	10.020931048583984	0.40940848388671874	-0.11611878051757812	3.70025634765625	-4.75311279296875	-2.227783203125	
122	0.488	0.0	0.0	0.0	0.0	0.006	0.003	0.003	0.003	9.904812268066406	-0.2962824554443359	0.08200140686035155	-0.86212158203125	-1.544952392578125	-0.732421875	9.79946739501953	0.5548562347412109	0.14963760375976562	0.20599365234375	-5.077362060546875	-3.12042236328125	10.004770187377929	-0.08259995727539061	-0.2723404388427734	3.574371337890625	-4.791259765625	-1.705169677734375	
123	0.492	0.0	0.0	0.0	0.0	0.003	0.006	0.003	0.003	10.008960040283203	0.3896563201904297	-0.23642741394042968	3.459930419921875	-4.184722900390625	-1.2664794921875	9.694122521972655	0.2316390106201172	0.3447650390625	-0.29754638671875	-5.062103271484375	-2.64739990234375	10.014945544433592	0.3393780853271484	-0.16041151123046873	3.582000732421875	-4.791259765625	-2.29644775390625	
124	0.496	0.0	0.0	0.0	0.0	0.006	0.003	0.003	0.003	9.90840357055664	-0.3142389678955078	-0.0017956512451171875	3.6163330078125	-4.520416259765625	-0.125885009765625	9.803657247924804	0.5805939025878906	0.12868833923339842	0.72479248046875	-4.8675537109375	-3.16619873046875	10.017938296508788	-0.016759411621093748	-0.28311434631347654	3.6163330078125	-4.901885986328125	-1.903533935546875	
125	0.5	0.0	0.0	0.0	0.0	0.006	0.006	0.006	0.006	10.003573086547851	-0.1227028350830078	-0.2292448089599609	2.22015380859375	-3.47137451171875	-0.835418701171875	9.661202249145507	0.2442085693359375	0.21487959899902342	0.301361083984375	-5.069732666015625	-3.215789794921875	9.848548529052733	-0.04249707946777344	0.008379705810546874	3.620147705078125	-4.474639892578125	-2.490997314453125	
126	0.504	0.0	0.0	0.0	0.0	0.006	0.003	0.003	0.003	9.919177478027343	0.3537432952880859	-0.058657940673828124	5.336761474609375	-5.542755126953125	-1.0833740234375	9.815029705810547	0.46208092041015625	0.10654197387695312	0.598907470703125	-4.92095947265625	-2.7313232421875	10.001178884887695	0.04608838195800781	-0.29867665710449215	3.520965576171875	-4.89044189453125	-1.922607421875	
127	0.508	0.0	0.0	0.0	0.0	0.003	0.003	0.003	0.006	9.995193380737303	0.16160861206054686	-0.21487959899902342	5.275726318359375	-5.397796630859375	-1.071929931640625	9.630676177978515	0.3812766143798828	0.19812018737792966	0.301361083984375	-4.848480224609375	-3.070831298828125	9.81263550415039	-0.08499415893554688	0.002992752075195312	3.66973876953125	-4.543304443359375	-2.69317626953125	
128	0.512	0.0	0.0	0.0	0.0	0.003	0.003	0.006	0.003	9.880870251464843	-0.26815058593749996	-0.04908113403320312	3.5858154296875	-4.43267822265625	-0.911712646484375	9.78031378173828	0.2998737579345703	0.054468087768554684	0.335693359375	-5.157470703125	-2.60162353515625	9.83837317199707	0.3010708587646484	0.08499415893554688	3.582000732421875	-4.688262939453125	-1.94549560546875	
129	0.516	0.0	0.0	0.0	0.0	0.003	0.003	0.006	0.006	9.892841259765625	-0.23223756103515625	0.17417817077636719	4.29534912109375	-4.665374755859375	-0.31280517578125	9.636661682128906	0.4369418029785156	0.17956512451171874	0.171661376953125	-4.947662353515625	-3.223419189453125	9.860519537353515	-0.17477672119140625	-0.03531447448730469	3.429412841796875	-4.45556640625	-2.3651123046875	
130	0.52	0.0	0.0	0.0	0.0	0.0	0.006	0.003	0.006	9.913790524291992	0.10235212097167969	-0.16699556579589842	3.917694091796875	-4.73785400390625	-0.522613525390625	9.76175871887207	0.2549824768066406	-0.0005985504150390625	0.78582763671875	-5.229949951171875	-2.674102783203125	9.79946739501953	0.3226186737060547	0.07900865478515624	3.528594970703125	-4.589080810546875	-1.773834228515625	
131	0.524	0.0	0.0	0.0	0.0	0.006	0.003	0.003	0.003	9.89463691101074	-0.17597382202148437	0.18914193115234373	5.748748779296875	-5.3863525390625	-0.957489013671875	9.64623848876953	0.3938461730957031	0.20769699401855468	0.392913818359375	-4.535675048828125	-2.86865234375	9.832986218261718	-0.2088940948486328	-0.008379705810546874	3.658294677734375	-4.398345947265625	-2.1514892578125	
132	0.528	0.0	0.0	0.0	0.0	0.003	0.006	0.003	0.003	9.875483297729492	-0.5823895538330078	0.17058686828613281	2.35748291015625	-3.437042236328125	-0.79345703125	9.778518130493163	0.26755203552246093	-0.01975216369628906	0.64849853515625	-5.30242919921875	-2.87628173828125	9.854534033203125	0.2615665313720703	0.055066638183593745	3.864288330078125	-4.64630126953125	-2.01416015625	
133	0.532	0.0	0.0	0.0	0.0	0.003	0.006	0.003	0.003	9.889848507690429	-0.4016273284912109	0.1753752716064453	4.421234130859375	-4.627227783203125	-0.659942626953125	9.809642752075195	0.4584896179199218	0.1292868896484375	0.400543212890625	-4.589080810546875	-2.910614013671875	10.095151300048828	-0.21009119567871093	-0.296881005859375	3.711700439453125	-4.589080810546875	-1.995086669921875	
134	0.536	0.0	0.0	0.0	0.0	0.003	0.003	0.003	0.009000000000000001	9.903615167236328	-0.36810850524902344	0.17956512451171874	2.18963623046875	-3.284454345703125	-0.827789306640625	9.776123928833007	0.33399113159179683	-0.032920272827148434	0.827789306640625	-5.04302978515625	-2.758026123046875	9.855731134033203	0.29388825378417965	0.04129997863769531	3.650665283203125	-4.47845458984375	-2.0904541015625	
135	0.54	0.0	0.0	0.0	0.0	0.003	0.003	0.003	0.006	9.917980377197265	-0.2711433380126953	0.14006079711914063	4.64630126953125	-4.75311279296875	-0.732421875	9.854534033203125	0.354341845703125	0.12689268798828124	0.41961669921875	-4.642486572265625	-2.811431884765625	10.123283169555663	-0.21128829650878905	-0.26695348510742184	3.673553466796875	-4.581451416015625	-1.9989013671875	
136	0.544	0.0	0.0	0.0	0.0	0.003	0.003	0.003	0.003	9.891644158935547	-0.3429693878173828	0.22744915771484372	3.032684326171875	-3.948211669921875	-0.827789306640625	9.785102185058593	0.40940848388671874	0.3705027069091797	0.026702880859375	-4.82177734375	-2.826690673828125	10.08078609008789	0.21787235107421873	-0.19991583862304688	3.63922119140625	-4.398345947265625	-2.25067138671875	
137	0.548	0.0	0.0	0.0	0.0	0.0	0.003	0.003	0.003	9.858723886108399	-0.35314474487304687	-0.11073182678222655	0.209808349609375	-1.750946044921875	-0.690460205078125	9.843161575317382	0.39444472351074217	0.08978256225585937	0.194549560546875	-4.73785400390625	-3.01361083984375	10.096946951293944	-0.16639701538085935	-0.26396073303222656	3.543853759765625	-4.28009033203125	-1.8768310546875	
138	0.552	0.0	0.0	0.0	0.0	0.006	0.006	0.006	0.006	9.905410818481444	-0.3860650177001953	0.2813186950683594	2.86865234375	-3.9825439453125	-0.682830810546875	9.821015209960937	0.3800795135498047	0.3633201019287109	-0.011444091796875	-4.993438720703125	-2.7618408203125	10.102333905029296	0.16220716247558592	-0.16460136413574217	3.635406494140625	-4.8980712890625	-2.063751220703125	
139	0.556	0.0	0.0	0.0	0.0	0.006	0.003	0.003	0.003	9.853935482788085	-0.2867056488037109	-0.04848258361816406	0.16021728515625	-1.903533935546875	-0.8544921875	9.9461122467041	0.4830301849365234	-0.14484920043945312	1.0986328125	-4.955291748046875	-2.933502197265625	10.23401499633789	0.029927520751953124	-0.44891281127929683	3.4637451171875	-4.6539306640625	-2.02178955078125	
140	0.56	0.0	0.0	0.0	0.0	0.003	0.003	0.003	0.003	9.85692823486328	-0.3190273712158203	0.3585316986083984	1.125335693359375	-2.46429443359375	-0.995635986328125	9.797671743774414	0.36691140441894526	0.34835634155273437	-0.339508056640625	-4.894256591796875	-2.544403076171875	10.04247886352539	0.17836802368164062	-0.14484920043945312	3.80706787109375	-4.833221435546875	-2.216339111328125	
141	0.5640000000000001	0.0	0.0	0.0	0.0	0.003	0.003	0.003	4.578	9.836577520751952	-0.3489548919677734	0.018555062866210937	-0.461578369140625	-1.50299072265625	-0.827789306640625	9.962871658325195	0.49380409240722656	-0.14963760375976562	1.186370849609375	-4.978179931640625	-2.994537353515625	10.241796151733398	0.023343466186523436	-0.4285620971679687	3.62396240234375	-4.64630126953125	-1.6326904296875	
142	0.5680000000000001	0.0	0.0	0.0	0.0	4.593	4.641	4.641	4.572	9.737218151855469	0.05626373901367187	0.11552023010253906	1.04522705078125	-2.628326416015625	-1.003265380859375	9.625289224243163	0.5506663818359374	0.36810850524902344	-0.034332275390625	-5.02777099609375	-2.765655517578125	10.102333905029296	0.1562216583251953	-0.19033903198242186	3.65447998046875	-4.57763671875	-2.5482177734375	
143	0.5720000000000001	0.0	0.0	0.0	0.0	4.602	4.641	4.638	4.575	9.813832604980469	-0.27293898925781246	0.032920272827148434	-0.255584716796875	-1.556396484375	-0.84686279296875	9.904213717651366	0.5105635040283203	-0.1227028350830078	0.972747802734375	-4.673004150390625	-2.979278564453125	10.193313568115233	0.017357962036132813	-0.40402153015136716	3.437042236328125	-4.459381103515625	-1.7547607421875	
144	0.5760000000000001	0.0	0.0	0.0	0.0	4.602	4.632	4.638	4.587	9.732429748535155	-0.031124621582031248	0.10175357055664062	0.667572021484375	-2.490997314453125	-1.22833251953125	9.59536170349121	0.5470750793457031	0.3794809631347656	-0.12969970703125	-4.688262939453125	-2.773284912109375	9.925761532592773	0.033518823242187495	-0.03950432739257812	3.4637451171875	-4.421234130859375	-2.574920654296875	
145	0.58	0.0	0.0	0.0	0.0	4.593	4.641	4.644	4.596	9.935936889648437	0.034715924072265626	0.08140285644531249	0.87738037109375	-2.47955322265625	-0.621795654296875	9.884461553955077	0.3142389678955078	0.14245499877929688	0.499725341796875	-4.962921142578125	-3.116607666015625	10.27890627746582	-0.005985504150390624	-0.4285620971679687	3.696441650390625	-4.734039306640625	-1.590728759765625	
146	0.584	0.0	0.0	0.0	0.0	4.599	4.638	4.638	4.596	9.743203656005859	-0.037708676147460936	0.06943184814453125	0.507354736328125	-2.285003662109375	-1.129150390625	9.603741409301758	0.5255272644042969	0.33399113159179683	0.2899169921875	-5.023956298828125	-2.7618408203125	9.951499200439452	-0.02633621826171875	-0.015562310791015624	3.4637451171875	-4.6844482421875	-2.323150634765625	
147	0.588	0.0	0.0	0.0	0.0	4.581	4.638	4.638	4.605	9.911396322631836	-0.05027823486328125	0.076614453125	0.301361083984375	-2.20489501953125	-0.606536865234375	9.837176071166992	0.33698388366699217	0.14245499877929688	0.209808349609375	-4.673004150390625	-2.98309326171875	9.92755718383789	0.25318682556152344	-0.1197100830078125	3.5247802734375	-4.749298095703125	-1.89971923828125	
148	0.592	0.0	0.0	0.0	0.0	4.605	4.641	4.641	4.5840000000000005	9.763554370117188	-0.03950432739257812	0.04548983154296875	0.60272216796875	-2.597808837890625	-1.079559326171875	9.60194575805664	0.48542438659667964	0.39803602600097654	-0.164031982421875	-4.78363037109375	-3.27301025390625	9.952097750854492	-0.00718260498046875	-0.00718260498046875	3.513336181640625	-4.520416259765625	-2.2735595703125	
149	0.596	0.0	0.0	0.0	0.0	4.602	4.644	4.644	4.572	9.928754284667969	-0.12449848632812499	0.052073886108398436	0.514984130859375	-2.4566650390625	-0.812530517578125	9.906009368896484	0.26216508178710934	0.11252747802734374	0.446319580078125	-4.695892333984375	-3.0517578125	10.013748443603514	0.19572598571777342	-0.10175357055664062	3.66973876953125	-4.66156005859375	-2.00653076171875	
150	0.6	0.0	0.0	0.0	0.0	4.599	4.641	4.638	4.575	9.80724855041504	0.14903905334472656	0.24121581726074218	3.658294677734375	-4.322052001953125	-0.69427490234375	9.588179098510741	0.5662286926269531	0.4129997863769531	0.20599365234375	-4.79888916015625	-3.307342529296875	9.823409411621093	-0.15861585998535155	-0.04249707946777344	3.726959228515625	-4.2572021484375	-2.29644775390625	
151	0.604	0.0	0.0	0.0	0.0	4.602	4.632	4.641	4.59	9.855132583618163	-0.04129997863769531	0.09457096557617187	0.156402587890625	-2.086639404296875	-0.949859619140625	9.862315188598632	0.3459621398925781	0.0796072052001953	0.4119873046875	-5.0506591796875	-2.895355224609375	9.928754284667969	0.24660277099609373	-0.086191259765625	3.875732421875	-4.993438720703125	-1.9683837890625	
152	0.608	0.0	0.0	0.0	0.0	4.596	4.641	4.644	4.593	9.85752678527832	0.0005985504150390625	0.1227028350830078	3.2196044921875	-3.955841064453125	-0.7476806640625	9.682750064086914	0.49021278991699213	0.3633201019287109	0.42724609375	-4.795074462890625	-3.18145751953125	9.868899243164062	-0.17058686828613281	-0.06643909606933593	3.612518310546875	-4.642486572265625	-2.1209716796875	
153	0.612	0.0	0.0	0.0	0.0	4.593	4.635	4.638	4.596	9.859322436523437	0.023343466186523436	0.12330138549804687	4.604339599609375	-5.02777099609375	-0.904083251953125	9.737816702270507	0.3010708587646484	0.16340426330566404	0.408172607421875	-5.001068115234375	-2.796173095703125	10.072406384277343	0.21428104858398436	0.001197100830078125	3.635406494140625	-4.238128662109375	-2.22015380859375	
154	0.616	0.0	0.0	0.0	0.0	4.581	4.638	4.635	4.602	9.81862100830078	0.003591302490234375	0.13587094421386717	3.063201904296875	-3.7689208984375	-0.896453857421875	9.591770401000977	0.5404910247802734	0.40282442932128903	0.35858154296875	-4.787445068359375	-3.33404541015625	9.752780462646484	-0.10893617553710937	0.012569558715820313	3.59344482421875	-4.215240478515625	-2.079010009765625	
155	0.62	0.0	0.0	0.0	0.0	4.602	4.641	4.644	4.581	10.026318002319336	0.2184709014892578	-0.05805939025878906	4.848480224609375	-5.268096923828125	-0.70953369140625	9.725845693969726	0.32561142578124996	0.21487959899902342	0.408172607421875	-5.06591796875	-2.83050537109375	9.853336932373047	0.27832594299316404	0.027533319091796873	3.528594970703125	-4.611968994140625	-2.34222412109375	
156	0.624	0.0	0.0	0.0	0.0	4.602	4.641	4.641	4.569	9.87608184814453	0.02454056701660156	0.07601590270996093	3.45611572265625	-4.177093505859375	-1.0528564453125	9.809044201660155	0.37229835815429685	0.21068974609375	-0.05340576171875	-4.5928955078125	-3.162384033203125	9.880870251464843	-0.1849520782470703	-0.02454056701660156	3.658294677734375	-4.405975341796875	-2.307891845703125	
157	0.628	0.0	0.0	0.0	0.0	4.602	4.638	4.638	4.5840000000000005	10.001178884887695	-0.02154781494140625	-0.06943184814453125	4.67681884765625	-5.13458251953125	-0.823974609375	9.681552963256836	0.23642741394042968	0.2537853759765625	-0.03814697265625	-4.924774169921875	-3.08990478515625	9.810241302490233	0.20051438903808594	0.05386953735351562	3.73077392578125	-4.604339599609375	-2.31170654296875	
158	0.632	0.0	0.0	0.0	0.0	4.602	4.641	4.641	4.59	9.86411083984375	0.061650692749023434	0.005985504150390624	6.526947021484375	-5.962371826171875	-0.9307861328125	9.69771382446289	0.5129577056884765	0.2376245147705078	0.12969970703125	-4.589080810546875	-3.009796142578125	10.037091909790039	-0.040102877807617184	-0.3752911102294922	3.719329833984375	-4.360198974609375	-1.911163330078125	
159	0.636	0.0	0.0	0.0	0.0	4.593	4.644	4.644	4.596	10.047267266845703	-0.14245499877929688	-0.14125789794921875	5.43212890625	-5.889892578125	-1.110076904296875	9.849745629882811	0.23882161560058593	0.19512743530273435	-0.049591064453125	-5.260467529296875	-2.3956298828125	9.924564431762695	0.14425065002441406	0.05327098693847656	3.696441650390625	-4.489898681640625	-2.277374267578125	
160	0.64	0.0	0.0	0.0	0.0	4.593	4.638	4.638	4.599	9.90900212097168	-0.19812018737792966	-0.012569558715820313	5.268096923828125	-5.6304931640625	-0.873565673828125	9.744400756835937	0.37409400939941406	0.22206220397949217	0.396728515625	-4.6539306640625	-3.116607666015625	10.20229182434082	-0.18136077575683593	-0.4171896392822265	3.742218017578125	-4.2877197265625	-2.28118896484375	
161	0.644	0.0	0.0	0.0	0.0	4.599	4.641	4.632	4.593	9.989806427001952	0.09337386474609374	-0.06344634399414062	6.061553955078125	-5.88226318359375	-0.797271728515625	9.773729727172851	0.36571430358886714	0.12808978881835936	0.087738037109375	-5.05828857421875	-2.315521240234375	10.019135397338866	0.17477672119140625	-0.28909985046386716	3.665924072265625	-4.7454833984375	-2.09808349609375	
162	0.648	0.0	0.0	0.0	0.0	4.599	4.641	4.641	4.575	9.8694977935791	-0.4159925384521484	0.025139117431640625	4.81414794921875	-5.0201416015625	-0.6561279296875	9.917381826782226	0.43574470214843747	-0.08678981018066406	0.78582763671875	-4.901885986328125	-2.685546875	10.131064324951172	-0.1149216796875	-0.3746925598144531	3.604888916015625	-4.390716552734375	-1.708984375	
163	0.652	0.0	0.0	0.0	0.0	4.605	4.641	4.641	4.569	9.719261639404296	-0.15741875915527342	0.33578678283691404	2.471923828125	-3.6468505859375	-0.598907470703125	9.867702142333984	0.2711433380126953	0.14425065002441406	0.125885009765625	-4.8065185546875	-2.605438232421875	10.247781655883788	-0.011971008300781249	-0.34835634155273437	3.543853759765625	-4.53948974609375	-2.056121826171875	
164	0.656	0.0	0.0	0.0	0.0	4.602	4.638	4.521	0.006	9.879074600219726	-0.033518823242187495	-0.07242460021972656	4.90570068359375	-4.9285888671875	-0.87738037109375	9.898826763916015	0.45010991210937495	-0.13946224670410157	0.84686279296875	-4.810333251953125	-2.69317626953125	10.171765753173828	0.030526071166992186	-0.4465186096191406	3.635406494140625	-4.566192626953125	-1.9378662109375	
165	0.66	0.0	0.0	0.0	0.0	0.0	0.006	0.006	0.003	9.599551556396484	-0.4531026641845703	0.4477157104492187	1.83868408203125	-3.223419189453125	-0.7781982421875	9.589974749755859	0.5764040496826172	0.3872621185302734	0.16021728515625	-4.985809326171875	-2.628326416015625	10.044274514770507	0.16759411621093748	-0.2914940521240234	3.704071044921875	-4.787445068359375	-1.96075439453125	
166	0.664	0.0	0.0	0.0	0.0	0.003	0.003	0.006	0.003	9.931747036743163	-0.5716156463623047	-0.0652419952392578	-2.166748046875	-4.489898681640625	-0.537872314453125	10.022128149414062	0.36810850524902344	-0.14903905334472656	0.54168701171875	-4.90570068359375	-2.750396728515625	10.313023651123046	-0.04908113403320312	-0.43514615173339843	3.711700439453125	-4.390716552734375	-1.911163330078125	
167	0.668	0.0	0.0	0.0	0.0	0.006	0.006	0.003	0.006	9.645639938354492	0.08499415893554688	0.30346506042480464	2.55584716796875	-3.559112548828125	-0.995635986328125	9.689932669067382	0.5279214660644531	0.2280477081298828	0.194549560546875	-4.7760009765625	-2.76947021484375	10.086173043823242	0.1292868896484375	-0.34536358947753903	3.47137451171875	-4.638671875	-2.197265625	
168	0.672	0.0	0.0	0.0	0.0	0.006	0.003	0.006	0.006	9.8311905670166	-0.3950432739257812	0.04608838195800781	-1.712799072265625	-0.629425048828125	-0.84686279296875	9.798868844604492	0.430956298828125	0.06584054565429687	0.5950927734375	-4.978179931640625	-3.276824951171875	10.047267266845703	0.12629413757324218	-0.3573345977783203	3.765106201171875	-4.512786865234375	-1.9073486328125	
169	0.676	0.0	0.0	0.0	0.0	0.006	0.006	0.003	0.003	9.634267480468749	-0.6159083770751953	0.3962403747558593	0.782012939453125	-2.414703369140625	-0.530242919921875	9.72345149230957	0.488417138671875	0.3238157745361328	-0.003814697265625	-4.7454833984375	-2.64739990234375	10.024522351074218	0.016160861206054686	-0.04848258361816406	3.551483154296875	-4.69970703125	-2.056121826171875	
170	0.68	0.0	0.0	0.0	0.0	0.006	0.003	0.006	0.003	9.92217023010254	0.10474632263183593	-0.029328970336914062	-1.255035400390625	-1.434326171875	-0.64849853515625	9.955090502929687	0.32082302246093747	-0.018555062866210937	0.95367431640625	-5.008697509765625	-3.429412841796875	10.238803399658202	-0.0143652099609375	-0.4052186309814453	3.76129150390625	-4.718780517578125	-2.101898193359375	
171	0.684	0.0	0.0	0.0	0.0	0.003	0.003	0.003	0.006	9.890447058105469	-0.16041151123046873	0.06643909606933593	1.033782958984375	-2.32696533203125	-1.38092041015625	9.606734161376952	0.5955576629638671	0.3172317199707031	0.102996826171875	-4.787445068359375	-2.864837646484375	9.861716638183593	0.1131260284423828	-0.025737667846679687	3.54766845703125	-4.6539306640625	-2.2125244140625	
172	0.6880000000000001	0.0	0.0	0.0	0.0	0.003	0.003	0.003	0.003	9.791686239624022	-0.5249287139892578	0.16460136413574217	-2.376556396484375	-0.43487548828125	-0.8087158203125	9.867702142333984	0.37768531188964843	0.07841010437011718	0.530242919921875	-5.092620849609375	-3.15093994140625	10.051457119750976	0.09995791931152344	-0.4423287567138672	3.5400390625	-5.046844482421875	-1.979827880859375	
173	0.6920000000000001	0.0	0.0	0.0	0.0	0.003	0.006	0.006	0.006	10.035296258544921	0.028131869506835935	-0.08738836059570312	-0.301361083984375	-1.62506103515625	-0.400543212890625	9.836577520751952	0.44113165588378905	0.17298106994628906	0.186920166015625	-4.817962646484375	-3.39508056640625	10.115502014160155	-0.018555062866210937	-0.08678981018066406	3.53240966796875	-4.497528076171875	-2.124786376953125	
174	0.6960000000000001	0.0	0.0	0.0	0.0	0.0	0.006	0.006	0.003	9.861716638183593	0.4752490295410156	0.012569558715820313	-1.125335693359375	-0.95367431640625	-0.621795654296875	9.83238766784668	0.34057518615722654	0.006584054565429687	0.095367431640625	-4.917144775390625	-3.25775146484375	10.043077413940429	-0.00718260498046875	-0.4327519500732422	3.520965576171875	-4.764556884765625	-2.529144287109375	
175	0.7000000000000001	0.0	0.0	0.0	0.0	0.003	0.006	0.003	0.003	9.922768780517577	-0.03950432739257812	-0.013168109130859374	2.475738525390625	-3.5247802734375	-1.476287841796875	9.6917283203125	0.5889736083984375	0.2280477081298828	0.41961669921875	-4.89044189453125	-2.7008056640625	9.655815295410155	0.14245499877929688	0.1693897674560547	3.85284423828125	-4.558563232421875	-2.5634765625	
176	0.704	0.0	0.0	0.0	0.0	0.006	0.003	0.006	0.006	9.973047015380859	-0.3028665100097656	-0.08200140686035155	3.383636474609375	-4.169464111328125	-0.400543212890625	9.755773214721678	0.19512743530273435	0.3112462158203125	-0.347137451171875	-4.734039306640625	-2.902984619140625	10.203488925170898	-0.15741875915527342	-0.517746109008789	3.627777099609375	-5.039215087890625	-2.00653076171875	
177	0.708	0.0	0.0	0.0	0.0	0.006	0.003	0.006	0.006	10.078391888427733	-0.16160861206054686	-0.22685060729980466	-0.431060791015625	-1.59454345703125	-0.209808349609375	9.757568865966796	0.5099649536132812	0.20350714111328125	0.28228759765625	-4.95147705078125	-3.208160400390625	9.809044201660155	0.017956512451171875	0.0987608184814453	3.5858154296875	-4.413604736328125	-2.368927001953125	
178	0.712	0.0	0.0	0.0	0.0	0.009000000000000001	0.003	0.003	0.006	9.993397729492187	0.9205705383300781	-0.14484920043945312	9.10186767578125	-7.678985595703125	-1.4495849609375	9.637858782958984	0.31184476623535157	0.3447650390625	0.030517578125	-4.856109619140625	-2.857208251953125	9.951499200439452	-0.016160861206054686	-0.4010287780761719	3.70025634765625	-4.375457763671875	-1.83868408203125	
179	0.716	0.0	0.0	0.0	0.0	0.003	0.006	0.003	0.003	10.014945544433592	0.489015689086914	-0.09816226806640624	6.740570068359375	-5.611419677734375	-1.59454345703125	9.670779055786133	0.43454760131835934	0.21428104858398436	0.2899169921875	-4.932403564453125	-3.0364990234375	9.74200655517578	0.08020575561523437	0.201112939453125	3.90625	-4.421234130859375	-2.468109130859375	
180	0.72	0.0	0.0	0.0	0.0	0.006	0.003	0.006	0.003	9.981426721191406	-0.5596446380615234	-0.1592144104003906	5.062103271484375	-5.756378173828125	-1.087188720703125	9.789292037963866	0.19393033447265623	0.28012159423828126	-0.133514404296875	-5.100250244140625	-3.086090087890625	9.886257205200195	-0.05327098693847656	0.09157821350097656	3.72314453125	-4.444122314453125	-2.02178955078125	
181	0.724	0.0	0.0	0.0	0.0	0.006	0.006	0.003	0.003	9.982623822021484	-0.10594342346191406	-0.012569558715820313	3.963470458984375	-4.734039306640625	0.019073486328125	9.645639938354492	0.4704606262207031	0.1580173095703125	0.26702880859375	-4.589080810546875	-3.02886962890625	9.67137760620117	0.12868833923339842	0.21487959899902342	3.444671630859375	-3.96728515625	-2.40325927734375	
182	0.728	0.0	0.0	0.0	0.0	0.003	0.006	0.003	0.003	10.02392380065918	0.6218938812255859	-0.2753331909179687	6.76727294921875	-6.66046142578125	-0.484466552734375	9.771934075927733	0.34715924072265625	0.058657940673828124	0.6256103515625	-5.252838134765625	-2.468109130859375	9.744400756835937	0.09337386474609374	0.05626373901367187	3.452301025390625	-4.306793212890625	-1.758575439453125	
183	0.732	0.0	0.0	0.0	0.0	0.006	0.006	0.003	0.003	9.963470208740233	0.23702596435546874	0.05746083984375	10.58197021484375	-8.84246826171875	-1.64794921875	9.819818109130859	0.3082534637451172	0.059256491088867186	0.423431396484375	-4.695892333984375	-2.93731689453125	10.256161361694335	-0.0383072265625	-0.4848258361816406	3.787994384765625	-4.634857177734375	-2.124786376953125	
184	0.736	0.0	0.0	0.0	0.0	0.006	0.006	0.003	0.006	10.056245523071288	-1.485602130126953	0.29448680419921874	-0.019073486328125	-2.048492431640625	-0.8087158203125	9.803058697509766	0.3130418670654297	0.029927520751953124	0.09918212890625	-4.924774169921875	-2.54058837890625	9.860519537353515	0.023942016601562498	-0.08379705810546874	3.45611572265625	-4.49371337890625	-2.197265625	
185	0.74	0.0	0.0	0.0	0.0	0.003	0.003	0.003	0.003	9.80665	-1.0594342346191405	0.17357962036132812	1.739501953125	-3.276824951171875	-0.41961669921875	9.827599264526366	0.47884033203125	0.01915361328125	0.804901123046875	-5.023956298828125	-2.86102294921875	10.041281762695311	0.11372457885742186	-0.2855085479736328	3.80706787109375	-4.4708251953125	-2.124786376953125	
186	0.744	0.0	0.0	0.0	0.0	-0.003	0.006	0.003	0.006	9.841365924072266	-0.5386953735351562	0.15322890625	-0.843048095703125	-1.31988525390625	-0.28228759765625	9.791087689208984	0.3327940307617187	0.05686228942871093	0.1220703125	-5.100250244140625	-2.72369384765625	10.101136804199218	0.11911153259277343	-0.13946224670410157	3.536224365234375	-4.695892333984375	-1.8310546875	
187	0.748	0.0	0.0	0.0	0.0	0.003	0.003	0.003	0.003	10.026916552734374	-0.26276363220214843	-0.20171148986816406	3.50189208984375	-4.3487548828125	-0.66375732421875	9.983820922851562	0.3950432739257812	-0.034715924072265626	1.270294189453125	-5.260467529296875	-2.9144287109375	10.231620794677733	-0.01915361328125	-0.3435679382324219	3.66973876953125	-4.1961669921875	-2.353668212890625	
188	0.752	0.0	0.0	0.0	0.0	0.003	0.003	0.006	0.006	9.764751470947266	-0.44532150878906246	0.2950853546142578	2.90679931640625	-3.475189208984375	-1.285552978515625	9.707889181518555	0.5321113189697265	0.43155484924316406	0.2288818359375	-4.909515380859375	-3.0059814453125	10.047267266845703	0.14006079711914063	-0.13287819213867186	3.63922119140625	-4.558563232421875	-1.74713134765625	
189	0.756	0.0	0.0	0.0	0.0	0.006	0.003	0.006	0.003	9.648632690429688	-0.3082534637451172	0.3938461730957031	-3.33404541015625	0.133514404296875	-0.701904296875	9.859322436523437	0.48243163452148435	0.051475335693359374	0.8087158203125	-5.062103271484375	-2.750396728515625	10.104129556274414	0.10594342346191406	-0.25917232971191406	3.54766845703125	-4.53948974609375	-2.033233642578125	
190	0.76	0.0	0.0	0.0	0.0	0.006	0.006	0.003	0.003	9.726444244384766	-0.8786720092773437	0.40282442932128903	-1.70135498046875	-0.911712646484375	-0.850677490234375	9.813832604980469	0.3854664672851562	0.4626794708251953	0.1678466796875	-4.924774169921875	-3.0059814453125	10.259154113769531	-0.023343466186523436	-0.17657237243652343	3.59344482421875	-4.85992431640625	-1.99127197265625	
191	0.764	0.0	0.0	0.0	0.0	0.0	0.003	0.003	0.006	9.771335525512695	0.04189852905273437	0.2765302917480469	-4.405975341796875	1.277923583984375	-0.67138671875	9.855731134033203	0.5309142181396485	0.08020575561523437	0.55694580078125	-4.76837158203125	-3.25775146484375	10.28549033203125	-0.04249707946777344	-0.5033808990478515	3.60870361328125	-4.57000732421875	-2.26593017578125	
192	0.768	0.0	0.0	0.0	0.0	0.006	0.003	0.003	0.006	9.577405191040038	-0.5805939025878906	0.6266822845458984	-4.46319580078125	0.89263916015625	-0.61798095703125	9.647435589599608	0.4632780212402344	0.6398503936767578	-0.011444091796875	-4.7760009765625	-3.086090087890625	10.050260018920898	0.1227028350830078	-0.05327098693847656	3.604888916015625	-4.573822021484375	-1.6937255859375	
193	0.772	0.0	0.0	0.0	0.0	0.006	0.006	0.003	0.006	9.865307940673828	0.11013327636718749	0.19812018737792966	-3.662109375	0.911712646484375	-0.40435791015625	9.91558617553711	0.49320554199218747	0.2088940948486328	0.3204345703125	-5.039215087890625	-3.082275390625	10.287285983276366	-0.06404489440917968	-0.5057751007080078	3.57818603515625	-4.72259521484375	-2.17437744140625	
194	0.776	0.0	0.0	0.0	0.0	0.006	0.003	0.006	0.003	10.111910711669921	0.6206967803955078	-0.16699556579589842	5.031585693359375	-5.0811767578125	-1.16729736328125	9.782707983398437	0.36152445068359373	0.6308721374511719	-0.080108642578125	-4.497528076171875	-3.7384033203125	10.015544094848632	0.13587094421386717	-0.04189852905273437	3.536224365234375	-4.482269287109375	-1.842498779296875	
195	0.78	0.0	0.0	0.0	0.0	0.003	0.003	0.003	0.006	10.008361489868163	0.6087257720947266	0.002992752075195312	-0.6256103515625	-0.95367431640625	-0.759124755859375	9.822212310791015	0.5584475372314452	0.201112939453125	0.35858154296875	-4.985809326171875	-2.7618408203125	10.110115060424803	0.022146365356445312	-0.5057751007080078	3.48663330078125	-4.47845458984375	-2.246856689453125	
196	0.784	0.0	0.0	0.0	0.0	0.006	0.003	0.003	0.003	10.083180291748047	0.5985504150390625	-0.24660277099609373	8.82720947265625	-7.518768310546875	-1.28936767578125	9.770736975097655	0.37768531188964843	0.10773907470703124	-0.186920166015625	-4.6234130859375	-2.52532958984375	9.894038360595703	0.2603694305419922	-0.033518823242187495	3.665924072265625	-4.657745361328125	-1.89971923828125	
197	0.788	0.0	0.0	0.0	0.0	0.003	0.003	0.003	0.006	10.256759912109374	0.479438882446289	-0.24899697265624998	9.49859619140625	-8.548736572265625	-1.10626220703125	9.975441217041014	0.4375403533935547	0.02454056701660156	0.041961669921875	-4.627227783203125	-2.414703369140625	9.98561657409668	-0.19931728820800781	-0.3321954803466797	3.753662109375	-4.871368408203125	-2.140045166015625	
198	0.792	0.0	0.0	0.0	0.0	0.003	0.003	0.003	0.003	10.029310754394531	0.17298106994628906	-0.2501940734863281	9.3841552734375	-8.106231689453125	-1.01470947265625	9.734823950195311	0.37768531188964843	0.061650692749023434	0.0	-4.756927490234375	-2.559661865234375	9.859322436523437	0.3028665100097656	-0.05027823486328125	3.520965576171875	-4.69207763671875	-2.0294189453125	
199	0.796	0.0	0.0	0.0	0.0	0.003	0.003	0.003	0.006	9.694721072387695	-0.1131260284423828	0.12569558715820311	6.40869140625	-6.14166259765625	-0.926971435546875	9.69112976989746	0.4860229370117187	-0.02154781494140625	0.57220458984375	-4.901885986328125	-2.8839111328125	9.871293444824218	-0.07003039855957031	-0.2998737579345703	3.65447998046875	-5.046844482421875	-1.91497802734375	
200	0.8	0.0	0.0	0.0	0.0	0.003	0.003	0.003	0.0	9.93414123840332	-0.09816226806640624	-0.1005564697265625	7.9498291015625	-7.022857666015625	-1.0833740234375	9.751583361816406	0.28730419921875	0.17477672119140625	0.32806396484375	-4.970550537109375	-2.826690673828125	10.066420880126952	0.2154781494140625	-0.16460136413574217	3.597259521484375	-4.6539306640625	-2.307891845703125	
201	0.804	0.0	0.0	0.0	0.0	0.003	0.003	0.003	0.003	9.683348614501952	-0.29269115295410153	0.26216508178710934	2.60162353515625	-3.35693359375	-1.079559326171875	9.76116016845703	0.5063736511230469	0.015562310791015624	0.438690185546875	-4.825592041015625	-3.520965576171875	10.013748443603514	-0.1801636749267578	-0.38367081604003905	3.505706787109375	-4.940032958984375	-2.361297607421875	
202	0.808	0.0	0.0	0.0	0.0	0.003	0.003	0.003	0.006	9.743203656005859	-0.38247371520996093	0.2962824554443359	-1.64031982421875	-0.766754150390625	-0.7171630859375	9.645041387939452	0.3477577911376953	0.2136824981689453	-0.057220458984375	-4.63104248046875	-3.143310546875	9.740809454345703	0.24061726684570311	0.04967968444824218	3.452301025390625	-4.302978515625	-2.407073974609375	
203	0.812	0.0	0.0	0.0	0.0	0.003	0.003	0.003	0.006	9.770138424682617	-0.12689268798828124	0.21188684692382811	0.38909912109375	-2.582550048828125	-0.759124755859375	9.82460651245117	0.42975919799804685	0.05985504150390625	0.415802001953125	-5.046844482421875	-3.086090087890625	10.049661468505859	-0.21188684692382811	-0.3764882110595703	3.643035888671875	-4.9285888671875	-1.983642578125	
204	0.8160000000000001	0.0	0.0	0.0	0.0	0.006	0.003	0.003	0.003	9.96586441040039	-0.23343466186523437	-0.04189852905273437	2.216339111328125	-3.360748291015625	-0.698089599609375	9.792284790039062	0.2567781280517578	0.09636661682128905	0.18310546875	-4.99725341796875	-3.139495849609375	9.892841259765625	0.008379705810546874	-0.044292730712890624	3.65447998046875	-4.177093505859375	-2.38037109375	
205	0.8200000000000001	0.0	0.0	0.0	0.0	0.006	0.003	0.006	0.003	9.858125335693359	0.20530279235839843	0.023343466186523436	3.5247802734375	-3.79180908203125	-0.637054443359375	9.758765966796874	0.3268085266113281	0.017956512451171875	0.19073486328125	-4.98199462890625	-2.52532958984375	9.715670336914062	0.04967968444824218	0.1322796417236328	3.582000732421875	-4.482269287109375	-2.0294189453125	
206	0.8240000000000001	0.0	0.0	0.0	0.0	0.0	0.003	0.006	0.003	9.889848507690429	-0.2136824981689453	0.044891281127929686	5.2490234375	-5.51605224609375	-0.80108642578125	9.65342109375	0.35314474487304687	0.1849520782470703	0.17547607421875	-4.665374755859375	-2.979278564453125	9.752181912231444	0.10115502014160156	0.005985504150390624	3.643035888671875	-4.489898681640625	-2.613067626953125	
207	0.8280000000000001	0.0	0.0	0.0	0.0	0.0	0.003	0.003	0.003	9.964667309570311	-0.5345055206298828	-0.06584054565429687	3.53240966796875	-4.72259521484375	-0.850677490234375	9.881468801879882	0.22445640563964842	-0.055066638183593745	0.4730224609375	-4.886627197265625	-2.54058837890625	9.99160207824707	0.029927520751953124	-0.034715924072265626	3.77655029296875	-4.5013427734375	-1.8157958984375	
208	0.8320000000000001	0.0	0.0	0.0	0.0	0.006	0.006	0.003	0.006	9.840767373657226	-0.19632453613281248	0.14006079711914063	5.893707275390625	-5.8746337890625	-0.87738037109375	9.84435867614746	0.4608838195800781	0.033518823242187495	0.89263916015625	-4.611968994140625	-3.0059814453125	10.274716424560546	-0.15442600708007811	-0.48063598327636714	3.77655029296875	-4.6539306640625	-2.353668212890625	
209	0.836	0.0	0.0	0.0	0.0	0.006	0.006	0.003	0.006	9.788693487548828	-0.3764882110595703	0.17896657409667968	2.18963623046875	-3.429412841796875	-1.117706298828125	9.712677584838866	0.3016694091796875	0.0430956298828125	0.6103515625	-5.283355712890625	-2.361297607421875	9.737218151855469	0.2597708801269531	0.1131260284423828	3.627777099609375	-4.90570068359375	-2.010345458984375	
210	0.84	0.0	0.0	0.0	0.0	0.006	0.006	0.003	0.003	9.867702142333984	-0.3585316986083984	0.02633621826171875	-1.071929931640625	-1.39617919921875	-0.698089599609375	9.871293444824218	0.4285620971679687	0.07302315063476562	0.701904296875	-4.741668701171875	-2.895355224609375	10.313023651123046	-0.25797522888183594	-0.3908534210205078	3.70025634765625	-4.154205322265625	-2.300262451171875	
211	0.844	0.0	0.0	0.0	0.0	0.003	0.006	0.003	0.006	9.952696301269532	-0.5195417602539062	-0.028730419921875	1.89208984375	-3.15093994140625	-0.885009765625	9.916783276367187	0.28909985046386716	0.30346506042480464	-0.396728515625	-4.9285888671875	-2.712249755859375	9.920374578857421	0.1227028350830078	0.017357962036132813	3.6163330078125	-4.3182373046875	-2.124786376953125	
212	0.848	0.0	0.0	0.0	0.0	0.006	0.003	0.003	0.006	9.835978970336914	-0.17298106994628906	-0.03591302490234375	0.8697509765625	-2.498626708984375	-0.61798095703125	9.720458740234374	0.5285200164794922	0.18375497741699218	0.58746337890625	-4.566192626953125	-2.948760986328125	10.016142645263672	-0.08918401184082031	-0.30526071166992186	3.604888916015625	-4.37164306640625	-2.117156982421875	
213	0.852	0.0	0.0	0.0	0.0	0.006	0.003	0.006	0.0	9.94730934753418	-0.45190556335449217	0.05566518859863281	3.07464599609375	-4.486083984375	-0.732421875	9.827000714111328	0.3268085266113281	0.40880993347167965	-0.091552734375	-5.16510009765625	-2.628326416015625	10.095151300048828	0.28490999755859375	-0.258573779296875	3.536224365234375	-4.749298095703125	-2.033233642578125	
214	0.856	0.0	0.0	0.0	0.0	0.006	0.006	0.003	0.003	9.9078050201416	-0.4860229370117187	-0.025139117431640625	1.232147216796875	-2.5634765625	-0.79345703125	9.947907897949218	0.44592005920410155	0.025139117431640625	0.77056884765625	-4.5318603515625	-3.101348876953125	10.36210478515625	-0.2567781280517578	-0.4734533782958984	3.597259521484375	-4.58526611328125	-2.208709716796875	
215	0.86	0.0	0.0	0.0	0.0	0.003	0.003	0.006	0.006	9.639055883789062	0.1640028137207031	0.3902548706054687	1.18255615234375	-2.468109130859375	-1.010894775390625	9.81862100830078	0.34177228698730466	0.33039982910156246	0.232696533203125	-5.1727294921875	-2.574920654296875	10.082581741333007	0.2561795776367187	-0.2316390106201172	3.513336181640625	-4.39453125	-2.124786376953125	
216	0.864	0.0	0.0	0.0	0.0	0.006	0.003	0.003	0.006	9.747393508911133	-0.34117373657226563	0.17298106994628906	0.4425048828125	-2.0904541015625	-0.579833984375	9.830592016601562	0.5692214447021484	-0.010175357055664061	0.812530517578125	-4.8065185546875	-2.93731689453125	10.070012182617187	0.034715924072265626	-0.3962403747558593	3.6163330078125	-4.528045654296875	-1.964569091796875	
217	0.868	0.0	0.0	0.0	0.0	0.003	4.494	4.632	4.566	9.701305126953125	-0.04908113403320312	0.2699462371826172	0.949859619140625	-2.23541259765625	-0.766754150390625	9.95987890625	0.32082302246093747	0.2753331909179687	0.095367431640625	-4.924774169921875	-2.544403076171875	10.259154113769531	0.2184709014892578	-0.28909985046386716	3.643035888671875	-4.9285888671875	-2.071380615234375	
218	0.872	0.0	0.0	0.0	0.0	4.593	4.632	4.632	4.578	9.813832604980469	-0.36750995483398435	0.07003039855957031	0.05340576171875	-1.86920166015625	-0.8392333984375	9.97903251953125	0.4447229583740234	-0.10295067138671875	0.84686279296875	-5.04302978515625	-3.143310546875	10.256759912109374	-0.11432312927246092	-0.45070846252441404	3.59344482421875	-4.642486572265625	-1.83868408203125	
219	0.876	0.0	0.0	0.0	0.0	4.599	4.626	4.638	4.59	9.625289224243163	0.05327098693847656	0.297479556274414	0.23651123046875	-1.94549560546875	-0.58746337890625	9.577405191040038	0.6212953308105469	0.3477577911376953	-0.026702880859375	-4.913330078125	-2.887725830078125	9.788693487548828	0.10295067138671875	-0.07601590270996093	3.475189208984375	-4.550933837890625	-2.346038818359375	
220	0.88	0.0	0.0	0.0	0.0	4.596	4.641	4.644	4.596	9.952696301269532	0.044891281127929686	-0.02154781494140625	0.713348388671875	-2.735137939453125	-0.804901123046875	9.964667309570311	0.48722003784179685	-0.08978256225585937	1.026153564453125	-4.924774169921875	-2.86102294921875	10.200496173095702	-0.014963760375976562	-0.4848258361816406	3.60870361328125	-4.688262939453125	-1.57928466796875	
221	0.884	0.0	0.0	0.0	0.0	4.593	4.641	4.641	4.602	9.776722479248047	0.14185644836425781	0.15083470458984374	2.285003662109375	-3.05938720703125	-1.125335693359375	9.769539874267577	0.4537012145996093	0.229843359375	-0.030517578125	-4.749298095703125	-2.76947021484375	10.040084661865233	-0.08140285644531249	-0.09935936889648436	3.48663330078125	-4.55474853515625	-2.44903564453125	
222	0.888	0.0	0.0	0.0	0.0	4.602	4.638	4.632	4.599	9.932345587158203	-0.03411737365722656	-0.003591302490234375	0.823974609375	-2.414703369140625	-0.873565673828125	9.813832604980469	0.38307226562499996	0.076614453125	0.2593994140625	-4.96673583984375	-3.08990478515625	10.074202035522461	0.03890577697753906	-0.3746925598144531	3.4637451171875	-4.779815673828125	-2.12860107421875	
223	0.892	0.0	0.0	0.0	0.0	4.599	4.638	4.641	4.578	9.657012396240233	0.0005985504150390625	0.17178396911621094	3.04412841796875	-3.826141357421875	-0.84686279296875	9.588179098510741	0.5518634826660156	0.2759317413330078	0.2288818359375	-4.72259521484375	-2.62451171875	9.757568865966796	0.0987608184814453	0.014963760375976562	3.5552978515625	-4.657745361328125	-2.246856689453125	
224	0.896	0.0	0.0	0.0	0.0	4.605	4.641	4.641	4.569	9.97903251953125	-0.011971008300781249	-0.052073886108398436	0.80108642578125	-2.719879150390625	-0.66375732421875	9.892841259765625	0.37409400939941406	0.05386953735351562	0.293731689453125	-5.0048828125	-3.116607666015625	10.054449871826172	0.17956512451171874	-0.20949264526367187	3.444671630859375	-4.78363037109375	-1.865386962890625	
225	0.9	0.0	0.0	0.0	0.0	4.605	4.635	4.635	4.587	9.868300692749022	-0.07242460021972656	0.13467384338378904	3.1890869140625	-3.574371337890625	-1.312255859375	9.676166009521484	0.35314474487304687	0.3651157531738281	0.194549560546875	-4.64630126953125	-3.368377685546875	9.949703549194336	-0.08080430603027343	0.003591302490234375	3.681182861328125	-4.520416259765625	-2.231597900390625	
226	0.904	0.0	0.0	0.0	0.0	4.599	4.641	4.641	4.593	9.834183319091796	-0.17836802368164062	0.14305354919433594	-0.08392333984375	-1.6937255859375	-0.8087158203125	9.717465988159178	0.4734533782958984	0.11791443176269531	0.57220458984375	-4.909515380859375	-3.24249267578125	9.83897172241211	0.28490999755859375	-0.15083470458984374	3.41796875	-4.604339599609375	-1.949310302734375	
227	0.908	0.0	0.0	0.0	0.0	4.599	4.644	4.644	4.596	9.803058697509766	-0.3184288208007812	0.14724340209960937	0.316619873046875	-2.288818359375	-0.583648681640625	9.627683425903319	0.45010991210937495	0.29927520751953124	0.274658203125	-4.764556884765625	-3.21197509765625	9.657012396240233	-0.0987608184814453	0.09516951599121093	3.696441650390625	-4.268646240234375	-2.086639404296875	
228	0.912	0.0	0.0	0.0	0.0	4.59	4.641	4.641	4.599	10.072406384277343	-0.051475335693359374	-0.20470424194335937	2.9449462890625	-4.207611083984375	-0.640869140625	9.90241806640625	0.23822306518554687	0.1005564697265625	0.34332275390625	-4.8370361328125	-2.685546875	10.172364303588866	0.07900865478515624	-0.2902969512939453	3.528594970703125	-4.695892333984375	-2.2430419921875	
229	0.916	0.0	0.0	0.0	0.0	4.599	2.7840000000000003	0.006	0.003	9.9078050201416	0.05566518859863281	0.017956512451171875	1.97601318359375	-2.960205078125	-1.049041748046875	9.658808047485351	0.5207388610839844	0.32142157287597656	0.2899169921875	-5.054473876953125	-3.5400390625	9.776722479248047	-0.16041151123046873	-0.01975216369628906	3.88336181640625	-4.50897216796875	-2.361297607421875	
230	0.92	0.0	0.0	0.0	0.0	0.009000000000000001	0.003	0.003	0.003	9.949104998779296	0.30346506042480464	-0.09576806640624999	5.19561767578125	-5.53131103515625	-0.99945068359375	9.579799392700195	0.35793314819335936	0.30406361083984373	-0.00762939453125	-4.852294921875	-2.7618408203125	9.643245736694336	0.3238157745361328	0.08439560852050781	3.570556640625	-4.604339599609375	-2.0599365234375	
231	0.924	0.0	0.0	0.0	0.0	0.006	0.003	0.003	0.006	9.982623822021484	-0.20769699401855468	-0.0796072052001953	2.834320068359375	-3.627777099609375	-1.064300537109375	9.885658654785155	0.35134909362792965	0.04668693237304687	0.423431396484375	-4.8675537109375	-2.834320068359375	9.904213717651366	-0.18136077575683593	-0.0383072265625	3.7384033203125	-4.17327880859375	-2.048492431640625	
232	0.928	0.0	0.0	0.0	0.0	0.003	0.006	0.003	0.003	10.077793338012695	-0.16041151123046873	-0.2902969512939453	4.76837158203125	-5.06591796875	-0.759124755859375	9.822212310791015	0.21308394775390624	0.11133037719726561	0.225067138671875	-5.0811767578125	-2.849578857421875	10.036493359375	0.010175357055664061	-0.08200140686035155	3.72314453125	-4.459381103515625	-2.193450927734375	
233	0.932	0.0	0.0	0.0	0.0	0.0	0.003	0.006	0.003	9.828197814941406	-0.037110125732421874	0.002992752075195312	5.535125732421875	-5.504608154296875	-0.640869140625	9.674968908691406	0.49380409240722656	0.16998831787109375	0.30517578125	-4.871368408203125	-3.2196044921875	9.516353048706055	0.04608838195800781	0.22744915771484372	3.50189208984375	-4.428863525390625	-1.86920166015625	
234	0.936	0.0	0.0	0.0	0.0	0.009000000000000001	0.003	0.006	0.003	10.015544094848632	0.10893617553710937	-0.16280571289062498	6.496429443359375	-6.53839111328125	-0.95367431640625	9.733626849365233	0.2657563842773437	0.15502455749511718	0.110626220703125	-4.871368408203125	-2.227783203125	9.8449572265625	0.14245499877929688	0.05566518859863281	3.33404541015625	-4.482269287109375	-2.09808349609375	
235	0.9400000000000001	0.0	0.0	0.0	0.0	0.003	0.003	0.003	0.003	9.916783276367187	-0.4147954376220703	-0.022146365356445312	5.3863525390625	-5.47027587890625	-0.881195068359375	9.945513696289062	0.28371289672851563	0.005985504150390624	0.255584716796875	-4.428863525390625	-2.93731689453125	10.392032305908202	-0.15083470458984374	-0.4447229583740234	3.475189208984375	-4.37164306640625	-1.8157958984375	
236	0.9440000000000001	0.0	0.0	0.0	0.0	0.003	0.006	0.006	0.003	9.94671079711914	-0.11252747802734374	-0.1466448516845703	1.67083740234375	-3.0059814453125	-0.873565673828125	9.789890588378906	0.37229835815429685	0.12509703674316405	0.22125244140625	-4.871368408203125	-2.529144287109375	9.7928833404541	0.08200140686035155	-0.17956512451171874	3.902435302734375	-4.489898681640625	-2.227783203125	
237	0.9480000000000001	0.0	0.0	0.0	0.0	0.003	0.006	0.003	0.003	9.821015209960937	-0.2316390106201172	0.023343466186523436	3.459930419921875	-4.154205322265625	-0.6866455078125	9.7683427734375	0.4944026428222656	0.017956512451171875	0.560760498046875	-5.039215087890625	-2.7313232421875	10.034697708129881	0.25258827514648435	-0.5512649322509765	3.9825439453125	-4.72259521484375	-2.002716064453125	
238	0.9520000000000001	0.0	0.0	0.0	0.0	0.009000000000000001	0.003	0.003	0.006	9.785102185058593	-0.49679684448242184	0.2501940734863281	1.354217529296875	-3.116607666015625	-0.69427490234375	9.941323843383788	0.2807201446533203	0.10295067138671875	0.118255615234375	-5.092620849609375	-2.41851806640625	10.218452685546874	-0.05327098693847656	-0.12868833923339842	3.70025634765625	-4.78363037109375	-1.911163330078125	
239	0.9560000000000001	0.0	0.0	0.0	0.0	0.003	0.006	0.003	0.003	9.885658654785155	-0.5165490081787109	-0.10295067138671875	3.23486328125	-3.696441650390625	-1.15203857421875	10.013149893188476	0.3298012786865234	-0.06643909606933593	0.8392333984375	-4.863739013671875	-3.19671630859375	10.311227999877929	-0.016759411621093748	-0.5422866760253906	3.51715087890625	-4.253387451171875	-2.166748046875	
240	0.96	0.0	0.0	0.0	0.0	0.003	0.006	0.006	0.003	9.57620809020996	-0.30705636291503907	0.4052186309814453	0.095367431640625	-1.64031982421875	-0.83160400390625	9.64025298461914	0.5859808563232421	0.12509703674316405	0.064849853515625	-4.913330078125	-2.43377685546875	9.87608184814453	0.19991583862304688	-0.15981296081542967	3.59344482421875	-4.96673583984375	-1.7547607421875	
241	0.964	0.0	0.0	0.0	0.0	0.006	0.003	0.003	0.006	9.803058697509766	-0.005985504150390624	0.23702596435546874	-2.37274169921875	-0.286102294921875	-0.522613525390625	9.90181951599121	0.34715924072265625	0.059256491088867186	0.9613037109375	-5.14984130859375	-2.72369384765625	10.14542953491211	0.09157821350097656	-0.4070142822265625	3.47900390625	-4.680633544921875	-2.01416015625	
242	0.968	0.0	0.0	0.0	0.0	0.003	0.003	0.003	0.003	9.713276135253906	-0.6452373474121094	0.3633201019287109	-0.67901611328125	-1.186370849609375	-0.820159912109375	9.894038360595703	0.5123591552734374	0.23403321228027343	0.48065185546875	-4.8065185546875	-2.964019775390625	10.460267053222656	-0.25139117431640623	-0.3441664886474609	3.509521484375	-4.642486572265625	-2.09808349609375	
243	0.972	0.0	0.0	0.0	0.0	0.003	0.003	0.003	0.006	9.798270294189452	0.2214636535644531	0.22385785522460935	-1.880645751953125	-0.362396240234375	-0.63323974609375	9.775525378417969	0.6051344696044921	-0.02633621826171875	0.911712646484375	-5.245208740234375	-3.368377685546875	10.043675964355469	0.12210428466796874	-0.46806642456054687	3.444671630859375	-4.76837158203125	-2.44140625	
244	0.976	0.0	0.0	0.0	0.0	0.003	0.003	0.003	0.006	9.515754498291015	-0.19871873779296872	0.584185205078125	-1.800537109375	-0.911712646484375	-0.6866455078125	9.5384994140625	0.6793547210693359	0.4860229370117187	0.370025634765625	-4.817962646484375	-2.78472900390625	9.692326870727538	0.3525461944580078	0.059256491088867186	3.887176513671875	-4.413604736328125	-1.689910888671875	
245	0.98	0.0	0.0	0.0	0.0	0.006	0.003	0.003	0.003	9.976638317871092	-0.025737667846679687	0.12868833923339842	-2.288818359375	-0.48828125	-0.54168701171875	9.995791931152343	0.21727380065917967	0.21068974609375	-0.22125244140625	-4.486083984375	-3.124237060546875	10.532093103027343	-0.2346317626953125	-0.5698199951171875	3.692626953125	-4.703521728515625	-2.117156982421875	
246	0.984	0.0	0.0	0.0	0.0	0.009000000000000001	0.003	0.003	0.006	10.101735354614258	0.44592005920410155	-0.22505495605468748	3.978729248046875	-4.360198974609375	-1.1749267578125	9.660603698730467	0.5853823059082031	0.4010287780761719	0.213623046875	-4.638671875	-3.025054931640625	9.950900650024414	0.07122749938964844	-0.031124621582031248	3.4332275390625	-4.650115966796875	-2.26593017578125	
247	0.988	0.0	0.0	0.0	0.0	0.003	0.003	0.003	0.003	9.82460651245117	0.6817489227294922	0.2699462371826172	-1.27410888671875	-0.736236572265625	-0.6103515625	9.551667523193359	0.5452794281005859	0.42437224426269526	-0.1373291015625	-4.474639892578125	-3.082275390625	9.888052856445311	0.24779987182617186	-0.4285620971679687	3.459930419921875	-4.467010498046875	-2.132415771484375	
248	0.992	0.0	0.0	0.0	0.0	0.003	0.006	0.006	0.003	10.137049829101562	0.18914193115234373	-0.21727380065917967	4.734039306640625	-5.14984130859375	-0.919342041015625	9.878476049804688	0.35314474487304687	0.07900865478515624	0.06103515625	-5.2490234375	-2.330780029296875	10.127473022460936	0.076614453125	-0.1149216796875	3.59344482421875	-4.932403564453125	-1.697540283203125	
249	0.996	0.0	0.0	0.0	0.0	0.006	0.006	0.003	0.003	10.103531005859374	0.489015689086914	-0.09816226806640624	9.21630859375	-7.884979248046875	-1.35040283203125	9.923965881347655	0.4034229797363281	0.11133037719726561	-0.3204345703125	-4.673004150390625	-3.30352783203125	10.071209283447265	-0.41419688720703124	-0.3220201232910156	3.60870361328125	-4.680633544921875	-2.50244140625	
250	1.0	0.0	0.0	0.0	0.0	0.003	0.003	0.006	0.006	10.046070166015625	0.3441664886474609	-0.26336218261718747	6.75201416015625	-6.404876708984375	-0.995635986328125	9.552266073608397	0.3908534210205078	0.19333178405761717	-0.064849853515625	-4.5166015625	-2.532958984375	9.523535653686523	0.49200844116210934	0.06105214233398437	3.54766845703125	-4.398345947265625	-2.08282470703125	
251	1.004	0.0	0.0	0.0	0.0	0.003	0.006	0.003	0.003	9.792284790039062	-0.12330138549804687	0.028131869506835935	8.296966552734375	-7.83538818359375	-0.682830810546875	9.560047229003906	0.5428852264404297	0.07781155395507812	0.4425048828125	-5.40924072265625	-2.72369384765625	9.85752678527832	-0.13646949462890623	-0.2567781280517578	3.452301025390625	-4.787445068359375	-1.8768310546875	
252	1.008	0.0	0.0	0.0	0.0	0.006	0.003	0.003	0.0	10.156203442382813	-0.07900865478515624	-0.3333925811767578	8.060455322265625	-7.32421875	-1.2664794921875	9.941922393798828	0.022744915771484374	-0.0005985504150390625	0.16021728515625	-4.82177734375	-3.0670166015625	10.064026678466796	-0.0053869537353515625	0.017357962036132813	3.662109375	-4.512786865234375	-2.25067138671875	
253	1.012	0.0	0.0	0.0	0.0	0.003	0.006	0.006	0.003	9.79348189086914	-0.19991583862304688	0.003591302490234375	6.20269775390625	-5.859375	-1.277923583984375	9.600150106811522	0.5895721588134766	0.01975216369628906	0.812530517578125	-4.90570068359375	-3.387451171875	9.809044201660155	-0.07003039855957031	-0.3950432739257812	3.4942626953125	-4.52423095703125	-2.34222412109375	
254	1.016	0.0	0.0	0.0	0.0	0.003	0.003	0.003	0.006	9.64683703918457	-0.5285200164794922	0.4483142608642578	0.26702880859375	-1.827239990234375	-0.354766845703125	9.600748657226562	0.36092590026855464	0.36272155151367186	0.446319580078125	-4.486083984375	-2.643585205078125	9.643844287109374	0.4100070343017578	0.11791443176269531	3.810882568359375	-4.505157470703125	-2.338409423828125	
255	1.02	0.0	0.0	0.0	0.0	0.006	0.003	0.003	0.006	9.783905084228515	-0.3076549133300781	0.18435352783203124	2.986907958984375	-4.3792724609375	-0.946044921875	9.80665	0.3220201232910156	0.17238251953125	0.54168701171875	-5.24139404296875	-3.1280517578125	9.983820922851562	-0.23343466186523437	0.20171148986816406	3.513336181640625	-4.669189453125	-1.659393310546875	
256	1.024	0.0	0.0	0.0	0.0	0.006	0.003	0.003	0.003	9.996390481567381	-0.3525461944580078	0.02154781494140625	1.590728759765625	-2.704620361328125	-0.965118408203125	9.928155734252929	0.22086510314941404	0.02633621826171875	0.43487548828125	-4.718780517578125	-3.3416748046875	9.919177478027343	0.13826514587402344	-0.08379705810546874	3.7689208984375	-4.0740966796875	-2.429962158203125	
257	1.028	0.0	0.0	0.0	0.0	0.003	0.003	0.006	0.006	9.733626849365233	-0.00718260498046875	0.2059013427734375	2.056121826171875	-3.108978271484375	-0.7476806640625	9.549871871948241	0.5117606048583984	0.24660277099609373	0.835418701171875	-4.955291748046875	-2.742767333984375	9.624092123413085	0.1562216583251953	0.1610100616455078	3.787994384765625	-4.665374755859375	-1.804351806640625	
258	1.032	0.0	0.0	0.0	0.0	0.006	0.006	0.006	0.006	9.912593423461914	-0.28311434631347654	0.1610100616455078	3.154754638671875	-4.241943359375	-0.377655029296875	9.712677584838866	0.3441664886474609	0.37708676147460934	0.06103515625	-4.894256591796875	-2.933502197265625	9.818022457885741	0.07242460021972656	0.20171148986816406	3.6773681640625	-4.657745361328125	-2.28118896484375	
259	1.036	0.0	0.0	0.0	0.0	0.003	0.003	0.003	0.006	10.104129556274414	-0.4291606475830078	-0.013766659545898436	4.230499267578125	-4.734039306640625	-0.8392333984375	10.040084661865233	0.1274912384033203	0.04189852905273437	0.247955322265625	-4.932403564453125	-2.666473388671875	10.144232434082031	-0.09995791931152344	-0.061650692749023434	3.448486328125	-4.58526611328125	-1.880645751953125	
260	1.04	0.0	0.0	0.0	0.0	0.003	0.006	0.006	0.006	9.943119494628906	-0.16879121704101563	0.027533319091796873	5.3558349609375	-5.43975830078125	-0.72479248046875	9.569025485229492	0.5333084197998047	0.2723404388427734	0.217437744140625	-4.306793212890625	-3.070831298828125	10.081384640502929	-0.029328970336914062	-0.3190273712158203	3.80706787109375	-4.245758056640625	-2.532958984375	
261	1.044	0.0	0.0	0.0	0.0	0.003	0.003	0.003	0.003	9.706692080688477	-0.21607669982910155	0.5153519073486328	3.269195556640625	-4.18853759765625	-0.637054443359375	9.707290631103515	0.31064766540527344	0.3274070770263672	0.67901611328125	-5.279541015625	-2.643585205078125	9.735422500610351	0.20709844360351562	0.25797522888183594	3.5858154296875	-4.5928955078125	-1.583099365234375	
262	1.048	0.0	0.0	0.0	0.0	0.0	0.003	0.006	0.003	10.041281762695311	-0.5069722015380859	-0.03591302490234375	-0.652313232421875	-1.468658447265625	-0.919342041015625	10.089165795898436	0.49021278991699213	-0.07601590270996093	0.843048095703125	-4.85992431640625	-2.613067626953125	10.441113439941406	-0.2609679809570312	-0.39863457641601563	3.803253173828125	-4.444122314453125	-2.246856689453125	
263	1.052	0.0	0.0	0.0	0.0	0.003	0.003	0.003	0.003	9.87608184814453	-0.5153519073486328	0.21966800231933592	1.983642578125	-2.887725830078125	-0.640869140625	9.815029705810547	0.3064578125	0.18614917907714842	0.22125244140625	-5.0506591796875	-3.1280517578125	10.226832391357421	0.15741875915527342	-0.26755203552246093	3.437042236328125	-4.24957275390625	-2.1514892578125	
264	1.056	0.0	0.0	0.0	0.0	0.003	0.003	0.003	0.006	9.719261639404296	-0.09038111267089843	0.1945288848876953	-1.247406005859375	-1.148223876953125	-0.598907470703125	9.722254391479492	0.6667851623535156	0.20470424194335937	0.8392333984375	-4.63104248046875	-2.559661865234375	9.90181951599121	0.04369418029785156	-0.11133037719726561	3.76129150390625	-4.261016845703125	-2.02178955078125	
265	1.06	0.0	0.0	0.0	0.0	0.006	0.003	0.003	0.006	9.935338339233398	-0.4339490509033203	0.2603694305419922	2.223968505859375	-3.41033935546875	-0.41961669921875	9.693523971557617	0.43514615173339843	0.5386953735351562	0.026702880859375	-5.04302978515625	-2.750396728515625	10.174758505249024	0.22445640563964842	-0.13946224670410157	3.513336181640625	-4.795074462890625	-1.9073486328125	
266	1.064	0.0	0.0	0.0	0.0	0.006	4.623	4.632	4.587	9.949703549194336	-0.2442085693359375	-0.05985504150390625	0.54931640625	-2.18963623046875	-1.041412353515625	10.044873065185547	0.31004911499023435	-0.08858546142578125	0.751495361328125	-4.398345947265625	-2.918243408203125	10.39322940673828	-0.2962824554443359	-0.5111620544433594	3.841400146484375	-4.528045654296875	-1.80816650390625	
267	1.068	0.0	0.0	0.0	0.0	4.587	4.638	4.641	4.59	9.701305126953125	0.18734627990722655	0.22026655273437498	1.377105712890625	-2.72369384765625	-1.117706298828125	9.527725506591796	0.7158662963867187	0.4950011932373047	0.087738037109375	-4.947662353515625	-2.7923583984375	9.90900212097168	0.4435258575439453	-0.1352723937988281	3.643035888671875	-4.642486572265625	-2.231597900390625	
268	1.072	0.0	0.0	0.0	0.0	4.596	4.641	4.641	4.593	9.76235726928711	-0.1657984649658203	0.28490999755859375	0.0152587890625	-2.079010009765625	-0.5035400390625	9.837176071166992	0.3495534423828125	0.09457096557617187	0.61798095703125	-5.10406494140625	-2.81524658203125	10.04906291809082	-0.010175357055664061	-0.2998737579345703	3.658294677734375	-4.787445068359375	-1.5716552734375	
269	1.076	0.0	0.0	0.0	0.0	4.587	4.638	4.638	4.605	9.87608184814453	-0.005985504150390624	-0.0143652099609375	1.2359619140625	-2.73895263671875	-0.98419189453125	9.926360083007811	0.42437224426269526	0.19572598571777342	0.049591064453125	-4.9285888671875	-2.536773681640625	10.384251150512695	0.08259995727539061	-0.3800795135498047	3.627777099609375	-4.79888916015625	-2.452850341796875	
270	1.08	0.0	0.0	0.0	0.0	4.605	4.635	4.638	4.587	9.847351428222655	-0.061650692749023434	0.037110125732421874	1.12152099609375	-2.452850341796875	-0.99945068359375	9.89463691101074	0.3555389465332031	-0.010773907470703125	0.3509521484375	-4.608154296875	-3.246307373046875	10.101735354614258	-0.028131869506835935	-0.43993455505371093	3.509521484375	-4.50897216796875	-2.109527587890625	
271	1.084	0.0	0.0	0.0	0.0	4.602	4.641	4.644	4.566	9.651625442504882	-0.0017956512451171875	0.21787235107421873	0.9765625	-2.559661865234375	-0.858306884765625	9.46787046508789	0.6643909606933593	0.43035774841308594	0.1068115234375	-4.78363037109375	-2.880096435546875	9.617508068847656	0.18255787658691405	0.06763619689941405	3.620147705078125	-4.726409912109375	-2.288818359375	
272	1.088	0.0	0.0	0.0	0.0	4.602	4.638	4.638	4.569	9.935936889648437	-0.08140285644531249	-0.0383072265625	1.312255859375	-3.21197509765625	-0.70953369140625	10.085574493408203	0.3327940307617187	-0.14784195251464843	0.64849853515625	-4.970550537109375	-2.7923583984375	10.338162768554687	-0.15741875915527342	-0.48063598327636714	3.8299560546875	-4.67681884765625	-1.911163330078125	
273	1.092	0.0	0.0	0.0	0.0	4.599	4.635	4.638	4.59	9.833584768676758	-0.12569558715820311	0.00239420166015625	1.86920166015625	-2.841949462890625	-1.110076904296875	9.757568865966796	0.4632780212402344	0.2292448089599609	0.331878662109375	-4.825592041015625	-3.170013427734375	10.000580334472655	-0.061650692749023434	-0.14185644836425781	3.574371337890625	-4.4403076171875	-2.6397705078125	
274	1.096	0.0	0.0	0.0	0.0	4.596	4.641	4.644	4.596	9.753977563476562	0.12868833923339842	0.16160861206054686	0.7476806640625	-2.597808837890625	-0.98419189453125	9.73602105102539	0.5536591339111328	0.0143652099609375	0.18310546875	-4.871368408203125	-3.35693359375	9.73063409729004	0.32022447204589843	-0.09038111267089843	3.520965576171875	-4.730224609375	-2.0751953125	
275	1.1	0.0	0.0	0.0	0.0	4.599	4.641	4.641	0.003	9.73602105102539	-0.25737667846679685	0.2088940948486328	2.002716064453125	-3.5552978515625	-0.78582763671875	9.707889181518555	0.5003881469726562	0.2651578338623047	0.091552734375	-4.711151123046875	-2.8076171875	9.89523546142578	-0.011372457885742187	-0.008978256225585938	3.787994384765625	-4.848480224609375	-2.25830078125	
276	1.104	0.0	0.0	0.0	0.0	0.003	0.003	0.003	0.003	9.980828170776366	-0.2472013214111328	-0.10714052429199218	0.26702880859375	-1.91497802734375	-0.86212158203125	9.91438907470703	0.18375497741699218	0.06823474731445311	0.469207763671875	-4.833221435546875	-3.2501220703125	10.268730920410155	0.037110125732421874	-0.49859249572753905	3.326416015625	-4.638671875	-2.0904541015625	
277	1.108	0.0	0.0	0.0	0.0	0.003	0.003	0.003	0.003	9.886855755615233	0.10354922180175781	0.034715924072265626	2.899169921875	-3.7689208984375	-1.10626220703125	9.585186346435547	0.6404489440917969	0.1580173095703125	0.2288818359375	-4.604339599609375	-3.10516357421875	9.719860189819336	-0.14604630126953125	-0.023942016601562498	3.810882568359375	-4.43267822265625	-2.552032470703125	
278	1.112	0.0	0.0	0.0	0.0	0.006	0.003	0.003	0.006	9.812036953735351	0.14305354919433594	0.05985504150390625	1.07574462890625	-2.685546875	-0.637054443359375	9.64025298461914	0.33518823242187495	0.18076222534179687	0.23651123046875	-5.10406494140625	-2.971649169921875	9.92217023010254	0.33039982910156246	-0.6302735870361328	3.772735595703125	-4.947662353515625	-1.796722412109375	
279	1.116	0.0	0.0	0.0	0.0	0.0	0.003	0.006	0.003	10.011354241943359	-0.2615665313720703	-0.18734627990722655	3.856658935546875	-4.5623779296875	-0.995635986328125	9.897629663085937	0.3028665100097656	-0.09995791931152344	0.37384033203125	-4.894256591796875	-2.727508544921875	10.050858569335936	-0.2867056488037109	-0.33099837951660155	3.72314453125	-4.241943359375	-2.330780029296875	
280	1.12	0.0	0.0	0.0	0.0	0.003	0.003	0.003	0.006	10.102333905029296	-0.36810850524902344	-0.3764882110595703	4.802703857421875	-5.344390869140625	-1.018524169921875	9.6396544342041	0.2184709014892578	0.3028665100097656	0.1373291015625	-4.817962646484375	-3.253936767578125	9.969455712890625	0.0987608184814453	-0.43155484924316406	3.391265869140625	-4.245758056640625	-2.368927001953125	
281	1.124	0.0	0.0	0.0	0.0	0.003	0.006	0.003	0.006	9.795876092529296	0.10474632263183593	0.061650692749023434	4.9591064453125	-5.035400390625	-0.713348388671875	9.442731347656249	0.6218938812255859	0.30885201416015623	0.4425048828125	-4.749298095703125	-3.101348876953125	9.631274728393555	0.08678981018066406	-0.003591302490234375	3.2958984375	-4.421234130859375	-2.048492431640625	
282	1.1280000000000001	0.0	0.0	0.0	0.0	-0.003	0.003	0.003	0.003	9.997587582397461	-0.14245499877929688	-0.24660277099609373	6.6680908203125	-6.504058837890625	-1.09100341796875	9.80724855041504	0.2166752502441406	0.07841010437011718	0.35858154296875	-4.9285888671875	-2.613067626953125	9.888052856445311	0.11432312927246092	0.005985504150390624	3.795623779296875	-4.49371337890625	-2.08282470703125	
283	1.1320000000000001	0.0	0.0	0.0	0.0	0.003	0.003	0.003	0.003	9.97184991455078	0.025139117431640625	-0.12090718383789062	6.099700927734375	-5.527496337890625	-1.224517822265625	9.769539874267577	0.3848679168701172	0.029328970336914062	0.5645751953125	-4.901885986328125	-3.1585693359375	9.947907897949218	-0.18076222534179687	-0.0909796630859375	3.818511962890625	-4.634857177734375	-2.391815185546875	
284	1.1360000000000001	0.0	0.0	0.0	0.0	0.003	0.003	0.003	0.006	9.878476049804688	-0.3190273712158203	-0.04548983154296875	5.584716796875	-5.771636962890625	-0.89263916015625	9.637260232543944	0.31483751831054685	0.20709844360351562	0.148773193359375	-4.852294921875	-2.61688232421875	9.813832604980469	0.12210428466796874	-0.13467384338378904	3.5552978515625	-4.520416259765625	-2.35748291015625	
285	1.1400000000000001	0.0	0.0	0.0	0.0	0.006	0.006	0.003	0.003	9.783905084228515	-0.430956298828125	0.009576806640625	1.73187255859375	-3.292083740234375	-0.392913818359375	9.785102185058593	0.5297171173095703	0.058657940673828124	0.690460205078125	-5.222320556640625	-2.64739990234375	10.035296258544921	0.20350714111328125	-0.34177228698730466	3.662109375	-4.375457763671875	-1.85394287109375	
286	1.1440000000000001	0.0	0.0	0.0	0.0	0.006	0.003	0.003	0.003	10.020332498168944	-0.4578910675048828	-0.14305354919433594	6.114959716796875	-5.95855712890625	-1.003265380859375	9.949104998779296	0.06584054565429687	-0.07481880187988281	0.431060791015625	-4.909515380859375	-2.66265869140625	10.134057077026366	-0.21428104858398436	-0.15981296081542967	3.459930419921875	-4.238128662109375	-2.201080322265625	
287	1.1480000000000001	0.0	0.0	0.0	0.0	0.006	0.003	0.006	0.003	9.809044201660155	-0.5955576629638671	0.017956512451171875	1.255035400390625	-2.46429443359375	-0.743865966796875	9.879074600219726	0.5015852478027344	-0.06105214233398437	0.797271728515625	-4.5318603515625	-2.834320068359375	10.171765753173828	0.14484920043945312	-0.38247371520996093	3.79180908203125	-4.405975341796875	-2.391815185546875	
288	1.1520000000000001	0.0	0.0	0.0	0.0	0.006	0.003	0.003	0.003	9.822810861206055	-0.5608417388916015	0.04129997863769531	-2.166748046875	-0.560760498046875	-0.804901123046875	9.627084875488281	0.5111620544433594	0.3764882110595703	0.301361083984375	-4.96673583984375	-2.89154052734375	9.931747036743163	0.052073886108398436	-0.12988544006347655	3.39508056640625	-4.734039306640625	-1.76239013671875	
289	1.156	0.0	0.0	0.0	0.0	0.006	0.003	0.003	0.003	9.804255798339844	-0.7451952667236328	0.10175357055664062	-0.469207763671875	-1.68609619140625	-0.51116943359375	10.01733974609375	0.3226186737060547	-0.06703764648437499	0.835418701171875	-5.046844482421875	-2.7313232421875	10.344148272705077	0.07900865478515624	-0.39264907226562495	3.643035888671875	-4.451751708984375	-1.743316650390625	
290	1.16	0.0	0.0	0.0	0.0	0.003	0.003	0.006	0.003	9.666589202880859	-0.10953472595214843	0.4333505004882812	-1.201629638671875	-0.728607177734375	-0.751495361328125	9.865307940673828	0.38307226562499996	0.32082302246093747	0.38909912109375	-4.528045654296875	-3.116607666015625	10.315417852783202	-0.1801636749267578	-0.297479556274414	3.719329833984375	-4.58526611328125	-1.983642578125	
291	1.164	0.0	0.0	0.0	0.0	0.003	0.003	0.003	0.003	9.660603698730467	-0.4285620971679687	0.24660277099609373	-2.15911865234375	-0.31280517578125	-0.51116943359375	9.739013803100585	0.604535919189453	0.2549824768066406	0.225067138671875	-4.85992431640625	-2.99072265625	10.020931048583984	0.3363853332519531	-0.26815058593749996	3.4637451171875	-4.596710205078125	-2.483367919921875	
292	1.168	0.0	0.0	0.0	0.0	0.003	0.003	0.006	0.006	9.580397943115234	0.0909796630859375	0.565031591796875	-1.590728759765625	-0.751495361328125	-0.6866455078125	9.797073193359374	0.37888241271972656	0.5452794281005859	0.17547607421875	-4.9285888671875	-2.9449462890625	10.200496173095702	-0.0718260498046875	-0.23882161560058593	3.536224365234375	-4.730224609375	-1.804351806640625	
293	1.172	0.0	0.0	0.0	0.0	0.009000000000000001	0.003	0.003	0.003	10.086173043823242	0.3190273712158203	-0.09277531433105468	1.033782958984375	-2.285003662109375	-0.621795654296875	10.070012182617187	0.39923312683105466	0.07900865478515624	0.3814697265625	-4.802703857421875	-3.12042236328125	10.269329470825195	-0.08379705810546874	-0.40402153015136716	3.53240966796875	-4.451751708984375	-2.4871826171875	
294	1.176	0.0	0.0	0.0	0.0	0.006	0.006	0.003	0.003	9.669581954956055	0.47884033203125	0.5021837982177734	0.347137451171875	-1.67083740234375	-0.751495361328125	9.685742816162108	0.39444472351074217	0.584185205078125	-0.125885009765625	-4.505157470703125	-2.95257568359375	10.029310754394531	0.034715924072265626	-0.1801636749267578	3.7078857421875	-5.01251220703125	-2.124786376953125	
295	1.18	0.0	0.0	0.0	0.0	0.006	0.003	0.006	0.003	9.975441217041014	0.527322915649414	-0.029328970336914062	2.61688232421875	-3.70025634765625	-0.54931640625	9.865307940673828	0.6242880828857421	0.12509703674316405	0.25177001953125	-4.894256591796875	-2.63214111328125	9.925162982177733	0.12090718383789062	-0.2603694305419922	3.54766845703125	-4.364013671875	-2.338409423828125	
296	1.184	0.0	0.0	0.0	0.0	0.006	0.003	0.003	0.006	9.8449572265625	0.2980781066894531	0.25438392639160157	3.017425537109375	-3.753662109375	-0.75531005859375	9.859322436523437	0.23822306518554687	0.19093758239746092	-0.1068115234375	-4.741668701171875	-2.727508544921875	10.037690460205077	0.06883329772949218	-0.05626373901367187	3.650665283203125	-5.031585693359375	-1.74713134765625	
297	1.188	0.0	0.0	0.0	0.0	0.006	0.006	0.003	0.006	9.973047015380859	0.23822306518554687	-0.058657940673828124	3.841400146484375	-4.299163818359375	-1.07574462890625	9.866505041503906	0.5805939025878906	0.10953472595214843	0.49591064453125	-4.7454833984375	-2.330780029296875	10.049661468505859	-0.06763619689941405	-0.30047230834960936	3.4637451171875	-4.41741943359375	-2.246856689453125	
298	1.192	0.0	0.0	0.0	0.0	0.003	0.006	0.003	0.003	9.8694977935791	-0.16879121704101563	0.13407529296874998	4.047393798828125	-4.9896240234375	-1.0986328125	9.522937103271484	0.42317514343261714	0.5351040710449219	0.18310546875	-4.817962646484375	-2.98309326171875	9.708487731933593	0.37708676147460934	0.09157821350097656	3.51715087890625	-4.85992431640625	-1.89208984375	
299	1.196	0.0	0.0	0.0	0.0	0.003	0.003	0.003	0.006	9.861716638183593	0.047884033203124995	0.22266075439453123	2.529144287109375	-3.726959228515625	-0.881195068359375	9.7928833404541	0.5201403106689453	0.12629413757324218	0.659942626953125	-5.13458251953125	-3.30352783203125	9.952696301269532	-0.14125789794921875	-0.1274912384033203	3.662109375	-4.909515380859375	-1.96075439453125	
300	1.2	0.0	0.0	0.0	0.0	0.006	0.003	0.003	0.006	9.95389340209961	-0.22864625854492185	0.06344634399414062	2.9296875	-3.77655029296875	-1.129150390625	9.708487731933593	0.3321954803466797	0.4465186096191406	0.125885009765625	-4.718780517578125	-3.284454345703125	10.052055670166014	0.08559270935058594	-0.08259995727539061	3.482818603515625	-4.703521728515625	-2.1514892578125	
301	1.204	0.0	0.0	0.0	0.0	0.0	0.006	0.006	0.003	9.782707983398437	0.25797522888183594	0.3507505432128906	3.292083740234375	-4.31060791015625	-1.018524169921875	9.708487731933593	0.5823895538330078	0.1801636749267578	0.31280517578125	-5.0811767578125	-2.964019775390625	9.795876092529296	0.03890577697753906	-0.12449848632812499	3.566741943359375	-4.665374755859375	-2.25067138671875	
302	1.208	0.0	0.0	0.0	0.0	0.003	0.003	0.003	0.003	9.891644158935547	0.008978256225585938	0.14484920043945312	3.07464599609375	-4.039764404296875	-1.007080078125	9.552864624023437	0.3573345977783203	0.4800374328613281	-0.072479248046875	-4.924774169921875	-3.0975341796875	9.897629663085937	0.2154781494140625	-0.037110125732421874	3.612518310546875	-4.482269287109375	-1.964569091796875	
303	1.212	0.0	0.0	0.0	0.0	0.009000000000000001	0.003	0.003	0.003	10.052654220581054	-0.21727380065917967	-0.17058686828613281	4.2572021484375	-4.99725341796875	-0.99945068359375	9.94730934753418	0.24001871643066405	0.09756371765136718	0.20599365234375	-4.802703857421875	-2.960205078125	10.073004934692381	-0.18914193115234373	-0.14425065002441406	3.742218017578125	-4.87518310546875	-2.201080322265625	
304	1.216	0.0	0.0	0.0	0.0	0.003	0.003	0.003	0.006	9.926958633422851	0.02693476867675781	0.06643909606933593	4.1656494140625	-4.650115966796875	-1.132965087890625	9.545682019042967	0.4177881896972656	0.38666356811523434	-0.12969970703125	-4.619598388671875	-3.337860107421875	9.843760125732421	-0.008978256225585938	-0.04249707946777344	3.66973876953125	-4.26483154296875	-2.399444580078125	
305	1.22	0.0	0.0	0.0	0.0	0.003	0.006	0.003	0.006	9.855731134033203	-0.05985504150390625	0.0526724365234375	4.978179931640625	-5.4473876953125	-0.66375732421875	9.700108026123047	0.3920505218505859	0.09277531433105468	0.545501708984375	-5.48553466796875	-2.6397705078125	9.750386260986328	0.1388636962890625	-0.04668693237304687	3.574371337890625	-4.695892333984375	-1.922607421875	
306	1.224	0.0	0.0	0.0	0.0	0.003	0.003	0.003	4.5600000000000005	9.91558617553711	-0.4261678955078125	0.0796072052001953	4.12750244140625	-4.505157470703125	-0.701904296875	9.686939916992188	0.3363853332519531	0.3806780639648437	0.209808349609375	-4.817962646484375	-3.204345703125	9.956287603759765	-0.11192892761230468	-0.0909796630859375	4.001617431640625	-4.550933837890625	-2.498626708984375	
