	time	dac1	dac2	dac3	dac4	adc1.3	adc2.3	adc3.3	adc4.3	imu1accx	imu1accy	imu1accz	imu1gyrox	imu1gyroy	imu1gyroz	imu2accx	imu2accy	imu2accz	imu2gyrox	imu2gyroy	imu2gyroz	imu3accx	imu3accy	imu3accz	imu3gyrox	imu3gyroy	imu3gyroz	log
0	0.0	0.0	0.0	0.0	0.0	0.006	0.003	0.003	0.003	9.885060104370117	0.02454056701660156	0.07422025146484375	2.574920654296875	-3.398895263671875	-0.957489013671875	9.776722479248047	0.20051438903808594	0.19393033447265623	0.095367431640625	-4.947662353515625	-2.849578857421875	9.988609326171874	-0.02154781494140625	-0.19512743530273435	3.536224365234375	-4.5166015625	-2.178192138671875	Estabilizou em 11s, 2275 rpm
1	0.004	0.0	0.0	0.0	0.0	0.003	0.003	0.003	0.006	9.886257205200195	0.03651157531738281	0.09337386474609374	2.590179443359375	-3.60107421875	-0.70953369140625	9.780912332153319	0.2316390106201172	0.21248539733886718	0.217437744140625	-4.76837158203125	-2.864837646484375	10.008960040283203	0.027533319091796873	-0.17118541870117188	3.726959228515625	-4.72259521484375	-2.197265625	Started
2	0.008	0.0	0.0	0.0	0.0	0.012	0.003	0.003	0.003	9.91438907470703	0.05087678527832031	0.07122749938964844	2.55584716796875	-3.5552978515625	-0.87738037109375	9.798270294189452	0.21787235107421873	0.18435352783203124	0.3204345703125	-4.66156005859375	-2.83050537109375	10.019135397338866	0.033518823242187495	-0.19153613281249998	3.772735595703125	-4.589080810546875	-2.056121826171875	IMU1|LSM6DS3|0x6A|I2C-1|±2g (±19,6m/s²)|±125º/s|400Hz
3	0.012	0.0	0.0	0.0	0.0	0.006	0.003	0.003	0.006	9.885060104370117	0.016759411621093748	0.08319850769042968	2.597808837890625	-3.1585693359375	-0.732421875	9.78629928588867	0.17956512451171874	0.19572598571777342	0.37384033203125	-4.772186279296875	-2.8076171875	10.00955859069824	-0.02154781494140625	-0.16639701538085935	3.627777099609375	-4.70733642578125	-2.178192138671875	IMU2|LSM6DS3|0x6B|I2C-1|±2g (±19,6m/s²)|±125º/s|400Hz
4	0.016	0.0	0.0	0.0	0.0	0.006	0.003	0.003	0.006	9.86351228942871	0.017357962036132813	0.09995791931152344	2.76947021484375	-3.719329833984375	-0.720977783203125	9.773131176757811	0.19153613281249998	0.21068974609375	0.293731689453125	-5.04302978515625	-3.1585693359375	9.999383233642577	-0.009576806640625	-0.17417817077636719	4.0283203125	-4.764556884765625	-2.3345947265625	IMU3|LSM6DS3|0x6B|I2C-2|±2g (±19,6m/s²)|±125º/s|400Hz
5	0.02	0.0	0.0	0.0	0.0	0.006	0.003	0.006	0.003	9.878476049804688	0.033518823242187495	0.0909796630859375	2.78472900390625	-3.582000732421875	-0.6866455078125	9.785102185058593	0.2166752502441406	0.20051438903808594	0.2593994140625	-4.9896240234375	-2.72369384765625	9.996989031982421	0.0005985504150390625	-0.19093758239746092	3.72314453125	-4.486083984375	-2.08282470703125	ADC|ADS1015|0|0|1|0|±6,144 V|2400 SPS
6	0.024	0.0	0.0	0.0	0.0	0.003	0.006	0.003	0.009000000000000001	9.88266590270996	0.017357962036132813	0.05746083984375	2.5634765625	-3.643035888671875	-0.66375732421875	9.7928833404541	0.20051438903808594	0.18914193115234373	0.274658203125	-4.1046142578125	-2.99072265625	10.001178884887695	-0.013168109130859374	-0.20350714111328125	3.704071044921875	-4.665374755859375	-2.063751220703125	Gen1|Disabled
7	0.028	0.0	0.0	0.0	0.0	0.006	0.006	0.006	0.006	9.887454306030273	0.015562310791015624	0.08080430603027343	2.43377685546875	-3.5400390625	-0.8544921875	9.798270294189452	0.19812018737792966	0.17118541870117188	0.148773193359375	-4.650115966796875	-2.76947021484375	10.018536846923828	-0.02154781494140625	-0.21308394775390624	4.12750244140625	-4.817962646484375	-2.2735595703125	Gen2|Enabled|Noise|0.0|10.0|1668
8	0.032	0.0	0.0	0.0	0.0	0.006	0.003	0.006	0.006	9.881468801879882	0.04967968444824218	0.07601590270996093	2.49481201171875	-3.5247802734375	-0.865936279296875	9.785700735473633	0.23104046020507812	0.1562216583251953	0.484466552734375	-4.619598388671875	-2.994537353515625	10.007164389038085	0.006584054565429687	-0.24301146850585936	3.833770751953125	-4.61578369140625	-2.231597900390625	Gen3|Enabled|Noise|0.0|10.0|128
9	0.036000000000000004	0.0	0.0	0.0	0.0	0.003	0.003	0.003	0.009000000000000001	9.880870251464843	0.0526724365234375	0.0718260498046875	2.685546875	-3.459930419921875	-0.80108642578125	9.77492682800293	0.239420166015625	0.1466448516845703	0.45013427734375	-4.7454833984375	-2.849578857421875	10.01015714111328	0.028131869506835935	-0.2663549346923828	3.528594970703125	-4.970550537109375	-2.09808349609375	Gen4|Enabled|Noise|0.0|10.0|128
10	0.04	0.0	0.0	0.0	0.0	0.006	0.003	0.006	0.006	9.874286196899414	0.054468087768554684	0.08379705810546874	2.79998779296875	-3.574371337890625	-0.8392333984375	9.785102185058593	0.22685060729980466	0.15682020874023436	0.278472900390625	-4.8980712890625	-2.99835205078125	10.005368737792969	0.014963760375976562	-0.27952304382324217	3.72314453125	-4.611968994140625	-2.155303955078125	Ctrl|Disabled
11	0.044	0.0	0.0	0.0	0.0	0.0	0.003	0.003	0.003	9.882067352294921	0.07242460021972656	0.07781155395507812	2.254486083984375	-3.513336181640625	-0.84686279296875	9.787496386718749	0.24480711975097655	0.14425065002441406	0.18310546875	-5.08880615234375	-3.265380859375	10.005967288208007	0.034715924072265626	-0.2813186950683594	3.871917724609375	-4.7454833984375	-2.15911865234375	
12	0.048	0.0	0.0	0.0	0.0	0.003	0.003	0.003	0.006	9.894038360595703	0.07601590270996093	0.06284779357910156	2.63214111328125	-3.753662109375	-0.78582763671875	9.796474642944336	0.26695348510742184	0.12689268798828124	0.25177001953125	-4.955291748046875	-2.811431884765625	10.011354241943359	0.05805939025878906	-0.296881005859375	3.749847412109375	-4.650115966796875	-2.147674560546875	
13	0.052000000000000005	0.0	0.0	0.0	0.0	0.003	0.003	0.003	0.003	9.906009368896484	0.07062894897460938	0.06703764648437499	2.552032470703125	-3.482818603515625	-0.789642333984375	9.805452899169921	0.24600422058105467	0.14484920043945312	0.156402587890625	-4.87518310546875	-2.8533935546875	10.019733947753906	0.03890577697753906	-0.2825157958984375	3.627777099609375	-4.642486572265625	-2.1514892578125	
14	0.056	0.0	0.0	0.0	0.0	0.003	0.003	0.003	0.003	9.894038360595703	0.06703764648437499	0.07302315063476562	2.346038818359375	-3.429412841796875	-0.614166259765625	9.794678991699218	0.23523031311035156	0.16160861206054686	0.23651123046875	-4.634857177734375	-2.95257568359375	10.02332525024414	0.016759411621093748	-0.26276363220214843	3.54766845703125	-4.749298095703125	-2.12860107421875	
15	0.06	0.0	0.0	0.0	0.0	0.003	0.006	0.003	0.003	9.890447058105469	0.051475335693359374	0.07422025146484375	2.475738525390625	-3.772735595703125	-0.81634521484375	9.78629928588867	0.22685060729980466	0.14903905334472656	0.19073486328125	-4.7607421875	-2.8228759765625	9.999981784057617	0.022744915771484374	-0.25258827514648435	3.490447998046875	-4.76837158203125	-2.2125244140625	
16	0.064	0.0	0.0	0.0	0.0	0.006	0.003	0.003	0.006	9.880870251464843	0.03232172241210937	0.076614453125	2.3651123046875	-3.53240966796875	-0.93841552734375	9.77432827758789	0.21248539733886718	0.16041151123046873	0.019073486328125	-4.634857177734375	-2.83050537109375	9.993397729492187	0.010773907470703125	-0.21906945190429686	3.604888916015625	-4.619598388671875	-2.063751220703125	
17	0.068	0.0	0.0	0.0	0.0	0.003	0.006	0.006	0.003	9.874286196899414	0.014963760375976562	0.08379705810546874	2.483367919921875	-3.513336181640625	-0.8087158203125	9.782707983398437	0.19093758239746092	0.1849520782470703	0.583648681640625	-4.840850830078125	-2.84576416015625	10.000580334472655	-0.023343466186523436	-0.18136077575683593	3.662109375	-4.58526611328125	-2.132415771484375	
18	0.07200000000000001	0.0	0.0	0.0	0.0	0.003	0.003	0.003	0.003	9.880870251464843	0.014963760375976562	0.08259995727539061	2.719879150390625	-3.421783447265625	-0.751495361328125	9.7928833404541	0.1849520782470703	0.17597382202148437	0.0457763671875	-4.78363037109375	-3.002166748046875	9.9981861328125	-0.027533319091796873	-0.18555062866210936	3.70025634765625	-4.67681884765625	-2.262115478515625	
19	0.076	0.0	0.0	0.0	0.0	0.003	0.006	0.006	0.003	9.890447058105469	0.03232172241210937	0.06823474731445311	2.468109130859375	-3.459930419921875	-0.827789306640625	9.78629928588867	0.2041056915283203	0.1849520782470703	0.232696533203125	-4.8980712890625	-2.826690673828125	10.001178884887695	-0.007781155395507812	-0.20649989318847656	3.73077392578125	-4.680633544921875	-2.14385986328125	
20	0.08	0.0	0.0	0.0	0.0	0.003	0.003	0.003	0.003	9.890447058105469	0.0143652099609375	0.08978256225585937	2.582550048828125	-3.505706787109375	-0.865936279296875	9.78629928588867	0.19153613281249998	0.20530279235839843	0.286102294921875	-4.993438720703125	-2.803802490234375	10.000580334472655	-0.01915361328125	-0.17896657409667968	3.875732421875	-4.5623779296875	-2.26593017578125	
21	0.084	0.0	0.0	0.0	0.0	0.003	0.003	0.006	0.003	9.880870251464843	0.013168109130859374	0.08439560852050781	2.72369384765625	-3.8299560546875	-0.644683837890625	9.785102185058593	0.1945288848876953	0.18136077575683593	0.54931640625	-4.70733642578125	-2.8839111328125	9.98561657409668	-0.02154781494140625	-0.20051438903808594	3.643035888671875	-4.8828125	-2.29644775390625	
22	0.088	0.0	0.0	0.0	0.0	0.006	0.003	0.003	0.006	9.892242709350585	0.054468087768554684	0.07481880187988281	2.666473388671875	-3.44085693359375	-0.873565673828125	9.794678991699218	0.2442085693359375	0.1640028137207031	0.362396240234375	-4.89044189453125	-2.86865234375	10.001777435302733	0.025737667846679687	-0.21068974609375	3.803253173828125	-4.72259521484375	-2.269744873046875	
23	0.092	0.0	0.0	0.0	0.0	0.006	0.006	0.006	0.003	9.89523546142578	0.05746083984375	0.08439560852050781	2.643585205078125	-3.566741943359375	-0.782012939453125	9.792284790039062	0.24779987182617186	0.1580173095703125	0.518798828125	-5.02777099609375	-2.758026123046875	10.020332498168944	0.04848258361816406	-0.22565350646972654	3.8299560546875	-4.787445068359375	-2.101898193359375	
24	0.096	0.0	0.0	0.0	0.0	0.006	0.006	0.006	0.006	9.891644158935547	0.05386953735351562	0.07721300354003906	2.62451171875	-3.551483154296875	-0.7171630859375	9.787496386718749	0.23523031311035156	0.15502455749511718	0.385284423828125	-4.85992431640625	-3.017425537109375	10.005967288208007	0.02154781494140625	-0.229843359375	3.696441650390625	-4.7454833984375	-2.2125244140625	
25	0.1	0.0	0.0	0.0	0.0	0.003	0.003	0.003	0.003	9.889249957275391	0.08379705810546874	0.055066638183593745	2.49481201171875	-3.7384033203125	-0.904083251953125	9.783905084228515	0.26755203552246093	0.12449848632812499	0.339508056640625	-4.970550537109375	-2.66265869140625	10.00417163696289	0.06703764648437499	-0.27832594299316404	3.7841796875	-4.66156005859375	-2.361297607421875	
26	0.10400000000000001	0.0	0.0	0.0	0.0	0.003	0.003	0.006	0.006	9.878476049804688	0.10474632263183593	0.06943184814453125	2.704620361328125	-3.2806396484375	-0.713348388671875	9.771934075927733	0.29089550170898437	0.13646949462890623	0.335693359375	-4.9285888671875	-2.742767333984375	10.006565838623047	0.08259995727539061	-0.25438392639160157	3.90625	-4.741668701171875	-1.99127197265625	
27	0.108	0.0	0.0	0.0	0.0	0.006	0.003	0.006	0.006	9.86291373901367	0.07242460021972656	0.07841010437011718	2.7923583984375	-3.76129150390625	-0.789642333984375	9.76894132385254	0.2472013214111328	0.1352723937988281	0.45013427734375	-4.9285888671875	-2.86102294921875	9.996390481567381	0.04908113403320312	-0.26276363220214843	3.7078857421875	-4.520416259765625	-2.109527587890625	
28	0.112	0.0	0.0	0.0	0.0	0.003	0.003	0.003	0.003	9.879673150634765	0.10654197387695312	0.04608838195800781	2.521514892578125	-3.383636474609375	-0.98419189453125	9.784503634643555	0.26396073303222656	0.12210428466796874	0.22125244140625	-4.825592041015625	-2.918243408203125	9.995791931152343	0.07601590270996093	-0.3142389678955078	3.63922119140625	-4.550933837890625	-2.31170654296875	
29	0.116	0.0	0.0	0.0	0.0	0.006	0.003	0.003	0.006	9.894038360595703	0.13407529296874998	0.051475335693359374	2.685546875	-3.658294677734375	-0.95367431640625	9.79348189086914	0.3172317199707031	0.143652099609375	0.141143798828125	-4.55474853515625	-2.895355224609375	10.01733974609375	0.12330138549804687	-0.2920926025390625	3.726959228515625	-4.871368408203125	-2.109527587890625	
30	0.12	0.0	0.0	0.0	0.0	0.003	0.003	0.006	0.006	9.879673150634765	0.09337386474609374	0.076614453125	2.532958984375	-3.612518310546875	-0.827789306640625	9.783905084228515	0.2663549346923828	0.1514332550048828	0.347137451171875	-4.8675537109375	-2.7923583984375	10.002974536132811	0.06643909606933593	-0.2705447875976562	3.475189208984375	-4.638671875	-2.185821533203125	
31	0.124	0.0	0.0	0.0	0.0	0.006	0.003	0.006	0.003	9.892242709350585	0.10714052429199218	0.04967968444824218	2.49481201171875	-3.79180908203125	-0.690460205078125	9.788693487548828	0.2771288421630859	0.12988544006347655	0.2899169921875	-4.913330078125	-2.849578857421875	10.006565838623047	0.059256491088867186	-0.28490999755859375	3.56292724609375	-4.5166015625	-2.0904541015625	
32	0.128	0.0	0.0	0.0	0.0	0.003	0.006	0.003	0.006	9.906009368896484	0.12569558715820311	0.047285482788085934	2.61688232421875	-3.406524658203125	-0.774383544921875	9.785102185058593	0.3280056274414062	0.1292868896484375	0.2593994140625	-4.95147705078125	-2.773284912109375	10.02332525024414	0.12569558715820311	-0.2741360900878906	3.520965576171875	-4.7607421875	-2.017974853515625	
33	0.132	0.0	0.0	0.0	0.0	0.006	0.003	0.006	0.003	9.8694977935791	0.07422025146484375	0.07302315063476562	2.643585205078125	-3.41033935546875	-0.87738037109375	9.78031378173828	0.2549824768066406	0.16759411621093748	0.23651123046875	-4.7454833984375	-2.76947021484375	10.007164389038085	0.06643909606933593	-0.229843359375	3.662109375	-4.642486572265625	-2.178192138671875	
34	0.136	0.0	0.0	0.0	0.0	0.006	0.003	0.003	0.003	9.880870251464843	0.07003039855957031	0.061650692749023434	2.445220947265625	-3.6773681640625	-0.774383544921875	9.787496386718749	0.23523031311035156	0.15263035583496093	0.301361083984375	-4.863739013671875	-2.8533935546875	9.999383233642577	0.028730419921875	-0.23403321228027343	3.570556640625	-4.642486572265625	-2.162933349609375	
35	0.14	0.0	0.0	0.0	0.0	0.0	0.006	0.003	0.006	9.88386300354004	0.10235212097167969	0.044891281127929686	2.5787353515625	-3.482818603515625	-0.835418701171875	9.79348189086914	0.30346506042480464	0.15263035583496093	0.164031982421875	-4.93621826171875	-2.899169921875	10.01733974609375	0.09696516723632811	-0.22385785522460935	3.665924072265625	-4.642486572265625	-2.147674560546875	
36	0.14400000000000002	0.0	0.0	0.0	0.0	0.006	0.003	0.006	0.003	9.862315188598632	0.0526724365234375	0.0796072052001953	2.635955810546875	-3.246307373046875	-0.70953369140625	9.771335525512695	0.2262520568847656	0.1801636749267578	0.232696533203125	-4.734039306640625	-2.838134765625	9.99160207824707	0.012569558715820313	-0.19692308654785154	3.681182861328125	-4.695892333984375	-2.147674560546875	
37	0.148	0.0	0.0	0.0	0.0	0.003	0.003	0.003	0.003	9.865307940673828	0.04369418029785156	0.07422025146484375	2.506256103515625	-3.50189208984375	-0.701904296875	9.773131176757811	0.19991583862304688	0.17178396911621094	0.37384033203125	-4.98199462890625	-3.208160400390625	9.987412225341796	0.0017956512451171875	-0.20649989318847656	3.7078857421875	-4.512786865234375	-2.132415771484375	
38	0.152	0.0	0.0	0.0	0.0	0.003	0.003	0.006	0.006	9.89463691101074	0.09935936889648436	0.04608838195800781	2.849578857421875	-3.787994384765625	-0.942230224609375	9.79348189086914	0.2885013000488281	0.15861585998535155	0.225067138671875	-5.016326904296875	-2.87628173828125	10.005967288208007	0.0909796630859375	-0.23582886352539062	3.780364990234375	-4.444122314453125	-2.117156982421875	
39	0.156	0.0	0.0	0.0	0.0	0.006	0.003	0.003	0.003	9.880271701049804	0.0652419952392578	0.06943184814453125	2.544403076171875	-3.490447998046875	-0.888824462890625	9.78629928588867	0.23044190979003906	0.1753752716064453	0.225067138671875	-4.7607421875	-2.95257568359375	10.00417163696289	0.014963760375976562	-0.22744915771484372	3.936767578125	-4.970550537109375	-2.086639404296875	
40	0.16	0.0	0.0	0.0	0.0	0.003	0.003	0.003	0.006	9.882067352294921	0.0526724365234375	0.08738836059570312	2.735137939453125	-3.54766845703125	-1.0223388671875	9.783306533813477	0.20829554443359374	0.1580173095703125	0.492095947265625	-4.72259521484375	-2.918243408203125	9.995193380737303	0.0053869537353515625	-0.22864625854492185	3.72314453125	-4.848480224609375	-2.0599365234375	
41	0.164	0.0	0.0	0.0	0.0	0.003	0.003	0.003	0.006	9.89583401184082	0.09217676391601562	0.06344634399414062	2.567291259765625	-3.528594970703125	-0.75531005859375	9.798270294189452	0.28730419921875	0.14544775085449219	0.335693359375	-4.863739013671875	-2.93731689453125	10.019733947753906	0.08559270935058594	-0.2603694305419922	3.66973876953125	-4.61578369140625	-2.20489501953125	
42	0.168	0.0	0.0	0.0	0.0	0.003	0.003	0.003	0.006	9.886855755615233	0.05327098693847656	0.086191259765625	2.54058837890625	-3.4637451171875	-0.7781982421875	9.78629928588867	0.22565350646972654	0.1514332550048828	0.457763671875	-4.627227783203125	-2.712249755859375	10.005967288208007	0.0143652099609375	-0.2651578338623047	3.574371337890625	-4.6539306640625	-2.0294189453125	
43	0.17200000000000001	0.0	0.0	0.0	0.0	0.009000000000000001	0.003	0.003	0.003	9.874884747314452	0.04848258361816406	0.08858546142578125	2.410888671875	-3.612518310546875	-0.888824462890625	9.784503634643555	0.19812018737792966	0.143652099609375	0.247955322265625	-4.8828125	-2.81524658203125	9.99220062866211	-0.004189852905273437	-0.2711433380126953	3.65447998046875	-4.5623779296875	-2.17437744140625	
44	0.176	0.0	0.0	0.0	0.0	0.006	0.006	0.006	0.006	9.886257205200195	0.07242460021972656	0.07481880187988281	2.72369384765625	-3.76129150390625	-0.751495361328125	9.78629928588867	0.2609679809570312	0.13168109130859373	0.396728515625	-4.924774169921875	-2.86865234375	10.007164389038085	0.059256491088867186	-0.28371289672851563	3.887176513671875	-4.871368408203125	-2.05230712890625	
45	0.18	0.0	0.0	0.0	0.0	0.006	0.003	0.003	0.006	9.879673150634765	0.04249707946777344	0.07781155395507812	2.574920654296875	-3.5858154296875	-0.81634521484375	9.788094937133788	0.19692308654785154	0.14125789794921875	0.301361083984375	-4.72259521484375	-2.880096435546875	10.00955859069824	0.002992752075195312	-0.26755203552246093	3.742218017578125	-4.60052490234375	-2.292633056640625	
46	0.184	0.0	0.0	0.0	0.0	0.006	0.003	0.003	0.003	9.874884747314452	0.01915361328125	0.09157821350097656	2.51007080078125	-3.330230712890625	-0.8087158203125	9.787496386718749	0.19153613281249998	0.16220716247558592	0.26702880859375	-4.573822021484375	-2.8076171875	9.9981861328125	-0.029927520751953124	-0.24001871643066405	3.66973876953125	-4.76837158203125	-2.23541259765625	
47	0.188	0.0	0.0	0.0	0.0	0.003	0.003	0.003	0.006	9.892841259765625	0.04369418029785156	0.08978256225585937	2.5787353515625	-3.54766845703125	-0.797271728515625	9.78629928588867	0.22445640563964842	0.16041151123046873	-0.030517578125	-4.60052490234375	-2.681732177734375	10.013748443603514	0.03232172241210937	-0.25737667846679685	3.60870361328125	-4.53948974609375	-2.14385986328125	
48	0.192	0.0	0.0	0.0	0.0	0.006	0.006	0.006	0.003	9.891045608520507	0.004189852905273437	0.09277531433105468	2.67791748046875	-3.53240966796875	-0.782012939453125	9.78629928588867	0.18315642700195311	0.16041151123046873	0.3662109375	-4.913330078125	-2.925872802734375	10.014945544433592	-0.02154781494140625	-0.23104046020507812	3.6163330078125	-4.78363037109375	-2.18963623046875	
49	0.196	0.0	0.0	0.0	0.0	0.003	0.003	0.003	0.006	9.885060104370117	-0.011971008300781249	0.10654197387695312	2.506256103515625	-3.25775146484375	-0.78582763671875	9.785700735473633	0.16160861206054686	0.19812018737792966	0.30517578125	-4.84466552734375	-2.887725830078125	10.013149893188476	-0.0430956298828125	-0.21068974609375	3.47900390625	-4.791259765625	-2.346038818359375	
50	0.2	0.0	0.0	0.0	0.0	0.009000000000000001	0.003	0.003	0.003	9.891045608520507	0.001197100830078125	0.10594342346191406	2.429962158203125	-3.5552978515625	-0.873565673828125	9.792284790039062	0.18854338073730467	0.201112939453125	0.308990478515625	-5.001068115234375	-2.86865234375	10.002974536132811	-0.01975216369628906	-0.19812018737792966	3.475189208984375	-4.627227783203125	-2.00653076171875	
51	0.20400000000000001	0.0	0.0	0.0	0.0	0.006	0.006	0.003	0.003	9.890447058105469	-0.0143652099609375	0.09277531433105468	2.6397705078125	-3.429412841796875	-0.789642333984375	9.785700735473633	0.16519991455078123	0.201112939453125	0.20599365234375	-4.985809326171875	-2.74658203125	10.01015714111328	-0.04129997863769531	-0.18435352783203124	3.66973876953125	-4.46319580078125	-2.246856689453125	
52	0.20800000000000002	0.0	0.0	0.0	0.0	0.0	0.003	0.003	0.003	9.880870251464843	-0.028730419921875	0.11791443176269531	2.483367919921875	-3.528594970703125	-0.888824462890625	9.781510882568359	0.15263035583496093	0.22685060729980466	0.331878662109375	-4.589080810546875	-2.948760986328125	9.999981784057617	-0.06404489440917968	-0.17417817077636719	3.772735595703125	-4.711151123046875	-2.124786376953125	
53	0.212	0.0	0.0	0.0	0.0	0.003	0.006	0.003	0.009000000000000001	9.87727894897461	-0.018555062866210937	0.11791443176269531	2.58636474609375	-3.41796875	-0.774383544921875	9.783905084228515	0.16998831787109375	0.22445640563964842	0.354766845703125	-4.886627197265625	-2.834320068359375	10.008361489868163	-0.03950432739257812	-0.16759411621093748	3.551483154296875	-4.688262939453125	-2.26593017578125	
54	0.216	0.0	0.0	0.0	0.0	0.003	0.003	0.006	0.003	9.879074600219726	-0.018555062866210937	0.10953472595214843	2.69317626953125	-3.520965576171875	-0.9613037109375	9.78629928588867	0.1657984649658203	0.21009119567871093	0.324249267578125	-4.642486572265625	-2.941131591796875	9.999383233642577	-0.03950432739257812	-0.181959326171875	3.787994384765625	-4.73785400390625	-2.193450927734375	
55	0.22	0.0	0.0	0.0	0.0	0.009000000000000001	0.006	0.003	0.003	9.885658654785155	-0.0143652099609375	0.12449848632812499	2.64739990234375	-3.574371337890625	-0.911712646484375	9.788094937133788	0.1657984649658203	0.21009119567871093	0.362396240234375	-4.741668701171875	-2.826690673828125	10.008960040283203	-0.040102877807617184	-0.17776947326660156	3.818511962890625	-4.726409912109375	-2.13623046875	
56	0.224	0.0	0.0	0.0	0.0	0.006	0.006	0.003	0.006	9.87009634399414	-0.008978256225585938	0.11552023010253906	2.780914306640625	-3.704071044921875	-0.83160400390625	9.783905084228515	0.18136077575683593	0.20949264526367187	0.476837158203125	-4.70733642578125	-2.811431884765625	10.005967288208007	-0.02154781494140625	-0.19093758239746092	3.719329833984375	-4.7760009765625	-2.2125244140625	
57	0.228	0.0	0.0	0.0	0.0	0.003	0.003	0.006	0.003	9.881468801879882	0.02633621826171875	0.08918401184082031	2.681732177734375	-3.50189208984375	-0.83160400390625	9.78629928588867	0.19393033447265623	0.18315642700195311	0.37384033203125	-4.863739013671875	-3.16619873046875	10.01075569152832	-0.004189852905273437	-0.21428104858398436	3.704071044921875	-4.795074462890625	-2.28118896484375	
58	0.232	0.0	0.0	0.0	0.0	0.006	0.003	0.003	0.006	9.883264453125	0.044891281127929686	0.09756371765136718	2.7618408203125	-3.50189208984375	-0.87738037109375	9.785102185058593	0.22206220397949217	0.17896657409667968	0.1068115234375	-4.7607421875	-2.74658203125	10.006565838623047	0.013168109130859374	-0.21487959899902342	3.7384033203125	-4.60052490234375	-2.13623046875	
59	0.23600000000000002	0.0	0.0	0.0	0.0	0.006	0.003	0.003	0.006	9.87727894897461	0.052073886108398436	0.09816226806640624	2.643585205078125	-3.681182861328125	-0.926971435546875	9.790489138793944	0.22206220397949217	0.181959326171875	0.37384033203125	-4.863739013671875	-2.7313232421875	10.01015714111328	0.014963760375976562	-0.24301146850585936	3.673553466796875	-4.58526611328125	-2.0904541015625	
60	0.24	0.0	0.0	0.0	0.0	0.006	0.003	0.006	0.006	9.885658654785155	0.07541735229492187	0.07841010437011718	2.773284912109375	-3.566741943359375	-1.03759765625	9.785700735473633	0.23582886352539062	0.1580173095703125	0.247955322265625	-4.985809326171875	-2.76947021484375	10.004770187377929	0.037708676147460936	-0.24899697265624998	3.665924072265625	-4.749298095703125	-2.23541259765625	
61	0.244	0.0	0.0	0.0	0.0	0.009000000000000001	0.003	0.003	0.006	9.886855755615233	0.08918401184082031	0.07601590270996093	2.58636474609375	-3.56292724609375	-0.888824462890625	9.78629928588867	0.2645592834472656	0.15981296081542967	0.40435791015625	-4.974365234375	-2.84576416015625	10.01015714111328	0.06943184814453125	-0.26396073303222656	3.85284423828125	-4.791259765625	-2.20489501953125	
62	0.248	0.0	0.0	0.0	0.0	0.003	0.003	0.006	0.003	9.879673150634765	0.08319850769042968	0.08918401184082031	2.628326416015625	-3.322601318359375	-0.8544921875	9.779116680908203	0.26874913635253905	0.15502455749511718	0.385284423828125	-4.92095947265625	-2.780914306640625	10.016142645263672	0.06763619689941405	-0.26396073303222656	3.856658935546875	-4.669189453125	-2.262115478515625	
63	0.252	0.0	0.0	0.0	0.0	0.0	0.003	0.003	0.006	9.883264453125	0.09337386474609374	0.06763619689941405	2.5634765625	-3.50189208984375	-0.873565673828125	9.785102185058593	0.27174188842773433	0.14784195251464843	0.438690185546875	-5.0506591796875	-2.902984619140625	10.01015714111328	0.06763619689941405	-0.26815058593749996	3.8604736328125	-4.73785400390625	-2.08282470703125	
64	0.256	0.0	0.0	0.0	0.0	0.003	0.003	0.003	0.003	9.883264453125	0.11252747802734374	0.05746083984375	2.72369384765625	-3.73077392578125	-0.83160400390625	9.784503634643555	0.2950853546142578	0.12988544006347655	0.072479248046875	-4.924774169921875	-2.758026123046875	10.005368737792969	0.09157821350097656	-0.2759317413330078	3.505706787109375	-4.73785400390625	-1.97601318359375	
65	0.26	0.0	0.0	0.0	0.0	0.006	0.003	0.003	0.003	9.887454306030273	0.11252747802734374	0.06045359191894531	2.57110595703125	-3.59344482421875	-0.6256103515625	9.782707983398437	0.2962824554443359	0.14006079711914063	0.1678466796875	-4.82940673828125	-3.025054931640625	9.9981861328125	0.08978256225585937	-0.26336218261718747	3.749847412109375	-4.69970703125	-2.15911865234375	
66	0.264	0.0	0.0	0.0	0.0	0.003	0.006	0.003	0.003	9.888651406860351	0.1149216796875	0.06643909606933593	2.5634765625	-3.7994384765625	-0.743865966796875	9.78629928588867	0.2932897033691406	0.14724340209960937	0.1373291015625	-5.0048828125	-2.780914306640625	10.011354241943359	0.08559270935058594	-0.2567781280517578	3.643035888671875	-4.886627197265625	-2.231597900390625	
67	0.268	0.0	0.0	0.0	0.0	0.006	0.003	0.003	0.003	9.890447058105469	0.12868833923339842	0.05985504150390625	2.6702880859375	-3.4637451171875	-0.774383544921875	9.785102185058593	0.3064578125	0.14185644836425781	0.0	-4.810333251953125	-2.79998779296875	10.001178884887695	0.10654197387695312	-0.26396073303222656	3.810882568359375	-4.802703857421875	-2.26593017578125	
68	0.272	0.0	0.0	0.0	0.0	0.006	0.006	0.003	0.003	9.878476049804688	0.12988544006347655	0.04668693237304687	2.63214111328125	-3.7689208984375	-0.885009765625	9.78629928588867	0.2962824554443359	0.14185644836425781	0.316619873046875	-5.092620849609375	-3.02886962890625	10.002375985717773	0.09576806640624999	-0.24600422058105467	3.589630126953125	-4.367828369140625	-1.926422119140625	
69	0.276	0.0	0.0	0.0	0.0	0.006	0.003	0.003	0.006	9.878476049804688	0.10893617553710937	0.04848258361816406	2.506256103515625	-3.498077392578125	-0.72479248046875	9.78031378173828	0.2885013000488281	0.13826514587402344	0.423431396484375	-5.19561767578125	-2.86865234375	9.996989031982421	0.08439560852050781	-0.23104046020507812	3.665924072265625	-4.901885986328125	-2.1514892578125	
70	0.28	0.0	0.0	0.0	0.0	0.006	0.003	0.003	0.003	9.882067352294921	0.12210428466796874	0.03950432739257812	2.593994140625	-3.604888916015625	-0.713348388671875	9.787496386718749	0.2980781066894531	0.1322796417236328	0.20599365234375	-4.84466552734375	-2.93731689453125	10.008960040283203	0.09995791931152344	-0.24839842224121092	3.963470458984375	-4.85992431640625	-2.03704833984375	
71	0.28400000000000003	0.0	0.0	0.0	0.0	0.003	0.003	0.006	0.006	9.87727894897461	0.12449848632812499	0.04967968444824218	2.55584716796875	-3.2806396484375	-0.7476806640625	9.791087689208984	0.29388825378417965	0.12868833923339842	0.202178955078125	-5.062103271484375	-2.7618408203125	10.008361489868163	0.09756371765136718	-0.2442085693359375	3.704071044921875	-4.66156005859375	-2.170562744140625	
72	0.28800000000000003	0.0	0.0	0.0	0.0	0.006	0.003	0.003	0.003	9.877877499389648	0.1131260284423828	0.03950432739257812	2.51007080078125	-3.662109375	-0.8697509765625	9.789292037963866	0.27952304382324217	0.1466448516845703	0.270843505859375	-4.680633544921875	-2.86865234375	10.007762939453125	0.07541735229492187	-0.24121581726074218	3.77655029296875	-4.7760009765625	-2.140045166015625	
73	0.292	0.0	0.0	0.0	0.0	0.003	0.003	0.006	0.006	9.87727894897461	0.11372457885742186	0.04848258361816406	2.613067626953125	-3.48663330078125	-0.8544921875	9.788693487548828	0.29269115295410153	0.12689268798828124	0.423431396484375	-5.008697509765625	-2.9449462890625	10.012551342773437	0.08738836059570312	-0.26396073303222656	3.780364990234375	-4.57000732421875	-2.208709716796875	
74	0.296	0.0	0.0	0.0	0.0	0.006	0.003	0.003	0.003	9.880271701049804	0.11611878051757812	0.05087678527832031	2.674102783203125	-3.429412841796875	-0.843048095703125	9.788094937133788	0.2932897033691406	0.1274912384033203	0.3814697265625	-4.87518310546875	-2.70843505859375	10.012551342773437	0.09576806640624999	-0.2741360900878906	3.818511962890625	-4.543304443359375	-2.315521240234375	
75	0.3	0.0	0.0	0.0	0.0	0.003	0.003	0.006	0.003	9.874286196899414	0.10414777221679687	0.06703764648437499	2.437591552734375	-3.50189208984375	-0.904083251953125	9.785102185058593	0.2765302917480469	0.13587094421386717	0.274658203125	-5.16510009765625	-2.7618408203125	10.015544094848632	0.07302315063476562	-0.26815058593749996	3.7994384765625	-4.665374755859375	-2.20489501953125	
76	0.304	0.0	0.0	0.0	0.0	0.003	0.006	0.003	0.003	9.87608184814453	0.09576806640624999	0.06105214233398437	2.941131591796875	-3.37982177734375	-0.965118408203125	9.795876092529296	0.27892449340820313	0.12868833923339842	0.362396240234375	-4.932403564453125	-2.872467041015625	10.016142645263672	0.07481880187988281	-0.277727392578125	3.688812255859375	-4.547119140625	-2.292633056640625	
77	0.308	0.0	0.0	0.0	0.0	0.003	0.006	0.006	0.006	9.88266590270996	0.09995791931152344	0.05626373901367187	2.73895263671875	-3.4637451171875	-0.6256103515625	9.788693487548828	0.2753331909179687	0.13467384338378904	0.31280517578125	-4.9285888671875	-2.70843505859375	10.011952792358398	0.07541735229492187	-0.2771288421630859	3.753662109375	-4.73785400390625	-2.23541259765625	
78	0.312	0.0	0.0	0.0	0.0	0.006	0.003	0.003	0.006	9.879673150634765	0.07601590270996093	0.07422025146484375	2.498626708984375	-3.757476806640625	-0.83160400390625	9.785102185058593	0.24600422058105467	0.12689268798828124	0.17547607421875	-4.669189453125	-2.9296875	10.007762939453125	0.044292730712890624	-0.26276363220214843	3.536224365234375	-4.57000732421875	-2.17437744140625	
79	0.316	0.0	0.0	0.0	0.0	0.003	0.003	0.006	0.006	9.889249957275391	0.06284779357910156	0.08319850769042968	2.7008056640625	-3.368377685546875	-0.8087158203125	9.785102185058593	0.23702596435546874	0.14784195251464843	0.2288818359375	-4.974365234375	-2.765655517578125	10.003573086547851	0.033518823242187495	-0.2645592834472656	3.505706787109375	-4.5013427734375	-2.101898193359375	
80	0.32	0.0	0.0	0.0	0.0	0.006	0.003	0.006	0.003	9.888651406860351	0.06464344482421874	0.07481880187988281	2.593994140625	-3.5552978515625	-0.782012939453125	9.789292037963866	0.22026655273437498	0.1388636962890625	-0.06103515625	-4.69970703125	-2.78472900390625	10.011354241943359	0.02693476867675781	-0.2693476867675781	3.765106201171875	-4.673004150390625	-2.00653076171875	
81	0.324	0.0	0.0	0.0	0.0	0.003	0.003	0.003	0.006	9.87727894897461	0.037110125732421874	0.0909796630859375	2.38800048828125	-3.376007080078125	-0.919342041015625	9.78629928588867	0.19931728820800781	0.15861585998535155	0.209808349609375	-4.940032958984375	-2.864837646484375	10.011354241943359	0.007781155395507812	-0.23523031311035156	3.803253173828125	-4.6539306640625	-2.277374267578125	
82	0.328	0.0	0.0	0.0	0.0	0.006	0.003	0.006	0.003	9.879074600219726	0.028730419921875	0.09576806640624999	2.666473388671875	-3.536224365234375	-0.8697509765625	9.787496386718749	0.18854338073730467	0.17298106994628906	0.270843505859375	-4.940032958984375	-2.716064453125	10.007762939453125	-0.007781155395507812	-0.21607669982910155	3.643035888671875	-4.486083984375	-2.03704833984375	
83	0.332	0.0	0.0	0.0	0.0	0.003	0.006	0.006	0.006	9.882067352294921	0.017956512451171875	0.09636661682128905	2.567291259765625	-3.448486328125	-0.75531005859375	9.78629928588867	0.18315642700195311	0.17896657409667968	0.308990478515625	-4.82177734375	-2.796173095703125	10.00417163696289	-0.025139117431640625	-0.2166752502441406	3.7689208984375	-4.764556884765625	-1.922607421875	
84	0.336	0.0	0.0	0.0	0.0	0.003	0.003	0.003	0.003	9.884461553955077	-0.009576806640625	0.1005564697265625	2.44903564453125	-3.498077392578125	-0.682830810546875	9.78629928588867	0.16220716247558592	0.19572598571777342	0.0762939453125	-4.87518310546875	-2.9296875	10.003573086547851	-0.040102877807617184	-0.20470424194335937	3.551483154296875	-4.49371337890625	-2.227783203125	
85	0.34	0.0	0.0	0.0	0.0	0.0	0.003	0.003	0.006	9.883264453125	-0.01975216369628906	0.11731588134765625	2.498626708984375	-3.70025634765625	-0.7476806640625	9.782707983398437	0.15741875915527342	0.19632453613281248	0.240325927734375	-4.566192626953125	-2.727508544921875	10.007762939453125	-0.05805939025878906	-0.18734627990722655	3.54766845703125	-4.581451416015625	-2.349853515625	
86	0.34400000000000003	0.0	0.0	0.0	0.0	0.006	0.003	0.003	0.006	9.886855755615233	-0.025737667846679687	0.12150573425292968	2.689361572265625	-3.444671630859375	-0.87738037109375	9.788693487548828	0.15083470458984374	0.19931728820800781	0.492095947265625	-4.909515380859375	-3.009796142578125	10.002974536132811	-0.05985504150390625	-0.17836802368164062	3.56292724609375	-4.69207763671875	-2.094268798828125	
87	0.34800000000000003	0.0	0.0	0.0	0.0	0.006	0.003	0.006	0.003	9.889848507690429	-0.033518823242187495	0.11133037719726561	2.696990966796875	-3.658294677734375	-0.934600830078125	9.78689783630371	0.1352723937988281	0.19991583862304688	0.118255615234375	-4.302978515625	-2.83050537109375	10.002974536132811	-0.06643909606933593	-0.16759411621093748	3.7078857421875	-4.840850830078125	-2.285003662109375	
88	0.352	0.0	0.0	0.0	0.0	0.006	0.003	0.003	0.003	9.883264453125	-0.03950432739257812	0.11791443176269531	2.716064453125	-3.6163330078125	-0.904083251953125	9.783905084228515	0.12988544006347655	0.21308394775390624	0.202178955078125	-4.848480224609375	-2.78472900390625	10.012551342773437	-0.06284779357910156	-0.15203180541992187	3.498077392578125	-4.657745361328125	-2.166748046875	
89	0.356	0.0	0.0	0.0	0.0	0.006	0.003	0.006	0.003	9.885658654785155	-0.028131869506835935	0.11133037719726561	2.6702880859375	-3.570556640625	-0.789642333984375	9.779715231323241	0.15382745666503905	0.21188684692382811	0.087738037109375	-4.9896240234375	-2.81524658203125	9.993996279907225	-0.05686228942871093	-0.1849520782470703	3.85284423828125	-4.60052490234375	-2.3193359375	
90	0.36	0.0	0.0	0.0	0.0	0.006	0.006	0.006	0.003	9.888052856445311	-0.01915361328125	0.11192892761230468	2.61688232421875	-3.53240966796875	-0.69427490234375	9.788693487548828	0.15562310791015624	0.19333178405761717	0.202178955078125	-4.756927490234375	-2.73895263671875	10.001178884887695	-0.05985504150390625	-0.19093758239746092	3.719329833984375	-4.367828369140625	-1.94549560546875	
91	0.364	0.0	0.0	0.0	0.0	0.003	0.006	0.006	0.006	9.889249957275391	-0.02154781494140625	0.10953472595214843	2.66265869140625	-3.574371337890625	-0.83160400390625	9.787496386718749	0.15263035583496093	0.18255787658691405	0.301361083984375	-4.657745361328125	-2.838134765625	10.003573086547851	-0.05087678527832031	-0.1945288848876953	3.86810302734375	-4.680633544921875	-2.086639404296875	
92	0.368	0.0	0.0	0.0	0.0	0.009000000000000001	0.003	0.003	0.003	9.889249957275391	-0.013766659545898436	0.09995791931152344	2.666473388671875	-3.612518310546875	-0.8392333984375	9.78629928588867	0.17477672119140625	0.18375497741699218	0.38909912109375	-4.825592041015625	-2.948760986328125	10.000580334472655	-0.028131869506835935	-0.20949264526367187	3.8909912109375	-4.85992431640625	-2.15911865234375	
93	0.372	0.0	0.0	0.0	0.0	0.006	0.003	0.006	0.006	9.885658654785155	0.005985504150390624	0.09516951599121093	2.758026123046875	-3.47137451171875	-0.83160400390625	9.785700735473633	0.18734627990722655	0.17597382202148437	0.63323974609375	-4.8828125	-2.826690673828125	10.014945544433592	-0.022744915771484374	-0.22505495605468748	3.765106201171875	-4.673004150390625	-2.170562744140625	
94	0.376	0.0	0.0	0.0	0.0	0.006	0.006	0.006	0.003	9.884461553955077	0.023343466186523436	0.09038111267089843	2.513885498046875	-3.56292724609375	-0.823974609375	9.783905084228515	0.1897404815673828	0.17058686828613281	0.244140625	-4.6234130859375	-2.93731689453125	10.01674119567871	-0.015562310791015624	-0.24899697265624998	4.726409912109375	-4.642486572265625	-2.31170654296875	
95	0.38	0.0	0.0	0.0	0.0	0.003	0.003	0.003	0.003	9.878476049804688	0.033518823242187495	0.076614453125	2.6092529296875	-3.47900390625	-0.644683837890625	9.78629928588867	0.21128829650878905	0.15023615417480468	0.3204345703125	-5.008697509765625	-2.84576416015625	10.008361489868163	0.007781155395507812	-0.25438392639160157	3.5552978515625	-4.398345947265625	-2.1820068359375	
96	0.384	0.0	0.0	0.0	0.0	0.003	0.003	0.003	0.003	9.88386300354004	0.04608838195800781	0.07242460021972656	2.696990966796875	-3.513336181640625	-0.8544921875	9.796474642944336	0.23642741394042968	0.14724340209960937	0.30517578125	-4.9896240234375	-2.87628173828125	10.020931048583984	0.028730419921875	-0.24660277099609373	3.82232666015625	-4.7149658203125	-2.178192138671875	
97	0.388	0.0	0.0	0.0	0.0	0.003	0.006	0.003	0.006	9.885658654785155	0.05386953735351562	0.07422025146484375	2.74658203125	-3.509521484375	-0.659942626953125	9.787496386718749	0.24181436767578124	0.1406593475341797	0.438690185546875	-5.069732666015625	-3.04412841796875	10.005967288208007	0.02693476867675781	-0.25258827514648435	3.6468505859375	-4.82940673828125	-2.155303955078125	
98	0.392	0.0	0.0	0.0	0.0	0.0	0.003	0.003	0.006	9.881468801879882	0.04608838195800781	0.09995791931152344	2.655029296875	-3.173828125	-0.87738037109375	9.783905084228515	0.21068974609375	0.17417817077636719	0.293731689453125	-4.89044189453125	-2.895355224609375	10.005967288208007	0.022744915771484374	-0.26695348510742184	3.467559814453125	-4.76837158203125	-2.3193359375	
99	0.396	0.0	0.0	0.0	0.0	0.009000000000000001	0.003	0.006	0.006	9.89463691101074	0.08978256225585937	0.05087678527832031	2.28118896484375	-3.71551513671875	-0.980377197265625	9.804854348754882	0.25917232971191406	0.12150573425292968	0.255584716796875	-4.726409912109375	-2.83050537109375	10.046668716430663	0.0526724365234375	-0.3238157745361328	3.658294677734375	-4.657745361328125	-2.25067138671875	
100	0.4	0.0	0.0	0.0	0.0	0.006	0.003	0.006	0.006	9.867702142333984	0.09217676391601562	0.11671733093261719	2.64739990234375	-3.475189208984375	-0.804901123046875	9.771335525512695	0.32920272827148434	0.14724340209960937	0.179290771484375	-4.970550537109375	-2.7008056640625	10.000580334472655	0.10115502014160156	-0.23882161560058593	3.627777099609375	-4.61578369140625	-1.964569091796875	
101	0.404	0.0	0.0	0.0	0.0	0.009000000000000001	0.006	0.003	0.003	9.89583401184082	0.033518823242187495	0.05805939025878906	2.475738525390625	-3.65447998046875	-1.0528564453125	9.798868844604492	0.1640028137207031	0.11791443176269531	0.274658203125	-4.84466552734375	-2.788543701171875	10.049661468505859	-0.07122749938964844	-0.297479556274414	3.551483154296875	-4.6844482421875	-2.28118896484375	
102	0.40800000000000003	0.0	0.0	0.0	0.0	0.006	0.006	0.006	0.006	9.92217023010254	0.17357962036132812	0.027533319091796873	2.593994140625	-3.650665283203125	-0.728607177734375	9.791686239624022	0.39264907226562495	0.16460136413574217	0.1373291015625	-4.96673583984375	-2.979278564453125	10.014945544433592	0.1771709228515625	-0.23582886352539062	3.574371337890625	-4.486083984375	-2.346038818359375	
103	0.41200000000000003	0.0	0.0	0.0	0.0	0.003	0.006	0.003	0.006	9.889249957275391	0.10115502014160156	0.044891281127929686	2.506256103515625	-3.337860107421875	-1.041412353515625	9.79946739501953	0.25438392639160157	0.1406593475341797	0.0762939453125	-4.924774169921875	-2.674102783203125	10.037091909790039	0.02693476867675781	-0.30885201416015623	3.734588623046875	-4.791259765625	-2.223968505859375	
104	0.41600000000000004	0.0	0.0	0.0	0.0	0.006	0.003	0.006	0.003	9.928155734252929	0.17178396911621094	0.022146365356445312	2.727508544921875	-3.5552978515625	-0.705718994140625	9.783306533813477	0.31543606872558594	0.17178396911621094	0.34332275390625	-5.0048828125	-2.605438232421875	9.990404977416992	0.10474632263183593	-0.22445640563964842	3.60107421875	-4.817962646484375	-2.3651123046875	
105	0.42	0.0	0.0	0.0	0.0	0.003	0.003	0.006	0.006	9.910797772216796	0.13347674255371092	0.04668693237304687	3.108978271484375	-3.902435302734375	-0.49591064453125	9.819818109130859	0.23582886352539062	0.1322796417236328	0.423431396484375	-4.8065185546875	-2.956390380859375	10.09335564880371	0.023942016601562498	-0.33698388366699217	3.650665283203125	-4.749298095703125	-2.9296875	
106	0.424	0.0	0.0	0.0	0.0	0.006	0.003	0.003	0.003	9.94072529296875	0.26815058593749996	0.003591302490234375	2.66265869140625	-3.5400390625	-0.885009765625	9.764152920532226	0.43634325256347656	0.19512743530273435	0.28228759765625	-4.634857177734375	-2.78472900390625	9.97783541870117	0.2501940734863281	-0.2214636535644531	3.85284423828125	-4.69970703125	-1.941680908203125	
107	0.428	0.0	0.0	0.0	0.0	0.003	0.003	0.006	0.003	9.903016616821288	0.1304839904785156	0.04129997863769531	3.05938720703125	-3.79180908203125	-0.48828125	9.809642752075195	0.1484405029296875	0.1083376251220703	0.400543212890625	-4.688262939453125	-2.796173095703125	9.991003527832031	-0.025139117431640625	-0.2615665313720703	3.62396240234375	-4.878997802734375	-2.14385986328125	
108	0.432	0.0	0.0	0.0	0.0	0.006	0.006	0.003	0.003	9.956886154174803	0.2597708801269531	-0.0005985504150390625	2.727508544921875	-3.60870361328125	-0.995635986328125	9.773131176757811	0.4375403533935547	0.15562310791015624	0.354766845703125	-4.657745361328125	-2.96783447265625	10.034099157714843	0.22385785522460935	-0.22565350646972654	3.757476806640625	-4.75311279296875	-2.28118896484375	
109	0.436	0.0	0.0	0.0	0.0	0.006	0.003	0.003	0.003	9.907206469726562	0.18255787658691405	0.028131869506835935	3.337860107421875	-4.016876220703125	-0.2899169921875	9.815029705810547	0.2136824981689453	0.10414777221679687	0.32806396484375	-4.718780517578125	-2.7008056640625	10.018536846923828	0.04548983154296875	-0.2705447875976562	3.643035888671875	-4.634857177734375	-2.03704833984375	
110	0.44	0.0	0.0	0.0	0.0	0.006	0.006	0.006	0.003	9.852139831542969	0.16460136413574217	0.1149216796875	3.398895263671875	-3.753662109375	-0.4425048828125	9.759963067626952	0.4213794921875	0.15083470458984374	0.324249267578125	-4.840850830078125	-2.96783447265625	9.928754284667969	0.1580173095703125	-0.25438392639160157	3.59344482421875	-4.627227783203125	-2.323150634765625	
111	0.444	0.0	0.0	0.0	0.0	0.009000000000000001	0.006	0.006	0.003	9.897629663085937	0.1514332550048828	0.051475335693359374	3.345489501953125	-3.8299560546875	-0.537872314453125	9.776123928833007	0.25318682556152344	0.08200140686035155	0.42724609375	-5.05828857421875	-2.6702880859375	10.007762939453125	-0.004189852905273437	-0.2765302917480469	3.7841796875	-4.64630126953125	-2.02178955078125	
112	0.448	0.0	0.0	0.0	0.0	0.003	0.006	0.006	0.003	9.874286196899414	0.11432312927246092	0.12449848632812499	3.810882568359375	-4.1046142578125	-0.530242919921875	9.771335525512695	0.4471171600341797	0.14903905334472656	0.110626220703125	-4.604339599609375	-2.89154052734375	9.952097750854492	0.16819266662597654	-0.2705447875976562	3.971099853515625	-4.7149658203125	-2.452850341796875	
113	0.452	0.0	0.0	0.0	0.0	0.006	0.006	0.006	0.003	9.919177478027343	0.17776947326660156	0.017956512451171875	1.804351806640625	-3.253936767578125	-1.09100341796875	9.759364517211914	0.2346317626953125	0.06883329772949218	0.31280517578125	-4.924774169921875	-2.70843505859375	9.903016616821288	0.1484405029296875	-0.16220716247558592	3.734588623046875	-4.581451416015625	-2.025604248046875	
114	0.456	0.0	0.0	0.0	0.0	0.003	0.006	0.003	0.006	9.865307940673828	0.0909796630859375	0.12988544006347655	3.398895263671875	-3.986358642578125	-0.362396240234375	9.765948571777344	0.2980781066894531	0.16340426330566404	0.38909912109375	-4.730224609375	-3.0059814453125	9.923367330932617	0.13766659545898435	-0.22685060729980466	3.692626953125	-4.573822021484375	-2.4566650390625	
115	0.46	0.0	0.0	0.0	0.0	0.003	0.003	0.003	0.006	9.890447058105469	-0.054468087768554684	0.005985504150390624	2.040863037109375	-3.627777099609375	-0.843048095703125	9.778518130493163	0.17118541870117188	0.09816226806640624	0.293731689453125	-4.974365234375	-2.67791748046875	9.934739788818359	0.11611878051757812	-0.143652099609375	3.83758544921875	-4.67681884765625	-1.964569091796875	
116	0.464	0.0	0.0	0.0	0.0	0.006	0.006	0.003	0.003	9.881468801879882	0.05626373901367187	0.11731588134765625	3.6163330078125	-3.993988037109375	-0.385284423828125	9.749189160156249	0.2663549346923828	0.18255787658691405	0.141143798828125	-4.970550537109375	-3.04412841796875	9.90840357055664	0.12509703674316405	-0.23523031311035156	3.7384033203125	-4.482269287109375	-2.3040771484375	
117	0.468	0.0	0.0	0.0	0.0	0.003	0.003	0.003	0.003	9.861716638183593	-0.08319850769042968	0.027533319091796873	1.880645751953125	-3.398895263671875	-1.071929931640625	9.797073193359374	0.28909985046386716	0.1610100616455078	0.118255615234375	-4.833221435546875	-2.6092529296875	9.898826763916015	0.1304839904785156	-0.0939724151611328	3.574371337890625	-4.497528076171875	-2.132415771484375	
118	0.47200000000000003	0.0	0.0	0.0	0.0	0.003	0.006	0.006	0.003	9.830592016601562	-0.229843359375	-0.008978256225585938	1.77001953125	-3.063201904296875	-1.4495849609375	9.749787710571288	0.22385785522460935	0.19572598571777342	0.152587890625	-4.638671875	-3.1280517578125	10.056844073486328	-0.11731588134765625	-0.25318682556152344	3.62396240234375	-4.28009033203125	-2.269744873046875	
119	0.47600000000000003	0.0	0.0	0.0	0.0	0.003	0.006	0.003	0.006	9.872490545654296	-0.15502455749511718	0.017357962036132813	2.010345458984375	-3.353118896484375	-1.003265380859375	9.792284790039062	0.24660277099609373	0.14185644836425781	0.37384033203125	-5.054473876953125	-2.819061279296875	9.90122096557617	0.09516951599121093	-0.08978256225585937	3.589630126953125	-4.6234130859375	-1.926422119140625	
120	0.48	0.0	0.0	0.0	0.0	0.003	0.003	0.006	0.003	9.82580361328125	-0.2454056701660156	-0.0047884033203125	1.590728759765625	-3.124237060546875	-1.53350830078125	9.842563024902343	0.07302315063476562	0.09756371765136718	0.331878662109375	-4.6539306640625	-3.02886962890625	10.04906291809082	-0.14125789794921875	-0.2442085693359375	3.9215087890625	-4.619598388671875	-2.254486083984375	
121	0.484	0.0	0.0	0.0	0.0	0.003	0.003	0.006	0.006	9.85632968444824	-0.22565350646972654	0.03411737365722656	1.74713134765625	-3.414154052734375	-0.934600830078125	9.80066449584961	0.21787235107421873	0.14484920043945312	0.286102294921875	-5.06591796875	-2.67791748046875	10.079588989257813	0.11851298217773437	-0.15562310791015624	3.875732421875	-5.023956298828125	-2.033233642578125	
122	0.488	0.0	0.0	0.0	0.0	0.003	0.003	0.003	0.006	9.816825357055663	-0.3022679595947265	-0.013168109130859374	1.468658447265625	-3.055572509765625	-1.312255859375	9.864709390258788	0.055066638183593745	0.08678981018066406	0.629425048828125	-4.642486572265625	-3.0517578125	10.078391888427733	-0.16639701538085935	-0.2657563842773437	3.604888916015625	-4.44793701171875	-2.26593017578125	
123	0.492	0.0	0.0	0.0	0.0	0.006	0.003	0.006	0.006	9.842563024902343	0.14963760375976562	0.3178302703857422	2.18963623046875	-3.124237060546875	-0.766754150390625	9.739612353515625	0.3429693878173828	0.3890577697753906	0.23651123046875	-5.069732666015625	-2.552032470703125	10.08078609008789	0.1292868896484375	-0.18734627990722655	3.787994384765625	-4.688262939453125	-1.85394287109375	
124	0.496	0.0	0.0	0.0	0.0	-0.003	0.003	0.006	0.006	9.810241302490233	-0.34057518615722654	0.002992752075195312	1.644134521484375	-3.1280517578125	-1.529693603515625	9.855132583618163	0.05027823486328125	0.08080430603027343	0.705718994140625	-5.077362060546875	-3.131866455078125	10.135852728271484	-0.3585316986083984	-0.36631285400390623	3.73077392578125	-4.61578369140625	-2.349853515625	
125	0.5	0.0	0.0	0.0	0.0	-0.003	0.003	0.003	0.003	9.824007962036132	0.20350714111328125	0.3327940307617187	1.972198486328125	-3.1890869140625	-0.79345703125	9.759963067626952	0.3459621398925781	0.3848679168701172	0.316619873046875	-5.336761474609375	-2.46429443359375	10.078990438842773	0.14125789794921875	-0.19812018737792966	3.787994384765625	-4.459381103515625	-1.972198486328125	
126	0.504	0.0	0.0	0.0	0.0	0.006	0.006	0.003	0.003	9.821015209960937	-0.32920272827148434	-0.03172317199707031	2.197265625	-3.2806396484375	-0.99945068359375	9.855731134033203	0.06344634399414062	0.076614453125	0.518798828125	-4.932403564453125	-2.96783447265625	10.165780249023436	-0.34237083740234375	-0.40282442932128903	3.875732421875	-4.932403564453125	-2.25067138671875	
127	0.508	0.0	0.0	0.0	0.0	0.003	0.003	0.006	0.003	9.820416659545899	0.2597708801269531	0.34835634155273437	2.216339111328125	-3.28826904296875	-0.736236572265625	9.752780462646484	0.354940396118164	0.4070142822265625	0.244140625	-4.947662353515625	-2.7008056640625	10.077194787597655	0.13646949462890623	-0.2088940948486328	3.53240966796875	-4.528045654296875	-2.162933349609375	
128	0.512	0.0	0.0	0.0	0.0	0.003	0.003	0.003	0.003	9.925761532592773	0.02454056701660156	0.20470424194335937	2.185821533203125	-3.1280517578125	-0.9307861328125	9.91498762512207	-0.17178396911621094	0.028131869506835935	0.385284423828125	-4.7607421875	-3.04412841796875	10.179546908569336	-0.38247371520996093	-0.43574470214843747	3.681182861328125	-4.69207763671875	-2.09808349609375	
129	0.516	0.0	0.0	0.0	0.0	0.006	0.003	0.003	0.003	9.814431155395507	0.33099837951660155	0.3190273712158203	2.52532958984375	-3.5552978515625	-0.7476806640625	9.765948571777344	0.4112041351318359	0.39264907226562495	0.453948974609375	-4.78363037109375	-2.475738525390625	10.013748443603514	0.2699462371826172	-0.17238251953125	3.742218017578125	-4.90570068359375	-2.292633056640625	
130	0.52	0.0	0.0	0.0	0.0	0.003	0.003	0.003	0.003	9.919776028442381	0.044292730712890624	0.21487959899902342	2.044677734375	-3.261566162109375	-0.835418701171875	9.920374578857421	-0.18435352783203124	0.016759411621093748	0.690460205078125	-4.90570068359375	-2.93731689453125	10.178948358154296	-0.3705027069091797	-0.4465186096191406	3.6163330078125	-4.70733642578125	-1.983642578125	
131	0.524	0.0	0.0	0.0	0.0	0.006	0.003	0.003	0.003	9.95987890625	0.28311434631347654	-0.03172317199707031	3.292083740234375	-3.986358642578125	-0.797271728515625	9.712079034423828	0.4578910675048828	0.26755203552246093	0.141143798828125	-4.734039306640625	-2.872467041015625	9.994594830322265	0.28730419921875	-0.16460136413574217	3.665924072265625	-4.650115966796875	-2.13623046875	
132	0.528	0.0	0.0	0.0	0.0	0.009000000000000001	0.003	0.003	0.003	9.926958633422851	0.055066638183593745	0.17776947326660156	1.865386962890625	-3.253936767578125	-0.812530517578125	9.926360083007811	-0.17417817077636719	-0.010773907470703125	0.186920166015625	-4.75311279296875	-2.8533935546875	9.984419473266602	-0.11252747802734374	-0.2741360900878906	3.5858154296875	-4.962921142578125	-1.934051513671875	
133	0.532	0.0	0.0	0.0	0.0	0.0	0.003	0.006	0.003	9.95329485168457	0.2507926239013672	-0.0526724365234375	3.15093994140625	-3.986358642578125	-0.972747802734375	9.713276135253906	0.4908113403320312	0.26695348510742184	0.396728515625	-4.73785400390625	-2.994537353515625	9.986813674926758	0.3298012786865234	-0.17238251953125	3.688812255859375	-4.848480224609375	-2.315521240234375	
134	0.536	0.0	0.0	0.0	0.0	0.003	0.003	0.003	0.003	9.907206469726562	0.04189852905273437	0.1897404815673828	1.628875732421875	-3.139495849609375	-1.087188720703125	9.783905084228515	-0.037110125732421874	0.12090718383789062	0.00762939453125	-4.9591064453125	-2.765655517578125	9.96047745666504	-0.11552023010253906	-0.25737667846679685	3.459930419921875	-4.5928955078125	-1.880645751953125	
135	0.54	0.0	0.0	0.0	0.0	0.006	0.003	0.003	0.003	9.955090502929687	0.229843359375	-0.047285482788085934	3.18145751953125	-3.71551513671875	-0.873565673828125	9.725247143554688	0.5410895751953124	0.24361001892089842	0.2288818359375	-4.665374755859375	-2.86102294921875	9.873089096069336	0.1580173095703125	-0.22266075439453123	3.7078857421875	-4.5166015625	-2.651214599609375	
136	0.544	0.0	0.0	0.0	0.0	0.006	0.003	0.006	0.006	9.969455712890625	0.12629413757324218	-0.08798691101074219	3.307342529296875	-4.12750244140625	-0.156402587890625	9.807847100830077	-0.04129997863769531	0.10953472595214843	0.274658203125	-5.016326904296875	-2.414703369140625	9.980828170776366	-0.09995791931152344	-0.26815058593749996	3.612518310546875	-4.512786865234375	-2.02178955078125	
137	0.548	0.0	0.0	0.0	0.0	0.003	0.006	0.006	0.009000000000000001	9.93354268798828	0.2292448089599609	-0.023942016601562498	3.078460693359375	-3.948211669921875	-0.96893310546875	9.647435589599608	0.3962403747558593	0.2609679809570312	0.2593994140625	-4.917144775390625	-3.47900390625	9.859322436523437	0.13766659545898435	-0.21128829650878905	3.719329833984375	-4.467010498046875	-2.674102783203125	
138	0.552	0.0	0.0	0.0	0.0	0.003	0.003	0.006	0.006	9.983222372436522	0.16340426330566404	-0.11791443176269531	3.13568115234375	-4.40216064453125	-0.347137451171875	9.809044201660155	-0.02454056701660156	0.11073182678222655	0.244140625	-4.84466552734375	-2.750396728515625	9.993397729492187	-0.05327098693847656	-0.2771288421630859	3.99017333984375	-4.63104248046875	-1.888275146484375	
139	0.556	0.0	0.0	0.0	0.0	0.006	4.602	4.635	4.593	9.937732540893554	0.2507926239013672	-0.016759411621093748	4.764556884765625	-4.512786865234375	-0.1220703125	9.643844287109374	0.4632780212402344	0.26276363220214843	0.453948974609375	-4.69970703125	-3.353118896484375	9.872490545654296	0.20231004028320312	-0.22685060729980466	3.719329833984375	-4.512786865234375	-2.593994140625	
140	0.56	0.0	0.0	0.0	0.0	4.581	4.635	4.638	4.605	9.970054263305663	0.19213468322753904	-0.11133037719726561	3.387451171875	-4.0130615234375	-0.080108642578125	9.776722479248047	0.3435679382324219	0.025139117431640625	0.324249267578125	-5.11932373046875	-2.37274169921875	9.873687646484374	0.13347674255371092	-0.13587094421386717	3.559112548828125	-4.66156005859375	-1.743316650390625	
141	0.5640000000000001	0.0	0.0	0.0	0.0	4.605	4.638	4.641	4.593	9.934739788818359	-0.09337386474609374	0.028730419921875	4.6234130859375	-4.550933837890625	-0.308990478515625	9.642647186279296	0.488417138671875	0.2561795776367187	0.4119873046875	-4.810333251953125	-3.543853759765625	9.867702142333984	0.19871873779296872	-0.22266075439453123	3.620147705078125	-4.436492919921875	-2.658843994140625	
142	0.5680000000000001	0.0	0.0	0.0	0.0	4.599	4.641	4.641	4.575	9.983820922851562	0.24600422058105467	-0.14125789794921875	3.448486328125	-4.29534912109375	-0.186920166015625	9.76894132385254	0.4255693450927734	-0.020949264526367185	0.7171630859375	-5.138397216796875	-2.40325927734375	9.874884747314452	0.20051438903808594	-0.16041151123046873	3.77655029296875	-4.749298095703125	-1.77764892578125	
143	0.5720000000000001	0.0	0.0	0.0	0.0	4.6080000000000005	4.641	4.641	4.575	9.928754284667969	-0.08020575561523437	-0.0017956512451171875	5.016326904296875	-4.528045654296875	0.0	9.864709390258788	0.19871873779296872	0.005985504150390624	0.37384033203125	-4.673004150390625	-3.231048583984375	10.059836825561522	-0.2154781494140625	-0.364517202758789	3.875732421875	-4.5928955078125	-2.605438232421875	
144	0.5760000000000001	0.0	0.0	0.0	0.0	4.602	4.635	4.641	4.593	9.880870251464843	0.1466448516845703	0.2507926239013672	2.872467041015625	-3.696441650390625	-0.392913818359375	9.771934075927733	0.3764882110595703	-0.008379705810546874	0.38909912109375	-5.352020263671875	-2.437591552734375	9.88386300354004	0.14544775085449219	-0.1562216583251953	3.635406494140625	-4.6539306640625	-1.76239013671875	
145	0.58	0.0	0.0	0.0	0.0	4.599	4.641	4.644	4.599	9.949104998779296	-0.05985504150390625	-0.037708676147460936	5.0506591796875	-4.673004150390625	-0.11444091796875	9.880271701049804	0.20709844360351562	0.02154781494140625	0.3814697265625	-4.7149658203125	-3.185272216796875	10.085574493408203	-0.21128829650878905	-0.38307226562499996	3.71551513671875	-4.302978515625	-2.445220947265625	
146	0.584	0.0	0.0	0.0	0.0	4.602	4.644	4.641	4.593	9.867702142333984	0.1657984649658203	0.26276363220214843	2.960205078125	-3.940582275390625	-0.6866455078125	9.745597857666015	0.39863457641601563	0.047884033203124995	-0.0762939453125	-5.035400390625	-2.368927001953125	10.079588989257813	0.4129997863769531	-0.29867665710449215	3.734588623046875	-4.718780517578125	-1.65557861328125	
147	0.588	0.0	0.0	0.0	0.0	4.59	4.638	4.638	4.602	9.912593423461914	-0.08439560852050781	-0.04908113403320312	5.298614501953125	-4.619598388671875	-0.011444091796875	9.868300692749022	0.1657984649658203	0.03172317199707031	0.457763671875	-4.741668701171875	-3.231048583984375	10.089165795898436	-0.25318682556152344	-0.39983167724609375	3.704071044921875	-4.711151123046875	-2.51007080078125	
148	0.592	0.0	0.0	0.0	0.0	4.602	4.641	4.644	4.5840000000000005	9.848548529052733	0.12210428466796874	0.2741360900878906	2.696990966796875	-3.719329833984375	-0.888824462890625	9.79348189086914	0.5297171173095703	0.3573345977783203	-0.16021728515625	-5.031585693359375	-2.307891845703125	10.09395419921875	0.3800795135498047	-0.27892449340820313	3.6468505859375	-4.817962646484375	-1.857757568359375	
149	0.596	0.0	0.0	0.0	0.0	4.602	4.644	4.644	4.572	9.813234054565429	-0.1083376251220703	-0.017357962036132813	0.396728515625	-2.38800048828125	-1.9989013671875	9.868899243164062	0.24361001892089842	0.03591302490234375	0.324249267578125	-4.810333251953125	-3.02886962890625	10.103531005859374	-0.19033903198242186	-0.4291606475830078	3.71551513671875	-4.795074462890625	-2.330780029296875	
150	0.6	0.0	0.0	0.0	0.0	4.605	4.638	4.641	4.575	9.83897172241211	0.12689268798828124	0.31064766540527344	2.300262451171875	-3.3416748046875	-0.812530517578125	9.791686239624022	0.5446808776855468	0.33698388366699217	0.026702880859375	-5.207061767578125	-2.140045166015625	10.059836825561522	0.4177881896972656	-0.23343466186523437	3.7078857421875	-4.932403564453125	-1.789093017578125	
151	0.604	0.0	0.0	0.0	0.0	4.599	4.635	4.641	4.593	9.835380419921874	-0.2184709014892578	0.032920272827148434	0.26702880859375	-2.384185791015625	-2.117156982421875	9.97783541870117	-0.30346506042480464	-0.12629413757324218	0.431060791015625	-4.852294921875	-3.025054931640625	10.198101971435547	-0.3812766143798828	-0.39803602600097654	3.82232666015625	-4.7149658203125	-2.26593017578125	
152	0.608	0.0	0.0	0.0	0.0	4.605	4.641	4.644	4.593	9.840767373657226	0.1149216796875	0.3076549133300781	0.728607177734375	-3.803253173828125	-0.83160400390625	9.801263046264648	0.5572504364013672	0.32501287536621093	0.0762939453125	-5.3863525390625	-2.490997314453125	10.078391888427733	0.4722562774658203	-0.2214636535644531	3.631591796875	-4.711151123046875	-1.575469970703125	
153	0.612	0.0	0.0	0.0	0.0	4.596	4.641	4.641	4.596	9.846154327392577	-0.20171148986816406	0.047285482788085934	-0.041961669921875	-2.0599365234375	-1.97601318359375	9.973047015380859	-0.239420166015625	-0.11671733093261719	0.080108642578125	-4.825592041015625	-2.89154052734375	10.189722265624999	-0.2962824554443359	-0.39444472351074217	3.818511962890625	-4.669189453125	-2.12860107421875	
154	0.616	0.0	0.0	0.0	0.0	4.59	4.641	4.635	4.599	9.75517466430664	0.3573345977783203	0.08379705810546874	0.98419189453125	-2.532958984375	-1.64031982421875	9.634267480468749	0.5207388610839844	0.37888241271972656	0.32806396484375	-4.81414794921875	-2.758026123046875	9.944915145874022	0.39324762268066404	-0.07362170104980469	3.711700439453125	-4.52423095703125	-2.552032470703125	
155	0.62	0.0	0.0	0.0	0.0	4.599	4.641	4.638	4.5840000000000005	9.882067352294921	-0.11791443176269531	0.04668693237304687	0.408172607421875	-2.6092529296875	-1.953125	10.01674119567871	-0.373495458984375	-0.1304839904785156	0.70953369140625	-5.1727294921875	-3.223419189453125	10.244788903808594	-0.42975919799804685	-0.3908534210205078	3.7841796875	-4.47845458984375	-2.54058837890625	
156	0.624	0.0	0.0	0.0	0.0	4.605	4.644	4.641	4.572	9.803058697509766	0.08140285644531249	0.06344634399414062	0.957489013671875	-2.841949462890625	-1.6021728515625	9.64683703918457	0.70868369140625	0.37768531188964843	0.457763671875	-4.82177734375	-2.81524658203125	9.97184991455078	0.5584475372314452	-0.07900865478515624	3.73077392578125	-4.894256591796875	-2.4566650390625	
157	0.628	0.0	0.0	0.0	0.0	4.602	4.641	4.641	4.581	9.976039767456054	0.29927520751953124	0.09696516723632811	2.521514892578125	-3.551483154296875	-0.63323974609375	9.811438403320311	-0.010175357055664061	0.21248539733886718	0.331878662109375	-5.084991455078125	-2.750396728515625	9.956886154174803	-0.0017956512451171875	-0.16280571289062498	3.7078857421875	-4.6539306640625	-1.8768310546875	
158	0.632	0.0	0.0	0.0	0.0	4.605	4.632	4.641	4.593	9.808445651245117	0.21428104858398436	0.029927520751953124	1.5869140625	-2.96783447265625	-1.445770263671875	9.656413845825195	0.4129997863769531	0.3711012573242187	0.392913818359375	-4.848480224609375	-2.57110595703125	9.983820922851562	0.33518823242187495	-0.08738836059570312	3.559112548828125	-4.817962646484375	-2.201080322265625	
159	0.636	0.0	0.0	0.0	0.0	4.602	4.641	4.644	4.599	9.943718045043944	-0.009576806640625	0.11073182678222655	2.162933349609375	-3.459930419921875	-0.732421875	9.888052856445311	-0.4375403533935547	0.16759411621093748	0.30517578125	-4.863739013671875	-2.83050537109375	10.047267266845703	-0.4034229797363281	-0.21068974609375	3.528594970703125	-4.73785400390625	-2.288818359375	
160	0.64	0.0	0.0	0.0	0.0	4.599	4.641	4.641	4.596	9.782707983398437	0.061650692749023434	0.05087678527832031	0.606536865234375	-2.73895263671875	-1.71661376953125	9.613916766357422	0.5919663604736328	0.39803602600097654	0.518798828125	-4.669189453125	-3.60870361328125	9.94730934753418	0.5380968231201172	-0.02693476867675781	3.810882568359375	-4.505157470703125	-3.047943115234375	
161	0.644	0.0	0.0	0.0	0.0	4.59	4.641	4.635	4.602	9.932345587158203	0.13766659545898435	0.12150573425292968	1.64031982421875	-3.116607666015625	-0.896453857421875	9.852139831542969	-0.1406593475341797	0.14963760375976562	0.3204345703125	-4.791259765625	-2.475738525390625	9.968258612060547	-0.040701428222656245	-0.19812018737792966	3.631591796875	-4.87518310546875	-1.7852783203125	
162	0.648	0.0	0.0	0.0	0.0	4.602	4.641	4.644	4.578	9.925162982177733	0.20649989318847656	0.16460136413574217	4.17327880859375	-3.8909912109375	0.034332275390625	9.667786303710937	0.5225345123291015	0.364517202758789	0.896453857421875	-4.573822021484375	-3.34930419921875	9.803058697509766	-0.008379705810546874	-0.059256491088867186	3.66973876953125	-4.44793701171875	-2.5177001953125	
163	0.652	0.0	0.0	0.0	0.0	4.6080000000000005	4.644	4.641	4.572	9.943119494628906	0.2166752502441406	0.10953472595214843	2.742767333984375	-3.620147705078125	-0.5950927734375	9.746196408081055	0.10235212097167969	0.1197100830078125	0.48828125	-5.19561767578125	-2.925872802734375	10.040683212280273	-0.3082534637451172	-0.23223756103515625	3.51715087890625	-4.680633544921875	-2.28118896484375	
164	0.656	0.0	0.0	0.0	0.0	4.605	4.638	4.641	4.5840000000000005	9.920973129272461	0.12030863342285156	0.16160861206054686	4.070281982421875	-4.253387451171875	-0.1983642578125	9.618705169677733	0.7499836700439453	0.40402153015136716	0.55694580078125	-4.734039306640625	-3.589630126953125	9.769539874267577	0.17477672119140625	-0.04608838195800781	3.658294677734375	-4.390716552734375	-2.55584716796875	
165	0.66	0.0	0.0	0.0	0.0	4.602	4.6290000000000004	4.641	4.587	9.945513696289062	0.16639701538085935	0.12808978881835936	2.166748046875	-3.444671630859375	-0.522613525390625	9.680355862426758	0.4177881896972656	0.14245499877929688	0.20599365234375	-4.802703857421875	-2.300262451171875	9.821613760375977	0.04189852905273437	-0.11671733093261719	3.658294677734375	-4.53948974609375	-1.73187255859375	
166	0.664	0.0	0.0	0.0	0.0	4.599	4.641	4.644	4.596	9.938331091308592	0.2549824768066406	0.1562216583251953	4.688262939453125	-4.5166015625	0.095367431640625	9.791686239624022	0.02454056701660156	0.12868833923339842	0.186920166015625	-4.69207763671875	-3.002166748046875	9.804255798339844	0.002992752075195312	-0.047285482788085934	3.864288330078125	-4.421234130859375	-2.78472900390625	
167	0.668	0.0	0.0	0.0	0.0	4.596	4.641	4.641	4.602	9.919776028442381	-0.181959326171875	-0.07122749938964844	3.986358642578125	-4.291534423828125	-0.23651123046875	9.740210903930663	0.03651157531738281	0.13646949462890623	0.164031982421875	-4.7607421875	-2.34222412109375	9.85752678527832	0.21727380065917967	-0.09038111267089843	3.7689208984375	-4.917144775390625	-1.934051513671875	
168	0.672	0.0	0.0	0.0	0.0	4.602	4.641	4.635	4.602	9.928754284667969	0.09995791931152344	0.1388636962890625	4.21905517578125	-4.238128662109375	-0.02288818359375	9.745597857666015	0.229843359375	0.16220716247558592	0.26702880859375	-4.680633544921875	-3.246307373046875	10.028113653564452	-0.32441432495117184	-0.37409400939941406	3.8299560546875	-4.5623779296875	-2.5482177734375	
169	0.676	0.0	0.0	0.0	0.0	4.602	4.644	4.644	4.578	9.923965881347655	-0.020350714111328123	-0.05327098693847656	4.123687744140625	-4.367828369140625	-0.209808349609375	9.734823950195311	-0.017357962036132813	0.1370680450439453	0.1678466796875	-5.16510009765625	-2.47955322265625	9.826402163696288	0.3220201232910156	-0.08379705810546874	3.7078857421875	-4.69970703125	-1.949310302734375	
170	0.68	0.0	0.0	0.0	0.0	4.6080000000000005	4.641	4.641	4.569	10.02392380065918	-0.15023615417480468	-0.04249707946777344	4.329681396484375	-4.2724609375	-0.26702880859375	9.74799205932617	0.28311434631347654	0.14963760375976562	0.2899169921875	-4.901885986328125	-2.979278564453125	10.108319409179687	-0.42796354675292964	-0.4578910675048828	3.875732421875	-4.428863525390625	-2.34222412109375	
171	0.684	0.0	0.0	0.0	0.0	4.602	4.635	4.641	4.587	9.928754284667969	-0.14784195251464843	-0.034715924072265626	3.99017333984375	-4.383087158203125	-0.1220703125	9.816226806640625	0.029328970336914062	0.17298106994628906	0.1983642578125	-4.970550537109375	-2.410888671875	9.90122096557617	0.3399766357421875	-0.26695348510742184	3.604888916015625	-4.67681884765625	-2.0751953125	
172	0.6880000000000001	0.0	0.0	0.0	0.0	4.605	4.644	4.644	4.593	9.858723886108399	-0.054468087768554684	-0.022146365356445312	3.658294677734375	-4.138946533203125	-0.1220703125	9.707290631103515	0.2765302917480469	0.19153613281249998	0.057220458984375	-4.657745361328125	-2.86102294921875	10.064026678466796	-0.3842693664550781	-0.4471171600341797	3.814697265625	-4.642486572265625	-2.231597900390625	
173	0.6920000000000001	0.0	0.0	0.0	0.0	4.599	4.641	4.641	4.599	9.950302099609374	-0.07781155395507812	-0.051475335693359374	4.37164306640625	-4.604339599609375	0.06866455078125	9.837176071166992	0.040701428222656245	0.16819266662597654	0.301361083984375	-4.90570068359375	-2.468109130859375	10.08737014465332	0.2555810272216797	-0.2663549346923828	3.7994384765625	-4.840850830078125	-2.254486083984375	
174	0.6960000000000001	0.0	0.0	0.0	0.0	4.593	4.638	4.638	4.605	9.83777462158203	-0.06045359191894531	-0.03531447448730469	3.936767578125	-4.245758056640625	-0.644683837890625	9.95389340209961	0.2609679809570312	-0.10414777221679687	0.823974609375	-4.8675537109375	-2.803802490234375	10.075997686767577	-0.34057518615722654	-0.4638765716552734	3.582000732421875	-4.6539306640625	-2.05230712890625	
175	0.7000000000000001	0.0	0.0	0.0	0.0	4.605	4.641	4.644	4.59	9.645041387939452	-0.07481880187988281	0.33698388366699217	1.491546630859375	-2.78472900390625	-1.430511474609375	9.78629928588867	0.15741875915527342	0.16819266662597654	0.255584716796875	-5.161285400390625	-2.31170654296875	10.021529598999022	0.2346317626953125	-0.2603694305419922	3.711700439453125	-4.6234130859375	-2.28118896484375	
176	0.704	0.0	0.0	0.0	0.0	4.599	4.644	4.644	4.572	9.823409411621093	-0.19393033447265623	-0.055066638183593745	2.54058837890625	-3.475189208984375	-0.789642333984375	9.943119494628906	0.24480711975097655	-0.10175357055664062	0.576019287109375	-4.489898681640625	-2.66265869140625	10.247781655883788	-0.033518823242187495	-0.469862075805664	3.7689208984375	-4.688262939453125	-1.880645751953125	
177	0.708	0.0	0.0	0.0	0.0	4.605	4.644	4.641	4.575	9.6779616607666	0.14006079711914063	0.30526071166992186	1.659393310546875	-3.047943115234375	-1.369476318359375	9.731232647705077	0.3812766143798828	0.3142389678955078	0.209808349609375	-4.791259765625	-2.40325927734375	10.083180291748047	0.18555062866210936	-0.3142389678955078	3.662109375	-4.611968994140625	-2.3040771484375	
178	0.712	0.0	0.0	0.0	0.0	4.599	4.635	4.641	4.596	9.861716638183593	-0.008379705810546874	-0.09217676391601562	3.692626953125	-3.74603271484375	-0.86212158203125	9.923367330932617	0.3082534637451172	-0.11911153259277343	1.06048583984375	-4.85992431640625	-2.8839111328125	10.226832391357421	0.07781155395507812	-0.4782417816162109	3.92913818359375	-4.665374755859375	-1.857757568359375	
179	0.716	0.0	0.0	0.0	0.0	4.599	4.641	4.644	4.599	9.655216744995117	0.15861585998535155	0.3238157745361328	1.65557861328125	-3.322601318359375	-1.27410888671875	9.725247143554688	0.4327519500732422	0.3172317199707031	0.270843505859375	-5.191802978515625	-2.67791748046875	9.973047015380859	0.029328970336914062	-0.0939724151611328	3.5400390625	-4.64630126953125	-2.498626708984375	
180	0.72	0.0	0.0	0.0	0.0	4.602	4.644	4.641	4.593	9.87608184814453	0.076614453125	0.05386953735351562	-0.972747802734375	-1.804351806640625	-2.338409423828125	9.944915145874022	0.21068974609375	-0.027533319091796873	0.644683837890625	-4.98199462890625	-3.116607666015625	10.23401499633789	0.0909796630859375	-0.46148236999511716	3.66973876953125	-4.543304443359375	-1.861572265625	
181	0.724	0.0	0.0	0.0	0.0	4.587	4.641	4.638	4.605	9.640851535034178	0.15382745666503905	0.3393780853271484	1.35040283203125	-2.98309326171875	-1.3427734375	9.726444244384766	0.39264907226562495	0.3190273712158203	0.156402587890625	-4.993438720703125	-2.780914306640625	9.986813674926758	0.04189852905273437	-0.12569558715820311	3.528594970703125	-4.5166015625	-2.532958984375	
182	0.728	0.0	0.0	0.0	0.0	4.605	4.641	4.644	4.59	9.886855755615233	0.16160861206054686	0.09576806640624999	-0.96893310546875	-1.575469970703125	-2.124786376953125	9.926958633422851	0.2537853759765625	0.02633621826171875	0.3662109375	-4.8980712890625	-2.857208251953125	10.050858569335936	0.2867056488037109	-0.34117373657226563	3.48663330078125	-4.779815673828125	-2.140045166015625	
183	0.732	0.0	0.0	0.0	0.0	0.003	0.006	0.003	0.003	9.6396544342041	0.0053869537353515625	0.3633201019287109	1.804351806640625	-3.070831298828125	-1.354217529296875	9.718663088989258	0.4082113830566406	0.2561795776367187	0.133514404296875	-4.772186279296875	-2.910614013671875	9.98501802368164	0.012569558715820313	-0.0430956298828125	3.4637451171875	-4.6234130859375	-2.544403076171875	
184	0.736	0.0	0.0	0.0	0.0	0.009000000000000001	0.003	0.006	0.003	9.919776028442381	0.1801636749267578	0.10714052429199218	-0.762939453125	-1.80816650390625	-1.983642578125	9.931148486328125	0.258573779296875	0.04668693237304687	0.644683837890625	-4.7760009765625	-3.1585693359375	10.047865817260742	0.23223756103515625	-0.30526071166992186	3.63922119140625	-4.825592041015625	-1.953125	
185	0.74	0.0	0.0	0.0	0.0	0.003	0.003	0.003	0.003	10.000580334472655	0.3603273498535156	0.058657940673828124	2.17437744140625	-3.570556640625	-1.003265380859375	9.692925421142577	0.4010287780761719	0.2693476867675781	0.091552734375	-4.772186279296875	-3.21197509765625	9.961076007080077	0.037110125732421874	-0.0047884033203125	3.856658935546875	-4.932403564453125	-2.315521240234375	
186	0.744	0.0	0.0	0.0	0.0	0.0	0.003	0.003	0.009000000000000001	9.944316595458984	0.24001871643066405	0.1292868896484375	-0.02288818359375	-2.147674560546875	-1.70135498046875	9.765350021362304	0.12569558715820311	0.22086510314941404	0.019073486328125	-4.92095947265625	-2.925872802734375	10.060435375976562	0.17657237243652343	-0.27832594299316404	3.627777099609375	-4.84466552734375	-1.89971923828125	
187	0.748	0.0	0.0	0.0	0.0	0.003	0.003	0.003	0.003	10.006565838623047	0.296881005859375	0.029328970336914062	2.643585205078125	-3.42559814453125	-0.858306884765625	9.692925421142577	0.38786066894531246	0.26755203552246093	0.423431396484375	-4.76837158203125	-2.857208251953125	9.777919580078125	-0.05805939025878906	-0.040102877807617184	4.062652587890625	-4.69970703125	-2.262115478515625	
188	0.752	0.0	0.0	0.0	0.0	0.003	0.003	0.003	0.003	10.016142645263672	0.2753331909179687	0.003591302490234375	4.92095947265625	-4.76837158203125	0.2593994140625	9.718064538574218	0.12509703674316405	0.24839842224121092	0.202178955078125	-5.0506591796875	-2.849578857421875	10.026318002319336	0.14604630126953125	-0.27892449340820313	3.536224365234375	-5.046844482421875	-1.9989013671875	
189	0.756	0.0	0.0	0.0	0.0	0.003	0.006	0.006	0.003	9.995791931152343	0.27952304382324217	0.025139117431640625	2.63214111328125	-3.48663330078125	-0.583648681640625	9.724050042724608	0.3711012573242187	0.26755203552246093	0.2288818359375	-4.711151123046875	-3.0364990234375	9.824007962036132	-0.04249707946777344	-0.07721300354003906	3.772735595703125	-4.444122314453125	-2.346038818359375	
190	0.76	0.0	0.0	0.0	0.0	0.006	0.006	0.003	0.003	10.014945544433592	0.21009119567871093	-0.05566518859863281	5.31005859375	-5.05828857421875	0.217437744140625	9.75517466430664	0.12330138549804687	0.26755203552246093	0.034332275390625	-4.852294921875	-2.979278564453125	9.823409411621093	0.08499415893554688	-0.02454056701660156	3.88336181640625	-4.5013427734375	-2.37274169921875	
191	0.764	0.0	0.0	0.0	0.0	0.0	0.003	0.003	0.003	9.974842666625976	0.13587094421386717	0.011971008300781249	2.719879150390625	-3.475189208984375	-0.797271728515625	9.661800799560547	0.2454056701660156	0.2501940734863281	0.202178955078125	-4.627227783203125	-2.7923583984375	9.7683427734375	-0.04129997863769531	-0.016759411621093748	3.795623779296875	-4.63104248046875	-2.4566650390625	
192	0.768	0.0	0.0	0.0	0.0	0.0	0.003	0.003	0.003	9.994594830322265	0.3477577911376953	-0.06703764648437499	5.2337646484375	-5.22613525390625	0.48828125	9.73661960144043	0.1640028137207031	0.27293898925781246	0.00762939453125	-4.78363037109375	-2.933502197265625	9.789890588378906	0.09816226806640624	-0.022146365356445312	3.692626953125	-4.486083984375	-2.44140625	
193	0.772	0.0	0.0	0.0	0.0	0.003	0.003	0.006	0.003	9.961076007080077	-0.11133037719726561	0.09516951599121093	5.21087646484375	-4.69207763671875	0.583648681640625	9.70369932861328	0.23223756103515625	0.2166752502441406	0.118255615234375	-4.81414794921875	-2.98309326171875	10.071209283447265	0.052073886108398436	-0.3477577911376953	3.84521484375	-4.45556640625	-1.94549560546875	
194	0.776	0.0	0.0	0.0	0.0	0.006	0.006	0.006	0.003	10.011354241943359	0.22206220397949217	-0.1304839904785156	5.30242919921875	-4.970550537109375	0.11444091796875	9.788693487548828	0.14544775085449219	0.10654197387695312	0.377655029296875	-5.0506591796875	-2.658843994140625	9.83897172241211	-0.023343466186523436	-0.08379705810546874	3.582000732421875	-4.4097900390625	-2.40325927734375	
195	0.78	0.0	0.0	0.0	0.0	0.006	0.003	0.003	0.003	9.92217023010254	-0.06404489440917968	0.09995791931152344	5.046844482421875	-4.69207763671875	0.263214111328125	9.641450085449218	0.2861070983886719	0.22026655273437498	0.072479248046875	-4.589080810546875	-3.276824951171875	9.983222372436522	0.09576806640624999	-0.35673604736328124	3.72314453125	-4.2877197265625	-2.1209716796875	
196	0.784	0.0	0.0	0.0	0.0	0.003	0.003	0.003	0.003	10.041281762695311	0.16160861206054686	-0.15562310791015624	3.0364990234375	-3.936767578125	-0.84686279296875	9.784503634643555	0.1352723937988281	0.09576806640624999	0.19073486328125	-4.6844482421875	-2.50244140625	9.829394915771484	-0.03950432739257812	-0.05626373901367187	3.5247802734375	-4.673004150390625	-2.12860107421875	
197	0.788	0.0	0.0	0.0	0.0	0.003	0.003	0.003	0.006	9.909600671386718	-0.1304839904785156	0.044891281127929686	4.909515380859375	-4.581451416015625	0.1983642578125	9.951499200439452	0.1753752716064453	-0.06763619689941405	0.728607177734375	-5.01251220703125	-2.788543701171875	10.115502014160155	0.029927520751953124	-0.3806780639648437	3.82232666015625	-4.37164306640625	-2.227783203125	
198	0.792	0.0	0.0	0.0	0.0	0.006	0.006	0.003	0.003	9.764751470947266	-0.46028526916503903	0.2507926239013672	1.93023681640625	-3.231048583984375	-1.155853271484375	9.727641345214844	0.15741875915527342	0.1370680450439453	0.20599365234375	-4.985809326171875	-2.582550048828125	10.034099157714843	-0.05805939025878906	-0.24061726684570311	3.528594970703125	-4.795074462890625	-2.0751953125	
199	0.796	0.0	0.0	0.0	0.0	0.003	0.006	0.006	0.003	9.881468801879882	-0.07481880187988281	0.034715924072265626	4.20379638671875	-4.543304443359375	0.179290771484375	9.886257205200195	0.2346317626953125	-0.023942016601562498	0.469207763671875	-5.046844482421875	-2.50244140625	10.032303506469725	0.13646949462890623	-0.3495534423828125	3.704071044921875	-4.421234130859375	-2.13623046875	
200	0.8	0.0	0.0	0.0	0.0	0.006	0.003	0.006	0.006	9.794678991699218	-0.36750995483398435	0.2561795776367187	2.475738525390625	-3.322601318359375	-1.026153564453125	9.865307940673828	0.2549824768066406	0.27293898925781246	0.09918212890625	-4.825592041015625	-2.5634765625	10.193313568115233	-0.10115502014160156	-0.2645592834472656	3.6773681640625	-4.810333251953125	-2.079010009765625	
201	0.804	0.0	0.0	0.0	0.0	0.003	0.003	0.006	0.006	9.849745629882811	-0.09337386474609374	-0.05386953735351562	-0.84686279296875	-1.93023681640625	-2.1209716796875	9.85692823486328	0.15442600708007811	0.018555062866210937	0.42724609375	-4.96673583984375	-2.57110595703125	10.272920773315429	-0.09995791931152344	-0.5129577056884765	3.742218017578125	-4.73785400390625	-2.4261474609375	
202	0.808	0.0	0.0	0.0	0.0	0.006	0.003	0.003	0.003	9.69112976989746	-0.23642741394042968	0.23702596435546874	1.57928466796875	-3.22723388671875	-1.3885498046875	9.7683427734375	0.3447650390625	0.26874913635253905	0.37384033203125	-5.035400390625	-2.460479736328125	9.968258612060547	0.062249243164062495	-0.22685060729980466	3.7994384765625	-4.5166015625	-1.76239013671875	
203	0.812	0.0	0.0	0.0	0.0	0.003	0.003	0.006	0.006	9.849745629882811	-0.28730419921875	0.006584054565429687	-1.2359619140625	-1.628875732421875	-2.475738525390625	9.923965881347655	0.14125789794921875	0.10175357055664062	0.9002685546875	-5.07354736328125	-2.9754638671875	10.320206256103514	-0.11671733093261719	-0.5231330627441406	3.48663330078125	-4.673004150390625	-2.3040771484375	
204	0.8160000000000001	0.0	0.0	0.0	0.0	0.003	0.003	0.006	0.006	9.712079034423828	-0.5291185668945312	0.29867665710449215	0.698089599609375	-2.64739990234375	-1.476287841796875	9.828197814941406	0.2759317413330078	0.2902969512939453	0.240325927734375	-4.92095947265625	-2.941131591796875	10.111312161254883	0.040701428222656245	-0.008978256225585938	3.643035888671875	-4.60052490234375	-2.08282470703125	
205	0.8200000000000001	0.0	0.0	0.0	0.0	0.009000000000000001	0.003	0.006	0.003	9.859322436523437	0.32082302246093747	0.058657940673828124	-0.9307861328125	-1.74713134765625	-2.452850341796875	9.85692823486328	0.22086510314941404	-0.028131869506835935	0.537872314453125	-4.73785400390625	-3.139495849609375	10.159794744873047	0.05327098693847656	-0.5931634613037109	3.77655029296875	-4.60052490234375	-2.4261474609375	
206	0.8240000000000001	0.0	0.0	0.0	0.0	0.0	0.006	0.003	0.003	9.733626849365233	0.18734627990722655	0.3136404174804687	1.16729736328125	-2.90679931640625	-1.7242431640625	9.725845693969726	0.4944026428222656	0.2693476867675781	0.461578369140625	-5.146026611328125	-3.0517578125	9.991003527832031	0.21487959899902342	0.011372457885742187	3.79180908203125	-4.6539306640625	-1.827239990234375	
207	0.8280000000000001	0.0	0.0	0.0	0.0	0.006	0.003	0.003	0.003	9.932345587158203	-0.14544775085449219	0.04249707946777344	-1.48773193359375	-1.59454345703125	-2.117156982421875	9.93354268798828	0.08678981018066406	0.05087678527832031	0.568389892578125	-4.87518310546875	-3.34930419921875	10.346542474365235	-0.21248539733886718	-0.5291185668945312	3.4942626953125	-4.84466552734375	-2.437591552734375	
208	0.8320000000000001	0.0	0.0	0.0	0.0	0.009000000000000001	0.003	0.006	0.003	9.847351428222655	0.7062894897460937	0.19393033447265623	2.269744873046875	-2.92205810546875	-1.056671142578125	9.753977563476562	0.4686649749755859	0.17238251953125	0.743865966796875	-4.49371337890625	-2.986907958984375	9.964667309570311	0.25438392639160157	-0.04668693237304687	3.704071044921875	-4.596710205078125	-2.094268798828125	
209	0.836	0.0	0.0	0.0	0.0	0.003	0.006	0.003	0.003	9.893439810180663	0.3705027069091797	0.22505495605468748	4.932403564453125	-4.78363037109375	0.29754638671875	9.82460651245117	0.29568390502929687	0.14903905334472656	-0.02288818359375	-4.825592041015625	-2.8839111328125	9.885658654785155	-0.04369418029785156	-0.3298012786865234	3.570556640625	-4.55474853515625	-2.1820068359375	
210	0.84	0.0	0.0	0.0	0.0	0.003	0.006	0.006	0.003	9.955090502929687	0.19512743530273435	0.17896657409667968	2.14385986328125	-3.51715087890625	-1.300811767578125	9.871891995239258	0.33518823242187495	0.18555062866210936	0.179290771484375	-4.730224609375	-3.223419189453125	10.203488925170898	0.09157821350097656	-0.12150573425292968	3.650665283203125	-4.75311279296875	-2.25067138671875	
211	0.844	0.0	0.0	0.0	0.0	0.003	0.006	0.003	0.003	10.168174450683592	0.6500257507324219	-0.20649989318847656	6.229400634765625	-5.535125732421875	0.55694580078125	9.750984811401366	0.08439560852050781	0.22385785522460935	-0.164031982421875	-4.96673583984375	-3.05938720703125	10.027515103149414	-0.14724340209960937	-0.4752490295410156	3.5400390625	-4.75311279296875	-2.285003662109375	
212	0.848	0.0	0.0	0.0	0.0	0.006	0.006	0.003	0.006	9.950900650024414	0.8780734588623046	0.16160861206054686	4.32586669921875	-4.3487548828125	-0.560760498046875	9.6917283203125	0.5327098693847656	0.2885013000488281	0.0	-4.57763671875	-2.78472900390625	9.638457333374022	0.3220201232910156	-0.04129997863769531	3.643035888671875	-4.116058349609375	-2.429962158203125	
213	0.852	0.0	0.0	0.0	0.0	0.003	0.003	0.003	0.006	10.05564697265625	-0.03890577697753906	-0.1370680450439453	6.1492919921875	-5.60760498046875	0.843048095703125	9.809044201660155	0.022146365356445312	0.24660277099609373	-0.19073486328125	-5.06591796875	-2.925872802734375	10.066420880126952	-0.20530279235839843	-0.42317514343261714	3.72314453125	-4.8675537109375	-2.15911865234375	
214	0.856	0.0	0.0	0.0	0.0	0.003	0.003	0.003	0.006	9.941323843383788	-0.2136824981689453	-0.054468087768554684	4.741668701171875	-4.611968994140625	0.965118408203125	9.82460651245117	0.19931728820800781	-0.022146365356445312	0.202178955078125	-4.665374755859375	-3.0517578125	9.847351428222655	0.11013327636718749	-0.09457096557617187	3.719329833984375	-4.352569580078125	-2.323150634765625	
215	0.86	0.0	0.0	0.0	0.0	0.006	0.006	0.003	0.006	10.025719451904296	0.6350619903564453	-0.2765302917480469	7.472991943359375	-6.168365478515625	1.52587890625	9.674968908691406	0.22385785522460935	0.1927332336425781	-0.43487548828125	-4.5928955078125	-2.590179443359375	9.734225399780273	0.022744915771484374	-0.18315642700195311	3.56292724609375	-4.642486572265625	-2.13623046875	
216	0.864	0.0	0.0	0.0	0.0	0.006	0.003	0.003	0.006	9.662399349975585	-0.37229835815429685	0.20290859069824219	5.435943603515625	-4.78363037109375	0.26702880859375	9.721057290649414	0.23223756103515625	0.05746083984375	0.2899169921875	-5.14984130859375	-2.803802490234375	9.730035546875	0.2059013427734375	0.037708676147460936	3.902435302734375	-4.474639892578125	-2.216339111328125	
217	0.868	0.0	0.0	0.0	0.0	0.003	0.003	0.003	0.003	9.873089096069336	-0.517746109008789	-0.277727392578125	6.496429443359375	-5.80596923828125	0.591278076171875	9.779116680908203	0.0017956512451171875	-0.01975216369628906	0.20599365234375	-5.31005859375	-2.841949462890625	9.94012674255371	-0.1753752716064453	-0.12808978881835936	3.6773681640625	-4.878997802734375	-2.185821533203125	
218	0.872	0.0	0.0	0.0	0.0	0.003	0.006	0.006	0.003	9.765948571777344	-0.6715735656738281	-0.006584054565429687	-0.110626220703125	-2.208709716796875	-0.8392333984375	9.694122521972655	0.316034619140625	-0.003591302490234375	-0.213623046875	-4.764556884765625	-2.590179443359375	9.724050042724608	0.2567781280517578	-0.105344873046875	3.749847412109375	-4.20379638671875	-2.471923828125	
219	0.876	0.0	0.0	0.0	0.0	0.006	0.006	0.003	0.006	9.694721072387695	0.3064578125	0.10295067138671875	0.377655029296875	-2.74658203125	-2.315521240234375	9.63307037963867	0.18255787658691405	0.014963760375976562	0.659942626953125	-5.16510009765625	-2.826690673828125	9.698910925292969	0.030526071166992186	0.06703764648437499	3.6773681640625	-4.82177734375	-2.03704833984375	
220	0.88	0.0	0.0	0.0	0.0	0.003	0.006	0.003	0.003	9.714473236083984	-0.012569558715820313	0.1771709228515625	3.620147705078125	-4.093170166015625	-1.07574462890625	9.898826763916015	0.2519897247314453	0.18375497741699218	0.812530517578125	-4.756927490234375	-2.9296875	10.16398459777832	-0.05027823486328125	-0.17836802368164062	3.39508056640625	-4.283905029296875	-2.201080322265625	
221	0.884	0.0	0.0	0.0	0.0	0.003	0.003	0.006	0.006	9.759963067626952	-0.910395181274414	0.15502455749511718	-2.7923583984375	-0.67138671875	-3.772735595703125	9.713874685668944	0.2603694305419922	0.0	0.659942626953125	-5.22613525390625	-3.093719482421875	9.90122096557617	0.010773907470703125	-0.15981296081542967	3.910064697265625	-4.76837158203125	-2.38037109375	
222	0.888	0.0	0.0	0.0	0.0	0.003	0.006	0.003	0.006	9.572018237304688	-1.0851719024658202	0.3489548919677734	-1.1749267578125	-1.3580322265625	-1.224517822265625	9.701903677368163	0.35613749694824215	0.3758896606445312	0.79345703125	-4.535675048828125	-2.895355224609375	9.894038360595703	0.11731588134765625	-0.1227028350830078	3.86810302734375	-4.413604736328125	-2.376556396484375	
223	0.892	0.0	0.0	0.0	0.0	0.006	0.003	0.006	0.003	10.06223102722168	0.2346317626953125	0.19033903198242186	-2.20489501953125	-1.617431640625	-1.50299072265625	9.810839852905273	0.17417817077636719	0.5500678314208984	0.4425048828125	-4.932403564453125	-2.7923583984375	10.08018753967285	0.047285482788085934	-0.10235212097167969	3.627777099609375	-4.734039306640625	-1.873016357421875	
224	0.896	0.0	0.0	0.0	0.0	0.006	0.003	0.003	0.006	10.188525164794921	1.1749544647216796	-0.030526071166992186	8.548736572265625	-6.4239501953125	0.4730224609375	9.950302099609374	0.2088940948486328	0.08259995727539061	0.89263916015625	-4.596710205078125	-3.0670166015625	10.149020837402343	-0.04129997863769531	-0.2950853546142578	3.536224365234375	-4.360198974609375	-2.288818359375	
225	0.9	0.0	0.0	0.0	0.0	0.003	0.006	0.006	0.006	10.04906291809082	0.6781576202392577	-0.004189852905273437	5.83648681640625	-5.18798828125	-0.560760498046875	9.763554370117188	0.27832594299316404	0.4010287780761719	-0.1373291015625	-5.046844482421875	-2.498626708984375	9.993397729492187	0.16819266662597654	-0.1514332550048828	3.414154052734375	-4.35638427734375	-1.86920166015625	
226	0.904	0.0	0.0	0.0	0.0	0.006	0.003	0.006	0.009000000000000001	9.813832604980469	-0.2232593048095703	0.14305354919433594	3.8909912109375	-4.608154296875	-0.171661376953125	9.84435867614746	0.40581718139648437	0.07481880187988281	0.186920166015625	-4.726409912109375	-2.52532958984375	10.137648379516602	0.016160861206054686	-0.5398924743652344	3.73077392578125	-4.5928955078125	-2.288818359375	
227	0.908	0.0	0.0	0.0	0.0	0.003	0.003	0.003	0.006	9.749189160156249	-0.022146365356445312	0.3226186737060547	1.735687255859375	-3.269195556640625	-0.240325927734375	9.929951385498047	0.044891281127929686	0.2663549346923828	-0.102996826171875	-5.0048828125	-2.582550048828125	10.186130963134765	-0.017956512451171875	-0.2316390106201172	3.6163330078125	-4.69970703125	-1.857757568359375	
228	0.912	0.0	0.0	0.0	0.0	0.0	0.006	0.003	0.003	9.937732540893554	0.05746083984375	-0.047884033203124995	1.697540283203125	-2.826690673828125	-0.438690185546875	9.898826763916015	0.4267664459228515	-0.04129997863769531	0.6256103515625	-4.53948974609375	-2.544403076171875	10.178948358154296	-0.022744915771484374	-0.5817910034179687	3.80706787109375	-4.375457763671875	-2.4871826171875	
229	0.916	0.0	0.0	0.0	0.0	0.006	0.003	0.003	0.006	9.69831237487793	0.6548141540527344	0.42497079467773435	4.7760009765625	-4.70733642578125	-0.247955322265625	9.73602105102539	0.16340426330566404	0.39145197143554683	-0.16021728515625	-4.817962646484375	-2.70843505859375	9.975441217041014	0.1610100616455078	-0.13287819213867186	3.452301025390625	-4.608154296875	-2.13623046875	
230	0.92	0.0	0.0	0.0	0.0	0.006	0.006	0.003	0.003	9.94671079711914	0.032920272827148434	-0.16160861206054686	3.89862060546875	-3.94439697265625	-0.5340576171875	9.975441217041014	0.40222587890625	-0.04668693237304687	0.782012939453125	-4.489898681640625	-2.4566650390625	10.34833812561035	-0.06344634399414062	-0.6302735870361328	3.70025634765625	-4.581451416015625	-2.193450927734375	
231	0.924	0.0	0.0	0.0	0.0	0.006	0.003	0.006	0.006	9.672574707031249	0.3860650177001953	0.3890577697753906	4.364013671875	-4.230499267578125	-0.637054443359375	9.743203656005859	0.2346317626953125	0.2950853546142578	0.030517578125	-4.85992431640625	-2.9754638671875	10.161590396118163	0.16998831787109375	-0.3136404174804687	3.57818603515625	-4.76837158203125	-2.330780029296875	
232	0.928	0.0	0.0	0.0	0.0	0.003	0.003	0.006	0.003	9.788693487548828	0.3226186737060547	0.30047230834960936	-0.66375732421875	-1.9683837890625	-1.903533935546875	9.824007962036132	0.5153519073486328	0.040701428222656245	0.03814697265625	-4.909515380859375	-2.41851806640625	10.129867224121092	0.061650692749023434	-0.5201403106689453	3.570556640625	-4.398345947265625	-2.315521240234375	
233	0.932	0.0	0.0	0.0	0.0	0.0	0.003	0.003	0.006	9.586981997680663	0.44592005920410155	0.5225345123291015	1.89208984375	-3.124237060546875	-1.41143798828125	9.683348614501952	0.2765302917480469	0.4429273071289062	-0.125885009765625	-4.940032958984375	-2.90679931640625	10.022726699829102	0.2041056915283203	-0.10773907470703124	3.70025634765625	-4.87518310546875	-2.0904541015625	
234	0.936	0.0	0.0	0.0	0.0	0.003	0.003	0.003	0.003	9.996989031982421	0.07362170104980469	0.16460136413574217	-0.522613525390625	-1.79290771484375	-1.667022705078125	9.980828170776366	0.19093758239746092	-0.1149216796875	0.179290771484375	-4.5623779296875	-2.75421142578125	10.146626635742187	-0.11073182678222655	-0.48542438659667964	3.71551513671875	-4.87518310546875	-2.086639404296875	
235	0.9400000000000001	0.0	0.0	0.0	0.0	0.003	0.003	0.003	0.003	9.687538467407226	0.2813186950683594	0.3950432739257812	2.90679931640625	-3.9520263671875	-0.35858154296875	9.566032733154296	0.34057518615722654	0.5638344909667968	-0.316619873046875	-4.894256591796875	-2.70843505859375	9.944316595458984	0.2262520568847656	-0.1466448516845703	3.612518310546875	-4.703521728515625	-2.147674560546875	
236	0.9440000000000001	0.0	0.0	0.0	0.0	0.003	0.006	0.003	0.009000000000000001	10.019733947753906	0.34057518615722654	0.19812018737792966	1.10626220703125	-3.08990478515625	-0.286102294921875	9.798270294189452	0.2657563842773437	0.07541735229492187	0.202178955078125	-4.84466552734375	-2.83050537109375	9.873089096069336	0.033518823242187495	-0.3094505645751953	3.53240966796875	-5.07354736328125	-1.77001953125	
237	0.9480000000000001	0.0	0.0	0.0	0.0	0.009000000000000001	0.003	0.003	0.006	10.04247886352539	-0.037110125732421874	-0.11911153259277343	6.061553955078125	-5.6304931640625	0.385284423828125	9.75517466430664	0.1274912384033203	0.20290859069824219	0.164031982421875	-4.848480224609375	-2.849578857421875	9.904213717651366	-0.06404489440917968	-0.08738836059570312	3.53240966796875	-4.856109619140625	-2.361297607421875	
238	0.9520000000000001	0.0	0.0	0.0	0.0	0.003	0.003	0.003	0.003	10.067617980957031	0.26336218261718747	0.1227028350830078	3.612518310546875	-3.7384033203125	-0.0152587890625	9.87608184814453	0.2825157958984375	0.032920272827148434	0.54931640625	-4.5013427734375	-3.12042236328125	10.049661468505859	-0.012569558715820313	-0.4339490509033203	3.574371337890625	-4.78363037109375	-2.155303955078125	
239	0.9560000000000001	0.0	0.0	0.0	0.0	0.0	0.003	0.006	0.003	9.788693487548828	-0.05327098693847656	0.13287819213867186	4.375457763671875	-4.52423095703125	0.049591064453125	9.579200842285156	0.2603694305419922	0.3381809844970703	0.06866455078125	-4.64630126953125	-2.8839111328125	9.689334118652344	0.07362170104980469	-0.08798691101074219	4.009246826171875	-4.772186279296875	-2.277374267578125	
240	0.96	0.0	0.0	0.0	0.0	0.006	0.003	0.003	0.006	9.9078050201416	-0.001197100830078125	-0.1304839904785156	3.1585693359375	-4.032135009765625	-0.52642822265625	9.749189160156249	0.15562310791015624	0.022146365356445312	0.55694580078125	-5.435943603515625	-2.658843994140625	10.047865817260742	-0.02633621826171875	-0.3315969299316406	3.849029541015625	-4.711151123046875	-2.26593017578125	
241	0.964	0.0	0.0	0.0	0.0	0.003	0.003	0.003	0.006	9.942520944213866	0.032920272827148434	-0.04668693237304687	4.528045654296875	-4.73785400390625	-0.438690185546875	9.758765966796874	0.11372457885742186	0.20829554443359374	0.02288818359375	-4.8065185546875	-3.200531005859375	9.931148486328125	-0.13766659545898435	-0.19632453613281248	3.76129150390625	-4.673004150390625	-2.452850341796875	
242	0.968	0.0	0.0	0.0	0.0	0.003	0.003	0.003	0.006	9.944316595458984	-0.028131869506835935	-0.14305354919433594	3.292083740234375	-4.150390625	-0.25177001953125	9.686939916992188	0.22864625854492185	0.007781155395507812	0.66375732421875	-5.184173583984375	-2.918243408203125	9.787496386718749	0.20231004028320312	-0.07481880187988281	3.66973876953125	-4.611968994140625	-2.01416015625	
243	0.972	0.0	0.0	0.0	0.0	0.006	0.003	0.003	0.009000000000000001	9.81263550415039	0.19812018737792966	0.086191259765625	5.37109375	-5.008697509765625	-0.12969970703125	9.698910925292969	0.21188684692382811	0.20769699401855468	0.255584716796875	-4.57763671875	-2.735137939453125	9.744400756835937	-0.05686228942871093	-0.1083376251220703	3.71551513671875	-4.638671875	-2.3956298828125	
244	0.976	0.0	0.0	0.0	0.0	0.006	0.003	0.003	0.006	9.925162982177733	-0.2346317626953125	-0.062249243164062495	2.605438232421875	-3.902435302734375	-0.3509521484375	9.842563024902343	0.10414777221679687	-0.09636661682128905	0.64849853515625	-5.222320556640625	-3.055572509765625	10.005967288208007	0.09157821350097656	-0.24181436767578124	3.753662109375	-4.650115966796875	-2.201080322265625	
245	0.98	0.0	0.0	0.0	0.0	0.003	4.6290000000000004	4.632	4.569	9.871293444824218	-0.9271545928955077	-0.08559270935058594	0.8392333984375	-2.655029296875	-1.1138916015625	9.756970315551758	0.20470424194335937	0.11252747802734374	0.274658203125	-4.28009033203125	-3.1280517578125	10.067617980957031	-0.17657237243652343	-0.34237083740234375	3.7078857421875	-4.131317138671875	-2.117156982421875	
246	0.984	0.0	0.0	0.0	0.0	4.602	4.632	4.641	4.59	9.781510882568359	-0.4914098907470703	0.11611878051757812	-0.30517578125	-2.643585205078125	-1.6326904296875	9.777919580078125	0.21607669982910155	0.297479556274414	0.7476806640625	-5.1727294921875	-2.78472900390625	9.80665	0.2454056701660156	-0.10714052429199218	3.7384033203125	-4.9285888671875	-1.983642578125	
247	0.988	0.0	0.0	0.0	0.0	4.599	4.641	4.644	4.596	9.910797772216796	-0.843357534790039	-0.1292868896484375	0.06103515625	-2.3651123046875	-1.598358154296875	9.795277542114258	0.1370680450439453	0.059256491088867186	0.080108642578125	-4.535675048828125	-3.086090087890625	10.128071572875976	-0.21188684692382811	-0.37229835815429685	3.7994384765625	-4.604339599609375	-2.063751220703125	
248	0.992	0.0	0.0	0.0	0.0	4.602	4.641	4.641	4.596	9.874884747314452	-0.2885013000488281	-0.03531447448730469	2.838134765625	-3.612518310546875	0.064849853515625	9.853336932373047	0.15083470458984374	0.17238251953125	0.133514404296875	-5.023956298828125	-2.73895263671875	10.114304913330077	0.09696516723632811	-0.2346317626953125	3.849029541015625	-4.543304443359375	-2.063751220703125	
249	0.996	0.0	0.0	0.0	0.0	4.59	4.638	4.635	4.599	9.924564431762695	-0.47285482788085936	-0.08559270935058594	1.949310302734375	-3.337860107421875	-1.071929931640625	9.661202249145507	0.24899697265624998	0.18255787658691405	0.804901123046875	-4.76837158203125	-2.70843505859375	9.991003527832031	-0.10235212097167969	-0.32022447204589843	3.871917724609375	-4.528045654296875	-2.09808349609375	
250	1.0	0.0	0.0	0.0	0.0	4.599	4.641	4.644	4.587	9.910199221801758	0.30466216125488277	0.22385785522460935	4.764556884765625	-4.730224609375	0.16021728515625	9.878476049804688	0.10414777221679687	0.16220716247558592	0.29754638671875	-5.11932373046875	-2.64739990234375	10.090961447143554	0.09157821350097656	-0.21128829650878905	3.803253173828125	-4.69970703125	-2.12860107421875	
251	1.004	0.0	0.0	0.0	0.0	4.599	4.644	4.644	4.569	10.008960040283203	0.11851298217773437	-0.1771709228515625	5.214691162109375	-4.852294921875	0.133514404296875	9.99220062866211	0.23642741394042968	-0.12808978881835936	0.926971435546875	-4.741668701171875	-2.712249755859375	10.137049829101562	-0.2166752502441406	-0.47704468078613277	3.59344482421875	-4.665374755859375	-2.216339111328125	
252	1.008	0.0	0.0	0.0	0.0	4.611	4.641	4.638	4.578	9.732429748535155	0.011971008300781249	0.26216508178710934	4.955291748046875	-4.833221435546875	-0.518798828125	9.78031378173828	0.11731588134765625	0.2088940948486328	-0.209808349609375	-5.8441162109375	-2.391815185546875	10.017938296508788	0.16819266662597654	-0.2615665313720703	3.7384033203125	-4.627227783203125	-2.399444580078125	
253	1.012	0.0	0.0	0.0	0.0	4.602	4.632	4.638	4.593	9.837176071166992	-0.36631285400390623	-0.05805939025878906	-0.957489013671875	-1.979827880859375	-2.010345458984375	9.961076007080077	0.2855085479736328	-0.09038111267089843	0.576019287109375	-5.07354736328125	-2.735137939453125	10.18373676147461	-0.011971008300781249	-0.3872621185302734	3.66973876953125	-4.73785400390625	-2.025604248046875	
254	1.016	0.0	0.0	0.0	0.0	4.593	4.641	4.641	4.596	9.773131176757811	-0.22086510314941404	0.15741875915527342	2.227783203125	-3.62396240234375	-0.782012939453125	9.803058697509766	0.29448680419921874	0.20530279235839843	0.1220703125	-5.107879638671875	-2.407073974609375	10.181941110229491	0.08259995727539061	-0.3848679168701172	3.80706787109375	-4.79888916015625	-2.025604248046875	
255	1.02	0.0	0.0	0.0	0.0	4.602	4.644	4.641	4.596	9.922768780517577	-0.029328970336914062	-0.1945288848876953	-0.2899169921875	-2.101898193359375	-2.288818359375	9.87608184814453	0.2651578338623047	-0.02693476867675781	0.553131103515625	-4.543304443359375	-2.685546875	10.150217938232421	-0.032920272827148434	-0.4004302276611328	3.63922119140625	-4.608154296875	-2.162933349609375	
256	1.024	0.0	0.0	0.0	0.0	4.59	4.641	4.635	4.602	9.648034140014648	0.19991583862304688	0.3800795135498047	3.6773681640625	-3.787994384765625	-0.614166259765625	9.696516723632811	0.3860650177001953	0.32022447204589843	-0.00762939453125	-4.978179931640625	-2.46429443359375	9.905410818481444	0.11552023010253906	-0.10115502014160156	3.742218017578125	-4.817962646484375	-2.410888671875	
257	1.028	0.0	0.0	0.0	0.0	4.602	4.641	4.641	4.5840000000000005	9.911396322631836	-0.2442085693359375	-0.17836802368164062	-0.827789306640625	-2.00653076171875	-2.422332763671875	10.014945544433592	0.12988544006347655	-0.10354922180175781	0.652313232421875	-4.825592041015625	-3.204345703125	10.262745416259765	-0.040701428222656245	-0.36272155151367186	3.91387939453125	-4.398345947265625	-1.888275146484375	
258	1.032	0.0	0.0	0.0	0.0	4.602	2.322	0.006	0.003	9.890447058105469	0.14185644836425781	0.17058686828613281	0.6561279296875	-2.46429443359375	-1.377105712890625	9.74859060974121	0.32142157287597656	0.2914940521240234	0.1983642578125	-4.787445068359375	-2.590179443359375	10.079588989257813	0.02154781494140625	-0.26336218261718747	3.749847412109375	-4.741668701171875	-2.37274169921875	
259	1.036	0.0	0.0	0.0	0.0	0.009000000000000001	0.006	0.003	0.003	9.889249957275391	0.23582886352539062	-0.03172317199707031	-1.48773193359375	-1.338958740234375	-2.384185791015625	9.85094273071289	0.28431144714355466	0.018555062866210937	0.408172607421875	-4.901885986328125	-3.2501220703125	9.911994873046874	0.24480711975097655	-0.3298012786865234	3.765106201171875	-4.825592041015625	-2.033233642578125	
260	1.04	0.0	0.0	0.0	0.0	-0.003	0.006	0.006	0.003	9.919776028442381	0.28969840087890625	0.13347674255371092	1.438140869140625	-3.07464599609375	-1.491546630859375	9.76235726928711	0.34715924072265625	0.17417817077636719	0.202178955078125	-4.93621826171875	-2.948760986328125	10.029310754394531	0.03232172241210937	-0.059256491088867186	3.360748291015625	-4.581451416015625	-2.216339111328125	
261	1.044	0.0	0.0	0.0	0.0	0.006	0.003	0.003	0.003	9.980229620361328	0.1149216796875	-0.047285482788085934	3.448486328125	-4.108428955078125	-0.18310546875	9.974244116210937	0.21308394775390624	0.006584054565429687	0.11444091796875	-4.673004150390625	-3.0517578125	10.153210690307617	0.02693476867675781	-0.4381389038085937	3.543853759765625	-4.7607421875	-2.079010009765625	
262	1.048	0.0	0.0	0.0	0.0	0.003	0.003	0.006	0.006	9.917980377197265	0.31962592163085934	0.13587094421386717	1.80816650390625	-3.185272216796875	-1.239776611328125	9.631873278808593	0.3687070556640625	0.26695348510742184	0.110626220703125	-4.863739013671875	-3.173828125	9.855731134033203	-0.0005985504150390625	-0.08678981018066406	3.7994384765625	-4.764556884765625	-2.50244140625	
263	1.052	0.0	0.0	0.0	0.0	0.003	0.003	0.003	0.003	10.056844073486328	0.5644330413818359	0.0053869537353515625	4.5928955078125	-4.69970703125	0.19073486328125	9.664195001220703	0.25139117431640623	0.23582886352539062	0.064849853515625	-5.138397216796875	-3.04412841796875	10.024522351074218	0.18555062866210936	-0.38307226562499996	3.6773681640625	-4.8980712890625	-1.97601318359375	
264	1.056	0.0	0.0	0.0	0.0	0.003	0.003	0.003	0.006	10.054449871826172	0.14784195251464843	0.08439560852050781	2.292633056640625	-3.551483154296875	-0.99945068359375	9.789292037963866	0.2920926025390625	0.26396073303222656	0.415802001953125	-5.008697509765625	-3.162384033203125	9.934739788818359	-0.11192892761230468	-0.11133037719726561	3.910064697265625	-4.974365234375	-2.445220947265625	
265	1.06	0.0	0.0	0.0	0.0	0.003	0.003	0.003	0.006	10.04247886352539	0.1406593475341797	-0.08858546142578125	4.169464111328125	-4.5013427734375	-0.186920166015625	9.675567459106444	0.1083376251220703	0.28012159423828126	0.217437744140625	-4.688262939453125	-2.948760986328125	9.945513696289062	0.12569558715820311	-0.35194764404296874	3.7689208984375	-4.60052490234375	-2.307891845703125	
266	1.064	0.0	0.0	0.0	0.0	0.0	0.006	0.003	0.006	9.864709390258788	0.09816226806640624	0.17118541870117188	5.2337646484375	-4.886627197265625	0.553131103515625	9.550470422363281	0.39803602600097654	0.26216508178710934	0.26702880859375	-4.638671875	-3.261566162109375	9.595960253906249	0.16220716247558592	0.010773907470703125	3.4942626953125	-4.31060791015625	-2.09808349609375	
267	1.068	0.0	0.0	0.0	0.0	0.003	0.003	0.006	0.003	10.098144052124022	0.34715924072265625	-0.15502455749511718	5.046844482421875	-4.962921142578125	0.34332275390625	9.835978970336914	-0.022146365356445312	0.1693897674560547	0.091552734375	-5.023956298828125	-2.9449462890625	9.916184725952148	0.03411737365722656	-0.1149216796875	3.73077392578125	-4.634857177734375	-2.361297607421875	
268	1.072	0.0	0.0	0.0	0.0	0.003	0.006	0.003	0.003	9.97843396911621	-0.12509703674316405	-0.013168109130859374	5.718231201171875	-5.214691162109375	0.43487548828125	9.810241302490233	0.24899697265624998	0.07541735229492187	0.0	-4.70733642578125	-2.93731689453125	9.884461553955077	-0.022744915771484374	-0.12090718383789062	3.570556640625	-4.650115966796875	-2.46429443359375	
269	1.076	0.0	0.0	0.0	0.0	0.006	0.003	0.003	0.003	9.96047745666504	0.4782417816162109	-0.020350714111328123	6.610870361328125	-5.558013916015625	0.988006591796875	9.524134204101562	0.16819266662597654	0.4531026641845703	0.057220458984375	-4.978179931640625	-2.597808837890625	9.626486325073241	0.15083470458984374	-0.08020575561523437	3.475189208984375	-4.75311279296875	-2.193450927734375	
270	1.08	0.0	0.0	0.0	0.0	0.003	0.003	0.003	0.006	9.897031112670899	-0.029328970336914062	0.12210428466796874	5.39398193359375	-5.31768798828125	0.67138671875	9.70369932861328	0.26755203552246093	0.16998831787109375	0.213623046875	-4.57000732421875	-2.64739990234375	9.988609326171874	0.20231004028320312	-0.277727392578125	3.79180908203125	-4.566192626953125	-1.86920166015625	
271	1.084	0.0	0.0	0.0	0.0	0.006	0.006	0.003	0.006	9.886257205200195	-0.45010991210937495	0.020350714111328123	3.269195556640625	-4.062652587890625	-0.568389892578125	9.934739788818359	-0.015562310791015624	0.03651157531738281	0.324249267578125	-4.787445068359375	-2.83050537109375	10.070610733032225	-0.201112939453125	-0.24001871643066405	3.574371337890625	-4.741668701171875	-2.147674560546875	
272	1.088	0.0	0.0	0.0	0.0	0.003	0.006	0.003	0.003	9.85692823486328	-0.24121581726074218	0.037708676147460936	4.093170166015625	-4.425048828125	-0.091552734375	9.623493572998047	0.28490999755859375	0.09816226806640624	0.949859619140625	-4.764556884765625	-2.796173095703125	9.996989031982421	0.12330138549804687	-0.3699041564941406	3.79180908203125	-4.40216064453125	-2.2125244140625	
273	1.092	0.0	0.0	0.0	0.0	0.003	0.006	0.003	0.006	9.706692080688477	-0.39803602600097654	0.028730419921875	1.285552978515625	-3.238677978515625	-1.2664794921875	9.714473236083984	0.296881005859375	0.016759411621093748	0.1983642578125	-5.27191162109375	-2.597808837890625	9.858125335693359	0.17178396911621094	-0.12090718383789062	3.570556640625	-4.810333251953125	-1.77764892578125	
274	1.096	0.0	0.0	0.0	0.0	0.006	0.003	0.003	0.003	9.884461553955077	-0.33099837951660155	0.025139117431640625	-1.57928466796875	-1.59454345703125	-2.6092529296875	10.007164389038085	0.12090718383789062	0.005985504150390624	0.32806396484375	-5.13458251953125	-2.62451171875	10.245986004638672	-0.03232172241210937	-0.28730419921875	3.658294677734375	-4.238128662109375	-2.03704833984375	
275	1.1	0.0	0.0	0.0	0.0	0.003	0.006	0.003	0.006	9.796474642944336	-0.6470329986572265	0.052073886108398436	0.339508056640625	-2.109527587890625	-2.11334228515625	9.783905084228515	0.14006079711914063	0.005985504150390624	0.331878662109375	-5.02777099609375	-2.75421142578125	10.225635290527343	-0.1406593475341797	-0.2376245147705078	3.73077392578125	-4.718780517578125	-2.109527587890625	
276	1.104	0.0	0.0	0.0	0.0	0.003	0.003	0.006	0.003	9.679757312011718	0.19153613281249998	0.17657237243652343	-1.922607421875	-0.865936279296875	-2.69317626953125	9.68454571533203	0.46627077331542965	0.11731588134765625	0.850677490234375	-4.791259765625	-2.8228759765625	9.80724855041504	0.3327940307617187	-0.316034619140625	4.627227783203125	-4.15802001953125	-2.12860107421875	
277	1.108	0.0	0.0	0.0	0.0	0.003	0.003	0.006	0.006	9.770736975097655	-0.5398924743652344	0.17597382202148437	-0.6561279296875	-2.117156982421875	-1.99127197265625	9.797073193359374	0.2807201446533203	0.508169302368164	0.202178955078125	-4.9591064453125	-2.58636474609375	10.180145458984374	-0.008978256225585938	-0.17357962036132812	3.696441650390625	-4.76837158203125	-1.659393310546875	
278	1.112	0.0	0.0	0.0	0.0	0.003	0.003	0.006	0.006	9.92755718383789	0.059256491088867186	0.09038111267089843	-0.202178955078125	-2.162933349609375	-2.26593017578125	9.990404977416992	0.21428104858398436	0.06823474731445311	0.820159912109375	-4.53948974609375	-3.108978271484375	10.564414825439453	-0.21727380065917967	-0.7122749938964843	3.662109375	-4.459381103515625	-2.4566650390625	
279	1.116	0.0	0.0	0.0	0.0	0.006	0.003	0.003	0.003	9.833584768676758	0.8475473876953125	0.47704468078613277	3.765106201171875	-3.803253173828125	-0.57220458984375	9.603741409301758	0.3848679168701172	0.5237316131591797	0.362396240234375	-4.75311279296875	-3.22723388671875	9.87608184814453	0.1514332550048828	-0.1322796417236328	3.711700439453125	-4.901885986328125	-2.147674560546875	
280	1.12	0.0	0.0	0.0	0.0	0.003	0.003	0.003	0.003	9.853935482788085	0.4477157104492187	0.22565350646972654	0.4730224609375	-2.410888671875	-1.605987548828125	9.784503634643555	0.46028526916503903	0.13826514587402344	0.469207763671875	-5.001068115234375	-2.74658203125	10.141838232421874	0.1406593475341797	-0.5979518646240234	3.94439697265625	-4.6234130859375	-1.987457275390625	
281	1.124	0.0	0.0	0.0	0.0	0.003	0.003	0.003	0.003	10.012551342773437	0.5374982727050781	0.13407529296874998	5.283355712890625	-4.9285888671875	0.25177001953125	10.038887561035155	-0.0526724365234375	0.41898529052734373	0.06103515625	-4.741668701171875	-2.902984619140625	10.334571466064453	-0.031124621582031248	-0.24600422058105467	3.787994384765625	-4.825592041015625	-1.94549560546875	
282	1.1280000000000001	0.0	0.0	0.0	0.0	0.006	0.003	0.003	0.003	10.029310754394531	0.6811503723144531	0.028730419921875	3.025054931640625	-3.5552978515625	-1.041412353515625	9.861118087768554	0.36092590026855464	0.02633621826171875	0.0152587890625	-4.72259521484375	-2.8076171875	10.126275921630858	-0.0652419952392578	-0.594959112548828	3.5552978515625	-4.46319580078125	-2.506256103515625	
283	1.1320000000000001	0.0	0.0	0.0	0.0	0.0	0.003	0.003	0.003	9.74799205932617	0.6308721374511719	0.23822306518554687	6.092071533203125	-5.2947998046875	0.48065185546875	9.510966094970703	0.3902548706054687	0.26815058593749996	-0.453948974609375	-4.787445068359375	-2.43377685546875	9.682151513671874	0.5237316131591797	-0.1292868896484375	3.849029541015625	-4.833221435546875	-1.8310546875	
284	1.1360000000000001	0.0	0.0	0.0	0.0	0.003	0.003	0.006	0.006	9.847351428222655	-0.17238251953125	0.07062894897460938	2.8533935546875	-4.146575927734375	-0.152587890625	10.087968695068358	0.21787235107421873	-0.0718260498046875	0.46539306640625	-4.962921142578125	-2.567291259765625	10.13824692993164	-0.24061726684570311	-0.38187516479492184	3.597259521484375	-5.1727294921875	-1.941680908203125	
285	1.1400000000000001	0.0	0.0	0.0	0.0	0.006	0.006	0.003	0.003	9.764751470947266	0.03591302490234375	0.07302315063476562	4.520416259765625	-4.688262939453125	-0.164031982421875	9.813832604980469	0.017956512451171875	0.14724340209960937	0.247955322265625	-4.69207763671875	-2.89154052734375	10.179546908569336	0.076614453125	-0.297479556274414	3.57818603515625	-4.695892333984375	-2.490997314453125	
286	1.1440000000000001	0.0	0.0	0.0	0.0	0.006	0.003	0.003	0.009000000000000001	9.709086282348633	0.2316390106201172	0.2316390106201172	1.25885009765625	-2.54058837890625	-1.323699951171875	9.629479077148437	0.4914098907470703	0.0053869537353515625	0.629425048828125	-4.75311279296875	-3.086090087890625	9.7683427734375	0.14185644836425781	-0.49679684448242184	3.70025634765625	-4.673004150390625	-2.22015380859375	
287	1.1480000000000001	0.0	0.0	0.0	0.0	0.006	0.003	0.006	0.006	9.58279214477539	0.16460136413574217	0.3136404174804687	0.77056884765625	-2.796173095703125	-0.335693359375	9.759963067626952	0.16819266662597654	0.33758243408203126	0.110626220703125	-5.126953125	-2.704620361328125	10.128670123291014	0.18375497741699218	-0.11013327636718749	3.60107421875	-4.61578369140625	-1.995086669921875	
288	1.1520000000000001	0.0	0.0	0.0	0.0	0.006	0.006	0.003	0.006	9.94012674255371	-0.007781155395507812	0.051475335693359374	1.300811767578125	-2.90679931640625	-1.537322998046875	10.004770187377929	0.0053869537353515625	-0.06643909606933593	0.22125244140625	-4.92095947265625	-3.345489501953125	10.332177264404296	-0.4429273071289062	-0.51714755859375	3.665924072265625	-4.779815673828125	-2.437591552734375	
289	1.156	0.0	0.0	0.0	0.0	0.003	0.006	0.003	0.003	10.037091909790039	0.044292730712890624	-0.09038111267089843	2.67791748046875	-3.528594970703125	-0.484466552734375	9.350554583740234	0.23822306518554687	0.05746083984375	-0.026702880859375	-4.66156005859375	-2.8839111328125	9.721057290649414	0.15322890625	-0.2663549346923828	3.65447998046875	-4.215240478515625	-2.46429443359375	
290	1.16	0.0	0.0	0.0	0.0	0.006	0.006	0.003	0.003	9.891644158935547	0.3268085266113281	0.22864625854492185	1.18255615234375	-2.895355224609375	-0.385284423828125	9.698910925292969	0.3064578125	0.13287819213867186	0.293731689453125	-4.974365234375	-2.735137939453125	9.83777462158203	0.037708676147460936	-0.27952304382324217	3.787994384765625	-5.100250244140625	-1.8310546875	
291	1.164	0.0	0.0	0.0	0.0	0.003	0.003	0.003	0.003	10.04846436767578	-0.02154781494140625	-0.00239420166015625	5.95855712890625	-5.21087646484375	0.576019287109375	9.829993466186522	-0.1149216796875	0.2316390106201172	0.152587890625	-5.035400390625	-2.93731689453125	10.075997686767577	-0.31543606872558594	-0.0909796630859375	3.83758544921875	-4.474639892578125	-2.307891845703125	
292	1.168	0.0	0.0	0.0	0.0	0.003	0.003	0.003	0.003	10.011354241943359	-0.2741360900878906	-0.27293898925781246	4.421234130859375	-4.917144775390625	-0.25177001953125	9.813832604980469	0.2555810272216797	-0.11192892761230468	0.52642822265625	-4.428863525390625	-2.79998779296875	10.014346994018554	0.029328970336914062	-0.3178302703857422	4.032135009765625	-4.772186279296875	-2.300262451171875	
293	1.172	0.0	0.0	0.0	0.0	0.003	0.003	0.003	0.003	9.698910925292969	0.06943184814453125	0.27892449340820313	5.04302978515625	-4.90570068359375	0.63323974609375	9.420584982299804	0.38367081604003905	0.39923312683105466	0.091552734375	-4.5928955078125	-2.655029296875	9.502586389160156	0.22385785522460935	-0.002992752075195312	3.88336181640625	-4.70733642578125	-2.193450927734375	
294	1.176	0.0	0.0	0.0	0.0	0.006	0.003	0.003	0.006	9.833584768676758	-0.24001871643066405	0.022146365356445312	2.44903564453125	-3.83758544921875	-0.881195068359375	9.840168823242188	-0.009576806640625	0.04249707946777344	0.57220458984375	-5.22613525390625	-2.50244140625	9.955689053344726	0.00239420166015625	-0.013766659545898436	3.681182861328125	-4.596710205078125	-1.834869384765625	
295	1.18	0.0	0.0	0.0	0.0	0.003	0.006	0.003	0.003	9.975441217041014	-0.015562310791015624	-0.062249243164062495	5.657196044921875	-5.046844482421875	0.217437744140625	9.780912332153319	0.11911153259277343	0.09337386474609374	0.213623046875	-4.581451416015625	-3.238677978515625	10.384251150512695	-0.3585316986083984	-0.5225345123291015	3.826141357421875	-4.169464111328125	-2.460479736328125	
296	1.184	0.0	0.0	0.0	0.0	0.003	0.006	0.006	4.548	9.818022457885741	-0.11013327636718749	-0.08858546142578125	2.99072265625	-3.82232666015625	-0.5340576171875	9.583989245605467	0.36810850524902344	0.02454056701660156	0.385284423828125	-5.01251220703125	-2.719879150390625	9.577405191040038	0.39803602600097654	-0.05805939025878906	3.74603271484375	-4.711151123046875	-2.079010009765625	
297	1.188	0.0	0.0	0.0	0.0	4.575	4.632	4.632	4.599	9.724050042724608	-0.411802685546875	0.13108254089355467	1.35040283203125	-3.21197509765625	-0.93841552734375	9.740210903930663	0.21009119567871093	0.20829554443359374	0.29754638671875	-4.69970703125	-2.735137939453125	9.94730934753418	-0.11552023010253906	-0.23702596435546874	4.009246826171875	-4.848480224609375	-2.11334228515625	
298	1.192	0.0	0.0	0.0	0.0	4.599	4.641	4.641	4.581	10.024522351074218	-0.36631285400390623	-0.3387795349121094	2.620697021484375	-4.146575927734375	-0.8087158203125	10.019135397338866	-0.01975216369628906	-0.2442085693359375	0.38909912109375	-5.01251220703125	-2.6397705078125	10.169371551513672	0.028131869506835935	-0.28909985046386716	3.570556640625	-4.947662353515625	-2.3345947265625	
299	1.196	0.0	0.0	0.0	0.0	4.602	4.641	4.638	4.569	9.854534033203125	-0.36272155151367186	-0.11013327636718749	1.93023681640625	-2.948760986328125	-1.06048583984375	9.743203656005859	0.3094505645751953	0.12988544006347655	0.362396240234375	-4.35638427734375	-3.0364990234375	10.043675964355469	-0.11013327636718749	-0.5327098693847656	3.726959228515625	-4.24957275390625	-2.2430419921875	
300	1.2	0.0	0.0	0.0	0.0	4.599	4.635	4.641	4.5840000000000005	9.728838446044922	-0.10594342346191406	0.16460136413574217	1.155853271484375	-3.704071044921875	-1.068115234375	9.62109937133789	0.38666356811523434	0.5069722015380859	0.152587890625	-5.2642822265625	-2.574920654296875	9.797671743774414	0.3591302490234375	-0.04548983154296875	3.719329833984375	-4.8828125	-1.903533935546875	
301	1.204	0.0	0.0	0.0	0.0	4.602	4.644	4.641	4.593	9.866505041503906	-0.03890577697753906	-0.03172317199707031	2.92205810546875	-3.80706787109375	-1.544952392578125	9.97783541870117	0.13766659545898435	0.08140285644531249	0.568389892578125	-4.657745361328125	-2.86865234375	10.326191760253906	-0.31663316955566406	-0.4285620971679687	3.681182861328125	-4.344940185546875	-2.0751953125	
302	1.208	0.0	0.0	0.0	0.0	4.602	4.641	4.644	4.596	9.874286196899414	-0.3190273712158203	0.11851298217773437	0.31280517578125	-2.09808349609375	-1.28936767578125	9.958681805419921	0.13407529296874998	0.0718260498046875	0.156402587890625	-4.924774169921875	-2.76947021484375	10.24658455505371	0.002992752075195312	-0.45190556335449217	3.582000732421875	-4.486083984375	-2.38800048828125	
303	1.212	0.0	0.0	0.0	0.0	4.593	4.638	4.638	4.596	9.658209497070311	-0.44891281127929683	0.25737667846679685	-0.02288818359375	-2.13623046875	-1.789093017578125	9.746196408081055	0.5572504364013672	0.051475335693359374	0.396728515625	-4.57763671875	-2.803802490234375	9.917381826782226	0.2962824554443359	-0.39264907226562495	3.635406494140625	-4.428863525390625	-2.23541259765625	
304	1.216	0.0	0.0	0.0	0.0	4.596	4.635	4.632	4.602	9.755773214721678	0.5063736511230469	0.38307226562499996	2.178192138671875	-3.429412841796875	-0.850677490234375	9.923367330932617	0.0909796630859375	0.22026655273437498	-0.11444091796875	-5.157470703125	-2.437591552734375	10.193912118530273	0.016160861206054686	-0.258573779296875	3.7841796875	-4.932403564453125	-2.002716064453125	
305	1.22	0.0	0.0	0.0	0.0	4.602	4.644	4.644	4.581	10.124480270385742	-0.3890577697753906	-0.26874913635253905	1.125335693359375	-2.899169921875	-1.438140869140625	10.154407791137695	0.19033903198242186	-0.2765302917480469	0.621795654296875	-4.817962646484375	-2.86102294921875	10.482413418579101	-0.1370680450439453	-0.6649895111083984	3.963470458984375	-4.795074462890625	-2.262115478515625	
306	1.224	0.0	0.0	0.0	0.0	4.602	4.641	4.641	0.006	9.67137760620117	0.031124621582031248	0.24301146850585936	2.13623046875	-3.2196044921875	-0.774383544921875	9.537302313232422	0.48123453369140623	0.24779987182617186	0.08392333984375	-4.82940673828125	-2.956390380859375	9.842563024902343	0.22685060729980466	-0.16699556579589842	3.62396240234375	-4.66156005859375	-2.193450927734375	
