	time	dac1	dac2	dac3	dac4	adc1.3	adc2.3	adc3.3	adc4.3	imu1accx	imu1accy	imu1accz	imu1gyrox	imu1gyroy	imu1gyroz	imu2accx	imu2accy	imu2accz	imu2gyrox	imu2gyroy	imu2gyroz	imu3accx	imu3accy	imu3accz	imu3gyrox	imu3gyroy	imu3gyroz	log
0	0.0	0.0	0.0	0.0	0.0	4.6080000000000005	4.638	4.65	4.605	9.874286196899414	0.06404489440917968	0.10594342346191406	2.655029296875	-3.833770751953125	-0.74005126953125	9.789292037963866	0.22086510314941404	0.1771709228515625	0.4730224609375	-4.70733642578125	-2.8228759765625	10.012551342773437	0.025139117431640625	-0.20829554443359374	3.88336181640625	-4.665374755859375	-2.38800048828125	Estabilizou em 8s, 1986 rpm
1	0.004	0.0	0.0	0.0	0.0	4.605	4.647	4.647	4.602	9.87727894897461	0.06464344482421874	0.09337386474609374	2.750396728515625	-3.6163330078125	-0.843048095703125	9.791087689208984	0.2280477081298828	0.17357962036132812	0.217437744140625	-4.9896240234375	-2.74658203125	10.007164389038085	0.015562310791015624	-0.21487959899902342	3.6468505859375	-4.72259521484375	-2.15911865234375	Started
2	0.008	0.0	0.0	0.0	0.0	4.596	4.644	4.644	4.611	9.8694977935791	0.05327098693847656	0.105344873046875	2.532958984375	-3.66973876953125	-0.743865966796875	9.78629928588867	0.21727380065917967	0.17238251953125	0.518798828125	-4.871368408203125	-2.81524658203125	10.007762939453125	0.015562310791015624	-0.2214636535644531	3.7689208984375	-4.497528076171875	-1.9989013671875	IMU1|LSM6DS3|0x6A|I2C-1|±2g (±19,6m/s²)|±125º/s|400Hz
3	0.012	0.0	0.0	0.0	0.0	4.611	4.647	4.647	4.593	9.860519537353515	0.05327098693847656	0.10474632263183593	2.605438232421875	-3.604888916015625	-0.81634521484375	9.791087689208984	0.2232593048095703	0.181959326171875	0.3204345703125	-4.901885986328125	-2.74658203125	10.000580334472655	0.010773907470703125	-0.2346317626953125	3.8299560546875	-4.72259521484375	-2.201080322265625	IMU2|LSM6DS3|0x6B|I2C-1|±2g (±19,6m/s²)|±125º/s|400Hz
4	0.016	0.0	0.0	0.0	0.0	4.6080000000000005	4.65	4.647	4.581	9.864709390258788	0.04848258361816406	0.10414777221679687	2.593994140625	-3.566741943359375	-0.736236572265625	9.785102185058593	0.2136824981689453	0.17477672119140625	0.278472900390625	-4.7760009765625	-2.643585205078125	10.006565838623047	0.008978256225585938	-0.23822306518554687	3.574371337890625	-4.5928955078125	-2.132415771484375	IMU3|LSM6DS3|0x6B|I2C-2|±2g (±19,6m/s²)|±125º/s|400Hz
5	0.02	0.0	0.0	0.0	0.0	4.614	4.644	4.644	4.587	9.866505041503906	0.04848258361816406	0.1083376251220703	2.79998779296875	-3.726959228515625	-0.705718994140625	9.788693487548828	0.20290859069824219	0.17896657409667968	0.217437744140625	-5.08880615234375	-2.7618408203125	10.002974536132811	-0.0017956512451171875	-0.23343466186523437	3.74603271484375	-4.619598388671875	-2.162933349609375	ADC|ADS1015|0|0|1|0|±6,144 V|2400 SPS
6	0.024	0.0	0.0	0.0	0.0	4.611	4.638	4.647	4.599	9.882067352294921	0.044891281127929686	0.09816226806640624	2.47955322265625	-3.627777099609375	-0.850677490234375	9.792284790039062	0.20530279235839843	0.16519991455078123	0.087738037109375	-4.642486572265625	-2.51007080078125	10.007164389038085	0.007781155395507812	-0.23822306518554687	3.696441650390625	-4.573822021484375	-2.178192138671875	Gen1|Disabled
7	0.028	0.0	0.0	0.0	0.0	4.6080000000000005	4.647	4.65	4.602	9.871293444824218	0.054468087768554684	0.09636661682128905	2.72369384765625	-3.559112548828125	-0.58746337890625	9.790489138793944	0.21068974609375	0.17058686828613281	0.51116943359375	-5.138397216796875	-2.872467041015625	9.995791931152343	0.005985504150390624	-0.22086510314941404	3.841400146484375	-4.7454833984375	-2.162933349609375	Gen2|Enabled|Noise|0.0|10.0|1668
8	0.032	0.0	0.0	0.0	0.0	4.605	4.644	4.647	4.605	9.871293444824218	0.044292730712890624	0.08319850769042968	2.32696533203125	-3.63922119140625	-0.70953369140625	9.789890588378906	0.20530279235839843	0.17896657409667968	0.247955322265625	-4.7760009765625	-2.803802490234375	10.011354241943359	0.010175357055664061	-0.2328361114501953	3.711700439453125	-4.7607421875	-2.11334228515625	Gen3|Enabled|Noise|0.0|10.0|128
9	0.036000000000000004	0.0	0.0	0.0	0.0	4.596	4.644	4.641	4.611	9.859920986938477	0.04608838195800781	0.09995791931152344	2.6397705078125	-3.543853759765625	-0.705718994140625	9.787496386718749	0.2041056915283203	0.17657237243652343	0.22125244140625	-4.85992431640625	-2.735137939453125	10.014945544433592	0.008978256225585938	-0.22445640563964842	3.6773681640625	-4.70733642578125	-2.227783203125	Gen4|Enabled|Noise|0.0|10.0|128
10	0.04	0.0	0.0	0.0	0.0	4.611	4.647	4.647	4.59	9.867103591918944	0.04369418029785156	0.09038111267089843	2.674102783203125	-3.688812255859375	-0.701904296875	9.784503634643555	0.20829554443359374	0.17896657409667968	0.4425048828125	-4.76837158203125	-2.838134765625	10.013748443603514	0.008978256225585938	-0.22445640563964842	3.749847412109375	-4.619598388671875	-2.231597900390625	Ctrl|Disabled
11	0.044	0.0	0.0	0.0	0.0	4.611	4.647	4.647	4.578	9.87069489440918	0.04967968444824218	0.09516951599121093	2.483367919921875	-3.3721923828125	-0.70953369140625	9.787496386718749	0.20649989318847656	0.17118541870117188	0.202178955078125	-4.94384765625	-2.796173095703125	10.005368737792969	0.0047884033203125	-0.2041056915283203	3.574371337890625	-4.695892333984375	-2.170562744140625	
12	0.048	0.0	0.0	0.0	0.0	4.6080000000000005	4.647	4.644	4.587	9.874884747314452	0.05386953735351562	0.08439560852050781	2.788543701171875	-3.765106201171875	-0.766754150390625	9.791087689208984	0.22206220397949217	0.16280571289062498	0.316619873046875	-4.741668701171875	-2.9449462890625	10.007762939453125	0.013766659545898436	-0.2154781494140625	4.650115966796875	-4.6844482421875	-2.05230712890625	
13	0.052000000000000005	0.0	0.0	0.0	0.0	4.6080000000000005	4.641	4.647	4.599	9.867702142333984	0.06763619689941405	0.07242460021972656	2.635955810546875	-3.77655029296875	-0.81634521484375	9.791087689208984	0.2328361114501953	0.15861585998535155	0.354766845703125	-4.650115966796875	-2.716064453125	10.011354241943359	0.012569558715820313	-0.2280477081298828	3.57818603515625	-4.44793701171875	-2.1514892578125	
14	0.056	0.0	0.0	0.0	0.0	4.6080000000000005	4.65	4.65	4.605	9.86351228942871	0.06404489440917968	0.0796072052001953	2.5787353515625	-3.444671630859375	-0.782012939453125	9.787496386718749	0.229843359375	0.16340426330566404	0.52642822265625	-4.940032958984375	-2.887725830078125	10.007164389038085	0.014963760375976562	-0.22445640563964842	3.696441650390625	-4.528045654296875	-2.532958984375	
15	0.06	0.0	0.0	0.0	0.0	4.602	4.644	4.647	4.602	9.867702142333984	0.07302315063476562	0.07841010437011718	2.7313232421875	-3.833770751953125	-0.682830810546875	9.78689783630371	0.24001871643066405	0.15682020874023436	0.51116943359375	-4.817962646484375	-2.93731689453125	10.014346994018554	0.037708676147460936	-0.23882161560058593	3.810882568359375	-4.72259521484375	-2.124786376953125	
16	0.064	0.0	0.0	0.0	0.0	4.596	4.644	4.635	4.6080000000000005	9.867702142333984	0.08259995727539061	0.06404489440917968	2.79998779296875	-3.467559814453125	-0.759124755859375	9.790489138793944	0.24480711975097655	0.15322890625	0.202178955078125	-4.8675537109375	-2.765655517578125	10.002974536132811	0.04848258361816406	-0.23702596435546874	3.53240966796875	-4.49371337890625	-2.140045166015625	
17	0.068	0.0	0.0	0.0	0.0	4.6080000000000005	4.65	4.647	4.587	9.874884747314452	0.09217676391601562	0.07242460021972656	2.643585205078125	-3.45611572265625	-0.698089599609375	9.798868844604492	0.2472013214111328	0.15442600708007811	0.3204345703125	-4.9896240234375	-2.780914306640625	10.00417163696289	0.04608838195800781	-0.2442085693359375	3.92913818359375	-4.6844482421875	-2.094268798828125	
18	0.07200000000000001	0.0	0.0	0.0	0.0	4.614	4.647	4.644	4.581	9.871293444824218	0.09935936889648436	0.07721300354003906	2.452850341796875	-3.42559814453125	-0.885009765625	9.794678991699218	0.25318682556152344	0.14544775085449219	0.438690185546875	-5.2642822265625	-2.8839111328125	10.012551342773437	0.0526724365234375	-0.25438392639160157	3.620147705078125	-4.5166015625	-2.2125244140625	
19	0.076	0.0	0.0	0.0	0.0	4.614	4.644	4.644	4.593	9.880870251464843	0.09038111267089843	0.06883329772949218	2.40325927734375	-3.77655029296875	-0.720977783203125	9.788094937133788	0.2603694305419922	0.14724340209960937	0.469207763671875	-5.13458251953125	-2.765655517578125	10.007164389038085	0.06763619689941405	-0.2609679809570312	3.734588623046875	-4.69207763671875	-2.09808349609375	
20	0.08	0.0	0.0	0.0	0.0	4.6080000000000005	4.65	4.65	4.602	9.872490545654296	0.0939724151611328	0.08379705810546874	2.43377685546875	-3.711700439453125	-0.827789306640625	9.788693487548828	0.2603694305419922	0.1514332550048828	-0.041961669921875	-4.779815673828125	-2.685546875	10.014945544433592	0.062249243164062495	-0.2555810272216797	3.734588623046875	-4.57763671875	-2.124786376953125	
21	0.084	0.0	0.0	0.0	0.0	4.605	4.647	4.65	4.602	9.87009634399414	0.10414777221679687	0.09935936889648436	2.54058837890625	-3.77655029296875	-0.7781982421875	9.785102185058593	0.26695348510742184	0.15562310791015624	0.469207763671875	-4.711151123046875	-2.544403076171875	10.002974536132811	0.06404489440917968	-0.25318682556152344	3.6468505859375	-4.520416259765625	-2.223968505859375	
22	0.088	0.0	0.0	0.0	0.0	4.605	4.644	4.647	4.611	9.868300692749022	0.10474632263183593	0.08918401184082031	2.536773681640625	-3.749847412109375	-0.762939453125	9.789292037963866	0.2693476867675781	0.14245499877929688	0.423431396484375	-4.94384765625	-2.899169921875	10.005368737792969	0.05805939025878906	-0.24361001892089842	3.650665283203125	-4.63104248046875	-2.117156982421875	
23	0.092	0.0	0.0	0.0	0.0	4.611	4.644	4.635	4.599	9.868899243164062	0.09337386474609374	0.09756371765136718	2.6397705078125	-3.505706787109375	-0.8392333984375	9.789890588378906	0.2603694305419922	0.1466448516845703	0.02288818359375	-4.894256591796875	-2.933502197265625	10.002974536132811	0.0526724365234375	-0.2454056701660156	3.631591796875	-4.520416259765625	-2.101898193359375	
24	0.096	0.0	0.0	0.0	0.0	4.6080000000000005	4.65	4.65	4.5840000000000005	9.87069489440918	0.10115502014160156	0.09576806640624999	2.399444580078125	-3.330230712890625	-0.70953369140625	9.785102185058593	0.2615665313720703	0.15741875915527342	0.3662109375	-4.787445068359375	-2.956390380859375	10.017938296508788	0.05087678527832031	-0.23104046020507812	3.80706787109375	-4.581451416015625	-2.02178955078125	
25	0.1	0.0	0.0	0.0	0.0	4.614	4.647	4.644	4.581	9.872490545654296	0.08678981018066406	0.10115502014160156	2.666473388671875	-3.56292724609375	-0.74005126953125	9.785700735473633	0.2442085693359375	0.16699556579589842	0.1983642578125	-4.894256591796875	-2.880096435546875	10.011354241943359	0.04967968444824218	-0.22445640563964842	3.490447998046875	-4.82177734375	-2.15911865234375	
26	0.10400000000000001	0.0	0.0	0.0	0.0	4.614	4.644	4.644	4.596	9.875483297729492	0.08439560852050781	0.10354922180175781	2.513885498046875	-3.36456298828125	-0.762939453125	9.79348189086914	0.24839842224121092	0.18375497741699218	0.396728515625	-4.871368408203125	-2.803802490234375	10.003573086547851	0.04129997863769531	-0.19572598571777342	3.536224365234375	-4.52423095703125	-2.1514892578125	
27	0.108	0.0	0.0	0.0	0.0	4.611	4.65	4.65	4.602	9.86411083984375	0.07003039855957031	0.10474632263183593	2.590179443359375	-3.391265869140625	-0.69427490234375	9.78689783630371	0.23882161560058593	0.1771709228515625	0.400543212890625	-5.0811767578125	-2.811431884765625	9.993397729492187	0.03591302490234375	-0.1975216369628906	3.498077392578125	-4.764556884765625	-2.201080322265625	
28	0.112	0.0	0.0	0.0	0.0	4.605	4.65	4.65	4.605	9.86411083984375	0.07302315063476562	0.10354922180175781	2.69317626953125	-3.41033935546875	-0.5645751953125	9.785102185058593	0.23104046020507812	0.19093758239746092	-0.11444091796875	-4.436492919921875	-2.628326416015625	9.996390481567381	0.031124621582031248	-0.19812018737792966	3.35693359375	-4.45556640625	-2.044677734375	
29	0.116	0.0	0.0	0.0	0.0	4.599	4.644	4.644	4.611	9.879074600219726	0.08319850769042968	0.11133037719726561	2.67791748046875	-3.39508056640625	-0.705718994140625	9.785102185058593	0.2292448089599609	0.19393033447265623	0.28228759765625	-4.82177734375	-2.73895263671875	10.016142645263672	0.01975216369628906	-0.18076222534179687	3.70025634765625	-4.657745361328125	-2.12860107421875	
30	0.12	0.0	0.0	0.0	0.0	4.611	4.644	4.644	4.602	9.867103591918944	0.05985504150390625	0.105344873046875	2.681732177734375	-3.7384033203125	-0.766754150390625	9.791087689208984	0.22685060729980466	0.18854338073730467	0.2899169921875	-4.978179931640625	-2.63214111328125	10.011354241943359	0.023942016601562498	-0.18435352783203124	3.6163330078125	-4.6234130859375	-2.2430419921875	
31	0.124	0.0	0.0	0.0	0.0	4.605	4.65	4.647	4.5840000000000005	9.873687646484374	0.06643909606933593	0.1149216796875	2.590179443359375	-3.6773681640625	-0.919342041015625	9.785102185058593	0.2280477081298828	0.181959326171875	0.347137451171875	-4.764556884765625	-2.8533935546875	10.012551342773437	0.017956512451171875	-0.19632453613281248	3.887176513671875	-4.795074462890625	-2.22015380859375	
32	0.128	0.0	0.0	0.0	0.0	4.617	4.644	4.644	4.581	9.868300692749022	0.062249243164062495	0.10414777221679687	2.72369384765625	-3.490447998046875	-0.682830810546875	9.783306533813477	0.22266075439453123	0.1753752716064453	0.621795654296875	-4.93621826171875	-2.84576416015625	10.000580334472655	0.010175357055664061	-0.21009119567871093	3.66973876953125	-4.703521728515625	-2.08282470703125	
33	0.132	0.0	0.0	0.0	0.0	4.6080000000000005	4.641	4.644	4.596	9.879673150634765	0.06464344482421874	0.11013327636718749	2.5634765625	-3.650665283203125	-0.736236572265625	9.78629928588867	0.22685060729980466	0.18614917907714842	0.041961669921875	-4.8675537109375	-2.8533935546875	10.000580334472655	0.016160861206054686	-0.20290859069824219	3.76129150390625	-4.55474853515625	-2.269744873046875	
34	0.136	0.0	0.0	0.0	0.0	4.6080000000000005	4.65	4.65	4.602	9.87727894897461	0.06703764648437499	0.09696516723632811	2.590179443359375	-3.574371337890625	-0.698089599609375	9.787496386718749	0.2214636535644531	0.1693897674560547	0.370025634765625	-4.852294921875	-2.780914306640625	10.01015714111328	0.016759411621093748	-0.22864625854492185	3.692626953125	-4.7149658203125	-2.4261474609375	
35	0.14	0.0	0.0	0.0	0.0	4.6080000000000005	4.647	4.647	4.602	9.873687646484374	0.06703764648437499	0.10354922180175781	2.544403076171875	-3.7689208984375	-0.9765625	9.788693487548828	0.22864625854492185	0.1657984649658203	0.202178955078125	-4.73785400390625	-2.811431884765625	10.002375985717773	0.020949264526367185	-0.2316390106201172	3.7078857421875	-4.6844482421875	-2.0751953125	
36	0.14400000000000002	0.0	0.0	0.0	0.0	4.599	4.644	4.644	4.611	9.87608184814453	0.06404489440917968	0.09337386474609374	2.66265869140625	-3.665924072265625	-0.5645751953125	9.787496386718749	0.2262520568847656	0.1592144104003906	0.392913818359375	-4.817962646484375	-2.834320068359375	10.005368737792969	0.0143652099609375	-0.2472013214111328	3.643035888671875	-4.810333251953125	-2.178192138671875	
37	0.148	0.0	0.0	0.0	0.0	4.611	4.644	4.647	4.596	9.87608184814453	0.06045359191894531	0.08798691101074219	2.63214111328125	-3.72314453125	-0.6561279296875	9.785102185058593	0.22685060729980466	0.15502455749511718	0.362396240234375	-5.126953125	-2.841949462890625	10.016142645263672	0.013766659545898436	-0.24600422058105467	3.631591796875	-4.673004150390625	-2.26593017578125	
38	0.152	0.0	0.0	0.0	0.0	4.6080000000000005	4.65	4.647	4.5840000000000005	9.867103591918944	0.059256491088867186	0.09576806640624999	2.70843505859375	-3.444671630859375	-0.732421875	9.788094937133788	0.2280477081298828	0.15502455749511718	0.270843505859375	-4.7607421875	-2.8228759765625	10.005967288208007	0.02454056701660156	-0.22744915771484372	3.6773681640625	-4.69970703125	-2.17437744140625	
39	0.156	0.0	0.0	0.0	0.0	4.611	4.644	4.644	4.5840000000000005	9.866505041503906	0.06344634399414062	0.08319850769042968	2.620697021484375	-3.688812255859375	-0.701904296875	9.780912332153319	0.22565350646972654	0.16041151123046873	0.41961669921875	-4.63104248046875	-2.819061279296875	10.005967288208007	0.02154781494140625	-0.23882161560058593	3.528594970703125	-4.7454833984375	-2.201080322265625	
40	0.16	0.0	0.0	0.0	0.0	4.605	4.641	4.644	4.599	9.862315188598632	0.06045359191894531	0.07422025146484375	2.437591552734375	-3.5858154296875	-0.70953369140625	9.788094937133788	0.21787235107421873	0.15442600708007811	0.141143798828125	-4.940032958984375	-2.89154052734375	9.999383233642577	0.017357962036132813	-0.24121581726074218	3.814697265625	-4.680633544921875	-2.239227294921875	
41	0.164	0.0	0.0	0.0	0.0	4.605	4.65	4.65	4.605	9.873089096069336	0.06045359191894531	0.07422025146484375	2.716064453125	-3.688812255859375	-0.823974609375	9.787496386718749	0.2232593048095703	0.15981296081542967	0.19073486328125	-4.734039306640625	-2.750396728515625	10.006565838623047	0.009576806640625	-0.23882161560058593	3.509521484375	-4.482269287109375	-2.048492431640625	
42	0.168	0.0	0.0	0.0	0.0	4.6080000000000005	4.647	4.647	4.6080000000000005	9.872490545654296	0.06344634399414062	0.07601590270996093	2.5634765625	-3.551483154296875	-0.720977783203125	9.783905084228515	0.2214636535644531	0.15442600708007811	0.377655029296875	-4.962921142578125	-2.84576416015625	10.003573086547851	0.012569558715820313	-0.23403321228027343	3.5552978515625	-4.547119140625	-1.956939697265625	
43	0.17200000000000001	0.0	0.0	0.0	0.0	4.596	4.644	4.644	4.611	9.86411083984375	0.052073886108398436	0.08379705810546874	2.593994140625	-3.6468505859375	-0.75531005859375	9.783905084228515	0.2214636535644531	0.15741875915527342	0.278472900390625	-4.7454833984375	-2.712249755859375	10.002375985717773	0.008379705810546874	-0.229843359375	3.673553466796875	-4.665374755859375	-2.094268798828125	
44	0.176	0.0	0.0	0.0	0.0	4.611	4.647	4.65	4.593	9.861716638183593	0.05386953735351562	0.08319850769042968	2.31170654296875	-3.24249267578125	-0.6561279296875	9.791087689208984	0.21727380065917967	0.14903905334472656	0.171661376953125	-4.75311279296875	-2.727508544921875	9.996989031982421	0.018555062866210937	-0.23044190979003906	3.635406494140625	-4.57000732421875	-2.307891845703125	
45	0.18	0.0	0.0	0.0	0.0	4.611	4.65	4.644	4.581	9.871293444824218	0.06045359191894531	0.0718260498046875	2.57110595703125	-3.6773681640625	-0.667572021484375	9.78629928588867	0.2292448089599609	0.16160861206054686	0.499725341796875	-4.8980712890625	-2.79998779296875	10.007164389038085	0.022146365356445312	-0.23104046020507812	3.627777099609375	-4.6844482421875	-2.3651123046875	
46	0.184	0.0	0.0	0.0	0.0	4.611	4.647	4.644	4.587	9.865307940673828	0.062249243164062495	0.07122749938964844	2.437591552734375	-3.56292724609375	-0.629425048828125	9.783905084228515	0.22565350646972654	0.16160861206054686	0.324249267578125	-4.63104248046875	-2.6092529296875	10.014945544433592	0.02693476867675781	-0.22864625854492185	3.65447998046875	-4.604339599609375	-2.3193359375	
47	0.188	0.0	0.0	0.0	0.0	4.614	4.641	4.647	4.599	9.873687646484374	0.06464344482421874	0.07062894897460938	2.79998779296875	-3.726959228515625	-0.90789794921875	9.785102185058593	0.22744915771484372	0.15682020874023436	0.377655029296875	-4.58526611328125	-2.79998779296875	10.018536846923828	0.028730419921875	-0.22505495605468748	3.528594970703125	-4.53948974609375	-2.147674560546875	
48	0.192	0.0	0.0	0.0	0.0	4.6080000000000005	4.65	4.65	4.602	9.866505041503906	0.07302315063476562	0.07242460021972656	2.780914306640625	-3.70025634765625	-0.720977783203125	9.784503634643555	0.2328361114501953	0.14903905334472656	0.274658203125	-4.680633544921875	-2.8533935546875	10.008960040283203	0.032920272827148434	-0.23642741394042968	3.757476806640625	-4.695892333984375	-2.094268798828125	
49	0.196	0.0	0.0	0.0	0.0	4.602	4.644	4.647	4.605	9.866505041503906	0.08319850769042968	0.08499415893554688	2.6702880859375	-3.53240966796875	-0.77056884765625	9.787496386718749	0.2328361114501953	0.14784195251464843	0.438690185546875	-5.092620849609375	-2.956390380859375	9.996989031982421	0.0383072265625	-0.23044190979003906	3.536224365234375	-4.638671875	-2.201080322265625	
50	0.2	0.0	0.0	0.0	0.0	4.599	4.644	4.641	4.614	9.868899243164062	0.07841010437011718	0.0796072052001953	2.64739990234375	-3.795623779296875	-0.640869140625	9.787496386718749	0.24480711975097655	0.1514332550048828	0.67901611328125	-4.734039306640625	-2.681732177734375	10.005967288208007	0.04189852905273437	-0.24061726684570311	3.757476806640625	-4.5928955078125	-1.949310302734375	
51	0.20400000000000001	0.0	0.0	0.0	0.0	4.614	4.647	4.647	4.59	9.86351228942871	0.086191259765625	0.07721300354003906	2.544403076171875	-3.56292724609375	-0.87738037109375	9.787496386718749	0.2519897247314453	0.14963760375976562	0.301361083984375	-4.95147705078125	-2.773284912109375	10.01075569152832	0.04249707946777344	-0.23044190979003906	3.704071044921875	-4.57763671875	-2.12860107421875	
52	0.20800000000000002	0.0	0.0	0.0	0.0	4.614	4.647	4.644	4.581	9.871891995239258	0.08319850769042968	0.07541735229492187	2.552032470703125	-3.72314453125	-0.9002685546875	9.787496386718749	0.25737667846679685	0.14724340209960937	0.423431396484375	-4.726409912109375	-2.582550048828125	10.01015714111328	0.04967968444824218	-0.2442085693359375	3.57818603515625	-4.608154296875	-2.15911865234375	
53	0.212	0.0	0.0	0.0	0.0	4.611	4.647	4.644	4.587	9.87069489440918	0.09157821350097656	0.09337386474609374	2.765655517578125	-3.833770751953125	-0.86212158203125	9.785102185058593	0.24899697265624998	0.1592144104003906	0.16021728515625	-4.85992431640625	-2.773284912109375	10.013149893188476	0.05746083984375	-0.2454056701660156	3.71551513671875	-4.7454833984375	-2.002716064453125	
54	0.216	0.0	0.0	0.0	0.0	4.611	4.638	4.647	4.599	9.867103591918944	0.1005564697265625	0.08559270935058594	2.593994140625	-3.490447998046875	-0.873565673828125	9.788693487548828	0.258573779296875	0.15562310791015624	0.095367431640625	-4.55474853515625	-2.67791748046875	10.007762939453125	0.05027823486328125	-0.2519897247314453	3.604888916015625	-4.55474853515625	-2.1820068359375	
55	0.22	0.0	0.0	0.0	0.0	4.614	4.65	4.65	4.602	9.867702142333984	0.09516951599121093	0.09995791931152344	2.7008056640625	-3.59344482421875	-0.560760498046875	9.79348189086914	0.25917232971191406	0.15263035583496093	0.37384033203125	-4.79888916015625	-2.75421142578125	10.00417163696289	0.05386953735351562	-0.24181436767578124	3.57818603515625	-4.650115966796875	-1.918792724609375	
56	0.224	0.0	0.0	0.0	0.0	4.602	4.644	4.644	4.605	9.868300692749022	0.08738836059570312	0.09995791931152344	2.674102783203125	-3.7078857421875	-0.667572021484375	9.78629928588867	0.2561795776367187	0.15023615417480468	0.293731689453125	-4.665374755859375	-2.689361572265625	10.008960040283203	0.04967968444824218	-0.23523031311035156	3.53240966796875	-4.69970703125	-2.3193359375	
57	0.228	0.0	0.0	0.0	0.0	4.599	4.644	4.641	4.611	9.872490545654296	0.09038111267089843	0.10594342346191406	2.552032470703125	-3.631591796875	-0.7476806640625	9.785102185058593	0.24779987182617186	0.16998831787109375	0.1678466796875	-5.016326904296875	-2.735137939453125	10.00955859069824	0.047285482788085934	-0.22206220397949217	3.631591796875	-4.6844482421875	-2.0599365234375	
58	0.232	0.0	0.0	0.0	0.0	4.611	4.65	4.65	4.587	9.868300692749022	0.08379705810546874	0.09756371765136718	2.4871826171875	-3.627777099609375	-0.72479248046875	9.785102185058593	0.2442085693359375	0.17417817077636719	0.29754638671875	-4.82940673828125	-2.712249755859375	10.01015714111328	0.04369418029785156	-0.2166752502441406	3.787994384765625	-4.8065185546875	-2.185821533203125	
59	0.23600000000000002	0.0	0.0	0.0	0.0	4.614	4.647	4.647	4.581	9.872490545654296	0.076614453125	0.08798691101074219	2.3345947265625	-3.543853759765625	-0.782012939453125	9.783905084228515	0.24301146850585936	0.18076222534179687	0.514984130859375	-4.82177734375	-3.055572509765625	9.995791931152343	0.037110125732421874	-0.21009119567871093	3.620147705078125	-4.547119140625	-2.06756591796875	
60	0.24	0.0	0.0	0.0	0.0	4.6080000000000005	4.644	4.644	4.59	9.868899243164062	0.07721300354003906	0.09995791931152344	2.593994140625	-3.353118896484375	-0.873565673828125	9.785700735473633	0.23223756103515625	0.17357962036132812	0.293731689453125	-4.7760009765625	-2.69317626953125	10.001777435302733	0.037110125732421874	-0.21009119567871093	3.6773681640625	-4.756927490234375	-2.040863037109375	
61	0.244	0.0	0.0	0.0	0.0	4.6080000000000005	4.65	4.647	4.599	9.880870251464843	0.07541735229492187	0.10654197387695312	2.727508544921875	-3.520965576171875	-0.873565673828125	9.787496386718749	0.23223756103515625	0.17298106994628906	0.484466552734375	-4.9285888671875	-2.86102294921875	10.006565838623047	0.028131869506835935	-0.19632453613281248	3.665924072265625	-4.764556884765625	-2.0904541015625	
62	0.248	0.0	0.0	0.0	0.0	4.6080000000000005	4.65	4.65	4.602	9.87668039855957	0.07003039855957031	0.10893617553710937	2.696990966796875	-3.509521484375	-0.743865966796875	9.780912332153319	0.2292448089599609	0.18255787658691405	0.09918212890625	-4.566192626953125	-2.70843505859375	10.006565838623047	0.020350714111328123	-0.20290859069824219	3.73077392578125	-4.6844482421875	-2.05230712890625	
63	0.252	0.0	0.0	0.0	0.0	4.599	4.644	4.647	4.6080000000000005	9.867103591918944	0.062249243164062495	0.1083376251220703	2.685546875	-3.631591796875	-0.701904296875	9.788094937133788	0.21966800231933592	0.17956512451171874	0.232696533203125	-4.6539306640625	-2.841949462890625	10.01733974609375	0.022146365356445312	-0.20649989318847656	3.692626953125	-4.627227783203125	-2.26593017578125	
64	0.256	0.0	0.0	0.0	0.0	4.6080000000000005	4.647	4.641	4.599	9.88386300354004	0.08200140686035155	0.10474632263183593	2.9144287109375	-3.932952880859375	-0.64849853515625	9.783905084228515	0.20171148986816406	0.17657237243652343	0.446319580078125	-4.970550537109375	-2.925872802734375	9.980828170776366	-0.02633621826171875	-0.15741875915527342	3.95965576171875	-4.69970703125	-2.109527587890625	
65	0.26	0.0	0.0	0.0	0.0	4.6080000000000005	4.65	4.647	4.5840000000000005	9.882067352294921	0.11611878051757812	0.11372457885742186	2.933502197265625	-3.665924072265625	-0.728607177734375	9.772532626342773	0.32620997619628905	0.17896657409667968	0.438690185546875	-4.711151123046875	-2.841949462890625	9.986215124511718	0.13108254089355467	-0.18854338073730467	4.032135009765625	-4.66156005859375	-2.35748291015625	
66	0.264	0.0	0.0	0.0	0.0	4.614	4.647	4.644	4.578	9.88386300354004	0.04548983154296875	0.10953472595214843	2.716064453125	-3.70025634765625	-0.4119873046875	9.79348189086914	0.10115502014160156	0.14724340209960937	0.40435791015625	-4.817962646484375	-2.69317626953125	9.959280355834961	-0.07481880187988281	-0.17956512451171874	3.643035888671875	-4.474639892578125	-2.017974853515625	
67	0.268	0.0	0.0	0.0	0.0	4.617	4.644	4.644	4.593	9.883264453125	0.059256491088867186	0.12569558715820311	2.78472900390625	-3.696441650390625	-0.7476806640625	9.787496386718749	0.239420166015625	0.20829554443359374	0.5340576171875	-4.848480224609375	-3.16619873046875	9.995791931152343	0.07541735229492187	-0.1945288848876953	3.66973876953125	-4.72259521484375	-2.44140625	
68	0.272	0.0	0.0	0.0	0.0	4.602	4.65	4.65	4.605	9.878476049804688	0.040701428222656245	0.055066638183593745	2.35748291015625	-3.368377685546875	-0.79345703125	9.759963067626952	0.2645592834472656	0.16998831787109375	0.408172607421875	-3.940582275390625	-2.43377685546875	9.967061511230469	0.10115502014160156	-0.17357962036132812	3.76129150390625	-4.680633544921875	-1.88446044921875	
69	0.276	0.0	0.0	0.0	0.0	4.611	4.65	4.65	4.605	9.879074600219726	0.016759411621093748	0.12330138549804687	2.941131591796875	-3.70025634765625	-0.667572021484375	9.770138424682617	0.18315642700195311	0.18076222534179687	0.522613525390625	-4.70733642578125	-2.895355224609375	9.95987890625	-0.0526724365234375	-0.22385785522460935	3.77655029296875	-4.489898681640625	-2.0904541015625	
70	0.28	0.0	0.0	0.0	0.0	4.596	4.644	4.647	4.611	9.873687646484374	-0.040102877807617184	0.062249243164062495	2.269744873046875	-3.39508056640625	-0.96893310546875	9.791087689208984	0.20709844360351562	0.1657984649658203	0.476837158203125	-4.95147705078125	-2.9296875	9.970054263305663	-0.02633621826171875	-0.16759411621093748	3.597259521484375	-4.7454833984375	-2.185821533203125	
71	0.28400000000000003	0.0	0.0	0.0	0.0	4.611	4.644	4.647	4.596	9.880870251464843	0.09816226806640624	0.11671733093261719	2.777099609375	-3.44085693359375	-1.10626220703125	9.77432827758789	0.37708676147460934	0.18255787658691405	0.20599365234375	-4.8675537109375	-2.95257568359375	10.006565838623047	0.08858546142578125	-0.24061726684570311	3.650665283203125	-4.46319580078125	-2.15911865234375	
72	0.28800000000000003	0.0	0.0	0.0	0.0	4.605	4.65	4.647	4.581	9.873089096069336	0.011971008300781249	0.029328970336914062	2.28118896484375	-3.742218017578125	-0.93841552734375	9.76894132385254	0.21787235107421873	0.15263035583496093	0.1983642578125	-4.76837158203125	-2.5787353515625	9.982623822021484	0.08678981018066406	-0.2442085693359375	3.875732421875	-4.6234130859375	-1.85394287109375	
73	0.292	0.0	0.0	0.0	0.0	4.617	4.647	4.644	4.581	9.835380419921874	-0.004189852905273437	0.07062894897460938	2.3345947265625	-3.391265869140625	-0.90789794921875	9.813832604980469	0.12389993591308593	0.12030863342285156	0.49591064453125	-4.863739013671875	-3.070831298828125	9.975441217041014	-0.05566518859863281	-0.18076222534179687	3.59344482421875	-4.58526611328125	-2.521514892578125	
74	0.296	0.0	0.0	0.0	0.0	4.6080000000000005	4.641	4.644	4.599	9.893439810180663	0.04189852905273437	0.020949264526367185	2.3193359375	-3.4332275390625	-1.026153564453125	9.79348189086914	0.3363853332519531	0.1388636962890625	0.69427490234375	-5.069732666015625	-2.780914306640625	10.03050785522461	0.1879448303222656	-0.24121581726074218	3.70025634765625	-4.787445068359375	-1.86920166015625	
75	0.3	0.0	0.0	0.0	0.0	4.602	4.65	4.65	4.599	9.841365924072266	0.013766659545898436	0.040102877807617184	2.15911865234375	-3.543853759765625	-0.7781982421875	9.78629928588867	0.18614917907714842	0.08918401184082031	0.3509521484375	-4.848480224609375	-2.8533935546875	10.06163247680664	-0.10115502014160156	-0.373495458984375	3.7994384765625	-4.57000732421875	-2.109527587890625	
76	0.304	0.0	0.0	0.0	0.0	4.6080000000000005	4.65	4.647	4.602	9.790489138793944	0.143652099609375	0.24301146850585936	2.338409423828125	-3.376007080078125	-0.560760498046875	9.746794958496093	0.2424129180908203	0.27353753967285155	0.152587890625	-4.779815673828125	-2.712249755859375	10.01015714111328	0.10115502014160156	-0.21068974609375	3.5247802734375	-4.69970703125	-2.094268798828125	
77	0.308	0.0	0.0	0.0	0.0	4.599	4.644	4.644	4.611	9.850344180297851	-0.02454056701660156	0.020949264526367185	2.1209716796875	-3.47137451171875	-1.064300537109375	9.828796365356444	0.23403321228027343	0.10235212097167969	0.12969970703125	-4.749298095703125	-2.99072265625	10.155604891967773	-0.11671733093261719	-0.37409400939941406	3.68499755859375	-4.627227783203125	-2.26593017578125	
78	0.312	0.0	0.0	0.0	0.0	4.611	4.647	4.65	4.593	9.788094937133788	0.16819266662597654	0.20769699401855468	2.300262451171875	-3.383636474609375	-0.820159912109375	9.74859060974121	0.3058592620849609	0.2507926239013672	0.370025634765625	-5.18035888671875	-2.899169921875	9.999383233642577	0.14544775085449219	-0.20470424194335937	3.574371337890625	-4.81414794921875	-1.895904541015625	
79	0.316	0.0	0.0	0.0	0.0	4.6080000000000005	4.65	4.647	4.587	9.827000714111328	-0.05686228942871093	0.047884033203124995	2.25830078125	-3.299713134765625	-1.0986328125	9.842563024902343	-0.013766659545898436	0.08918401184082031	0.40435791015625	-4.82177734375	-2.635955810546875	10.103531005859374	-0.16160861206054686	-0.37229835815429685	3.51715087890625	-4.535675048828125	-2.197265625	
80	0.32	0.0	0.0	0.0	0.0	4.614	4.647	4.644	4.581	9.779715231323241	0.13946224670410157	0.229843359375	2.22015380859375	-3.6163330078125	-0.74005126953125	9.797671743774414	0.3178302703857422	0.27353753967285155	0.080108642578125	-5.298614501953125	-2.75421142578125	10.078391888427733	0.24301146850585936	-0.1879448303222656	3.803253173828125	-4.741668701171875	-2.31170654296875	
81	0.324	0.0	0.0	0.0	0.0	4.614	4.638	4.644	4.602	9.90840357055664	-0.08678981018066406	0.07601590270996093	1.789093017578125	-3.124237060546875	-0.84686279296875	9.885658654785155	-0.010773907470703125	0.07003039855957031	0.244140625	-4.741668701171875	-2.910614013671875	10.120888967895507	-0.1592144104003906	-0.4034229797363281	4.00543212890625	-4.85992431640625	-2.368927001953125	
82	0.328	0.0	0.0	0.0	0.0	4.6080000000000005	4.65	4.65	4.605	9.765948571777344	0.17896657409667968	0.2316390106201172	2.246856689453125	-3.33404541015625	-1.0223388671875	9.763554370117188	0.3716998077392578	0.1801636749267578	0.461578369140625	-4.78363037109375	-2.796173095703125	10.02990930480957	0.26336218261718747	-0.18734627990722655	3.76129150390625	-4.398345947265625	-2.216339111328125	
83	0.332	0.0	0.0	0.0	0.0	4.6080000000000005	4.647	4.647	4.602	9.911396322631836	-0.04608838195800781	0.11192892761230468	2.140045166015625	-3.253936767578125	-0.732421875	9.888651406860351	-0.00239420166015625	0.07481880187988281	0.408172607421875	-4.78363037109375	-2.933502197265625	10.053252770996092	-0.12150573425292968	-0.28909985046386716	3.72314453125	-4.87518310546875	-2.166748046875	
84	0.336	0.0	0.0	0.0	0.0	4.599	4.644	4.644	4.611	9.777919580078125	0.16460136413574217	0.19093758239746092	3.070831298828125	-3.887176513671875	-0.850677490234375	9.789890588378906	0.3573345977783203	0.17238251953125	0.48065185546875	-4.856109619140625	-2.780914306640625	10.053252770996092	0.25318682556152344	-0.21248539733886718	3.814697265625	-4.7149658203125	-2.288818359375	
85	0.34	0.0	0.0	0.0	0.0	4.611	4.644	4.65	4.593	9.907206469726562	-0.008379705810546874	0.10354922180175781	1.8463134765625	-3.116607666015625	-0.728607177734375	9.853336932373047	-0.003591302490234375	0.12808978881835936	0.087738037109375	-4.787445068359375	-2.513885498046875	10.041281762695311	-0.12210428466796874	-0.316034619140625	3.856658935546875	-4.8675537109375	-2.140045166015625	
86	0.34400000000000003	0.0	0.0	0.0	0.0	4.611	4.65	4.647	4.5840000000000005	9.87608184814453	0.21966800231933592	0.028730419921875	2.887725830078125	-3.910064697265625	-0.7171630859375	9.760561618041992	0.3968389251708984	0.1945288848876953	0.34332275390625	-5.039215087890625	-2.895355224609375	9.9215716796875	0.18614917907714842	-0.1592144104003906	3.726959228515625	-4.673004150390625	-2.2430419921875	
87	0.34800000000000003	0.0	0.0	0.0	0.0	4.614	4.647	4.644	4.5840000000000005	9.92755718383789	-0.025737667846679687	0.09636661682128905	2.00653076171875	-3.4027099609375	-0.86212158203125	9.817423907470703	0.03950432739257812	0.09636661682128905	0.354766845703125	-4.638671875	-2.532958984375	10.065223779296874	-0.1640028137207031	-0.34656069030761716	3.681182861328125	-4.7454833984375	-2.01416015625	
88	0.352	0.0	0.0	0.0	0.0	4.611	4.635	4.644	4.599	9.883264453125	0.24600422058105467	0.008978256225585938	3.021240234375	-3.726959228515625	-0.64849853515625	9.7545761138916	0.44113165588378905	0.1927332336425781	0.6103515625	-4.8065185546875	-2.3193359375	9.910199221801758	0.19871873779296872	-0.18315642700195311	3.665924072265625	-4.596710205078125	-2.13623046875	
89	0.356	0.0	0.0	0.0	0.0	4.6080000000000005	4.65	4.65	4.605	9.900023864746093	0.32561142578124996	0.047285482788085934	3.47900390625	-4.123687744140625	-0.2593994140625	9.803657247924804	0.03950432739257812	0.12389993591308593	0.16021728515625	-4.81414794921875	-2.758026123046875	10.01674119567871	-0.2262520568847656	-0.0939724151611328	3.704071044921875	-4.57000732421875	-2.0751953125	
90	0.36	0.0	0.0	0.0	0.0	4.605	4.644	4.647	4.6080000000000005	9.897629663085937	0.21068974609375	0.010773907470703125	2.834320068359375	-3.84521484375	-0.6256103515625	9.733626849365233	0.35793314819335936	0.16998831787109375	0.54931640625	-4.611968994140625	-3.047943115234375	9.91438907470703	0.15442600708007811	-0.16639701538085935	3.9215087890625	-4.69207763671875	-2.292633056640625	
91	0.364	0.0	0.0	0.0	0.0	4.596	4.644	4.641	4.611	9.89463691101074	0.3327940307617187	0.007781155395507812	3.4637451171875	-4.108428955078125	-0.32806396484375	9.821015209960937	0.02454056701660156	0.09516951599121093	0.209808349609375	-4.993438720703125	-2.712249755859375	9.916783276367187	0.08499415893554688	-0.1131260284423828	3.528594970703125	-4.695892333984375	-1.922607421875	
92	0.368	0.0	0.0	0.0	0.0	4.611	4.65	4.647	4.59	9.860519537353515	0.21906945190429686	0.051475335693359374	3.269195556640625	-3.88336181640625	-0.67138671875	9.705494979858399	0.4052186309814453	0.18435352783203124	0.29754638671875	-4.550933837890625	-3.173828125	9.868899243164062	0.19692308654785154	-0.12629413757324218	3.658294677734375	-4.550933837890625	-2.4261474609375	
93	0.372	0.0	0.0	0.0	0.0	4.611	4.65	4.647	4.581	9.879074600219726	0.3268085266113281	0.023942016601562498	3.368377685546875	-4.1351318359375	-0.43487548828125	9.725845693969726	0.36212300109863277	0.1879448303222656	0.286102294921875	-4.970550537109375	-2.681732177734375	9.887454306030273	0.0053869537353515625	-0.076614453125	3.849029541015625	-4.772186279296875	-1.7242431640625	
94	0.376	0.0	0.0	0.0	0.0	4.611	4.647	4.644	4.587	9.890447058105469	0.11671733093261719	0.12689268798828124	3.940582275390625	-4.154205322265625	-0.362396240234375	9.739013803100585	0.4004302276611328	0.16220716247558592	0.60272216796875	-4.7607421875	-3.078460693359375	9.962273107910155	-0.06105214233398437	-0.2184709014892578	3.856658935546875	-4.535675048828125	-2.574920654296875	
95	0.38	0.0	0.0	0.0	0.0	4.614	4.635	4.644	4.596	9.882067352294921	0.36391865234375	0.009576806640625	3.509521484375	-4.21905517578125	-0.232696533203125	9.700108026123047	0.42317514343261714	0.2059013427734375	0.476837158203125	-4.955291748046875	-2.361297607421875	9.873687646484374	0.055066638183593745	-0.05566518859863281	3.631591796875	-4.57000732421875	-1.819610595703125	
96	0.384	0.0	0.0	0.0	0.0	4.6080000000000005	4.65	4.65	4.605	9.85692823486328	0.11252747802734374	0.13946224670410157	3.97491455078125	-4.2724609375	-0.377655029296875	9.785102185058593	0.21607669982910155	0.19512743530273435	0.202178955078125	-4.669189453125	-3.215789794921875	9.926360083007811	-0.06045359191894531	-0.19333178405761717	3.76129150390625	-4.241943359375	-2.57110595703125	
97	0.388	0.0	0.0	0.0	0.0	4.602	4.647	4.647	4.611	9.917980377197265	0.33758243408203126	-0.00718260498046875	2.391815185546875	-3.345489501953125	-0.885009765625	9.737218151855469	0.3716998077392578	0.17178396911621094	0.37384033203125	-5.123138427734375	-2.5482177734375	10.01674119567871	0.25258827514648435	-0.1466448516845703	3.60870361328125	-4.6844482421875	-1.987457275390625	
98	0.392	0.0	0.0	0.0	0.0	4.593	4.647	4.641	4.611	9.872490545654296	0.11133037719726561	0.10235212097167969	4.100799560546875	-4.169464111328125	-0.2593994140625	9.801861596679688	0.2166752502441406	0.17058686828613281	0.1983642578125	-5.05828857421875	-3.22723388671875	9.928754284667969	-0.06344634399414062	-0.20649989318847656	3.7994384765625	-4.467010498046875	-2.651214599609375	
99	0.396	0.0	0.0	0.0	0.0	4.611	4.647	4.65	4.59	9.82520506286621	0.07541735229492187	0.28969840087890625	2.43377685546875	-3.56292724609375	-0.682830810546875	9.769539874267577	0.37888241271972656	0.30705636291503907	0.164031982421875	-4.8828125	-2.719879150390625	9.982025271606444	0.27952304382324217	-0.14724340209960937	3.72314453125	-4.787445068359375	-1.842498779296875	
100	0.4	0.0	0.0	0.0	0.0	2.307	0.006	0.003	0.003	9.872490545654296	0.12090718383789062	0.08080430603027343	4.528045654296875	-4.215240478515625	-0.072479248046875	9.803058697509766	0.21308394775390624	0.16639701538085935	0.286102294921875	-4.57000732421875	-3.24249267578125	10.223839639282225	-0.30705636291503907	-0.5015852478027344	3.673553466796875	-4.5013427734375	-2.47955322265625	
101	0.404	0.0	0.0	0.0	0.0	0.0	0.003	0.003	0.003	9.819818109130859	0.0430956298828125	0.29269115295410153	2.460479736328125	-3.326416015625	-0.6561279296875	9.79946739501953	0.36092590026855464	0.28012159423828126	0.12969970703125	-5.031585693359375	-2.346038818359375	10.024522351074218	0.25737667846679685	-0.15442600708007811	3.810882568359375	-4.5623779296875	-1.70135498046875	
102	0.40800000000000003	0.0	0.0	0.0	0.0	0.003	0.003	0.003	0.006	9.884461553955077	-0.47584757995605464	-0.07242460021972656	0.041961669921875	-2.613067626953125	-1.89208984375	9.925761532592773	-0.2059013427734375	-0.02633621826171875	0.415802001953125	-5.069732666015625	-2.70843505859375	10.224438189697265	-0.3705027069091797	-0.5015852478027344	3.711700439453125	-4.650115966796875	-2.246856689453125	
103	0.41200000000000003	0.0	0.0	0.0	0.0	0.0	0.003	0.003	0.003	9.787496386718749	0.033518823242187495	0.32561142578124996	2.178192138671875	-3.36456298828125	-0.682830810546875	9.785700735473633	0.3968389251708984	0.2603694305419922	-0.278472900390625	-5.168914794921875	-2.353668212890625	10.008361489868163	0.3112462158203125	-0.16639701538085935	3.734588623046875	-4.57000732421875	-1.659393310546875	
104	0.41600000000000004	0.0	0.0	0.0	0.0	0.003	0.003	0.006	0.006	9.900023864746093	-0.49380409240722656	-0.07781155395507812	-0.240325927734375	-2.101898193359375	-1.819610595703125	9.938331091308592	-0.19812018737792966	-0.06284779357910156	0.392913818359375	-4.840850830078125	-2.73895263671875	10.24000050048828	-0.3573345977783203	-0.5327098693847656	3.7841796875	-4.589080810546875	-2.3956298828125	
105	0.42	0.0	0.0	0.0	0.0	0.006	0.006	0.003	0.009000000000000001	9.751583361816406	-0.02693476867675781	0.32561142578124996	1.728057861328125	-3.376007080078125	-0.81634521484375	9.715670336914062	0.4387374542236328	0.2555810272216797	0.1983642578125	-4.695892333984375	-2.902984619140625	10.05504842224121	0.32082302246093747	-0.18614917907714842	3.692626953125	-4.81414794921875	-2.246856689453125	
106	0.424	0.0	0.0	0.0	0.0	0.006	0.003	0.003	0.006	9.890447058105469	-0.5021837982177734	-0.06404489440917968	-0.507354736328125	-2.040863037109375	-1.93023681640625	9.919177478027343	-0.18136077575683593	-0.04369418029785156	-0.102996826171875	-4.8370361328125	-2.811431884765625	10.232817895507813	-0.35673604736328124	-0.51714755859375	3.467559814453125	-4.46319580078125	-2.15911865234375	
107	0.428	0.0	0.0	0.0	0.0	0.006	0.006	0.003	0.003	9.808445651245117	0.12389993591308593	0.1083376251220703	0.972747802734375	-2.567291259765625	-1.430511474609375	9.703100778198241	0.488417138671875	0.2950853546142578	0.57220458984375	-5.146026611328125	-2.681732177734375	10.054449871826172	0.3812766143798828	-0.17238251953125	3.574371337890625	-4.756927490234375	-2.117156982421875	
108	0.432	0.0	0.0	0.0	0.0	0.003	0.006	0.003	0.006	9.897629663085937	-0.5225345123291015	-0.05327098693847656	-1.28173828125	-1.80816650390625	-2.02178955078125	9.941922393798828	-0.21128829650878905	-0.054468087768554684	0.63323974609375	-4.9285888671875	-2.735137939453125	10.098144052124022	-0.2950853546142578	-0.34057518615722654	3.71551513671875	-4.974365234375	-1.85394287109375	
109	0.436	0.0	0.0	0.0	0.0	0.012	0.003	0.006	0.006	9.83837317199707	0.1945288848876953	0.12449848632812499	1.148223876953125	-2.658843994140625	-1.407623291015625	9.67137760620117	0.5111620544433594	0.3387795349121094	0.049591064453125	-4.863739013671875	-2.6397705078125	10.038887561035155	0.411802685546875	-0.12689268798828124	3.73077392578125	-4.993438720703125	-2.1514892578125	
110	0.44	0.0	0.0	0.0	0.0	0.003	0.003	0.006	0.006	9.906607919311522	-0.5027823486328125	-0.03950432739257812	3.4942626953125	-1.102447509765625	-2.140045166015625	9.810241302490233	-0.1484405029296875	0.19213468322753904	0.457763671875	-4.726409912109375	-2.7008056640625	10.077793338012695	-0.30526071166992186	-0.3220201232910156	3.696441650390625	-4.93621826171875	-1.74713134765625	
111	0.444	0.0	0.0	0.0	0.0	0.003	0.003	0.003	0.003	9.892841259765625	0.2609679809570312	0.11013327636718749	1.434326171875	-3.177642822265625	-1.346588134765625	9.689334118652344	0.4626794708251953	0.3298012786865234	0.4730224609375	-4.894256591796875	-2.7313232421875	9.834183319091796	0.16280571289062498	-0.1005564697265625	3.68499755859375	-4.73785400390625	-2.590179443359375	
112	0.448	0.0	0.0	0.0	0.0	0.003	0.003	0.003	0.006	10.00417163696289	0.3956418243408203	0.11731588134765625	4.0130615234375	-4.3792724609375	0.202178955078125	9.801861596679688	-0.12868833923339842	0.2088940948486328	0.40435791015625	-4.98199462890625	-2.6702880859375	10.08677159423828	-0.27174188842773433	-0.31483751831054685	3.5858154296875	-4.764556884765625	-1.6021728515625	
113	0.452	0.0	0.0	0.0	0.0	0.006	0.003	0.003	0.003	9.923965881347655	0.3286041778564453	0.13168109130859373	1.636505126953125	-2.92205810546875	-1.312255859375	9.715071786499022	0.5231330627441406	0.20171148986816406	0.629425048828125	-4.4403076171875	-3.25775146484375	9.813832604980469	0.1945288848876953	-0.09337386474609374	3.82232666015625	-4.69970703125	-2.460479736328125	
114	0.456	0.0	0.0	0.0	0.0	0.003	0.003	0.003	0.003	10.005967288208007	0.4285620971679687	0.105344873046875	4.5928955078125	-4.398345947265625	0.2899169921875	9.81862100830078	-0.13587094421386717	0.18854338073730467	0.3814697265625	-5.069732666015625	-2.536773681640625	10.09993970336914	-0.30406361083984373	-0.31184476623535157	3.57818603515625	-5.786895751953125	-1.88446044921875	
115	0.46	0.0	0.0	0.0	0.0	0.003	0.003	0.003	0.006	9.923965881347655	0.23882161560058593	0.10654197387695312	6.47735595703125	-5.25665283203125	0.49591064453125	9.72943699645996	0.5458779785156249	0.229843359375	0.812530517578125	-4.8370361328125	-3.39508056640625	9.835380419921874	0.21188684692382811	-0.07302315063476562	3.726959228515625	-4.55474853515625	-2.5787353515625	
116	0.464	0.0	0.0	0.0	0.0	0.0	0.006	0.003	0.003	10.01015714111328	0.4632780212402344	0.0909796630859375	4.451751708984375	-4.482269287109375	0.31280517578125	9.712079034423828	0.35613749694824215	0.1897404815673828	0.347137451171875	-4.764556884765625	-2.651214599609375	9.828796365356444	0.08140285644531249	-0.11372457885742186	3.4942626953125	-4.70733642578125	-1.83868408203125	
117	0.468	0.0	0.0	0.0	0.0	0.006	0.006	0.003	0.006	9.925761532592773	0.277727392578125	0.11552023010253906	6.59942626953125	-5.504608154296875	0.52642822265625	9.72285294189453	0.5835866546630859	0.22086510314941404	0.782012939453125	-4.79888916015625	-3.10516357421875	9.815029705810547	0.26755203552246093	-0.05985504150390625	3.589630126953125	-4.520416259765625	-2.490997314453125	
118	0.47200000000000003	0.0	0.0	0.0	0.0	0.006	0.003	0.006	0.006	10.029310754394531	0.5482721801757812	0.09636661682128905	5.153656005859375	-5.138397216796875	0.644683837890625	9.698910925292969	0.3860650177001953	0.22685060729980466	0.354766845703125	-5.06591796875	-2.658843994140625	9.858723886108399	0.13407529296874998	-0.15741875915527342	3.57818603515625	-4.61578369140625	-1.74713134765625	
119	0.47600000000000003	0.0	0.0	0.0	0.0	0.006	0.003	0.003	0.006	9.91438907470703	0.2855085479736328	0.11432312927246092	6.565093994140625	-5.340576171875	0.362396240234375	9.798270294189452	0.2603694305419922	0.10594342346191406	0.370025634765625	-4.63104248046875	-3.360748291015625	9.964667309570311	-0.023343466186523436	-0.31663316955566406	3.833770751953125	-4.604339599609375	-2.544403076171875	
120	0.48	0.0	0.0	0.0	0.0	0.003	0.006	0.003	0.006	9.840168823242188	0.07062894897460938	-0.055066638183593745	3.74603271484375	-4.253387451171875	-0.1983642578125	9.693523971557617	0.3286041778564453	0.23343466186523437	0.026702880859375	-4.741668701171875	-2.471923828125	9.849147079467773	0.11731588134765625	-0.15861585998535155	3.696441650390625	-4.82940673828125	-1.953125	
121	0.484	0.0	0.0	0.0	0.0	0.0	0.003	0.006	0.006	9.897629663085937	0.3010708587646484	0.13287819213867186	6.9122314453125	-5.580902099609375	0.446319580078125	9.78689783630371	0.258573779296875	0.12150573425292968	0.030517578125	-4.9285888671875	-3.337860107421875	9.970652813720703	-0.03172317199707031	-0.32561142578124996	3.6468505859375	-4.482269287109375	-2.89154052734375	
122	0.488	0.0	0.0	0.0	0.0	0.006	0.003	0.006	0.003	9.826402163696288	0.05805939025878906	-0.03411737365722656	3.47137451171875	-4.375457763671875	-0.4730224609375	9.80724855041504	0.43574470214843747	0.1322796417236328	-0.1373291015625	-4.756927490234375	-2.3193359375	10.001178884887695	0.411802685546875	-0.11073182678222655	4.032135009765625	-4.711151123046875	-1.880645751953125	
123	0.492	0.0	0.0	0.0	0.0	0.006	0.003	0.006	0.003	9.886855755615233	0.23403321228027343	0.15741875915527342	0.553131103515625	-5.420684814453125	0.4425048828125	9.784503634643555	0.18854338073730467	0.10474632263183593	0.125885009765625	-4.665374755859375	-3.5552978515625	9.938331091308592	-0.0383072265625	-0.3082534637451172	3.7841796875	-4.38690185546875	-2.811431884765625	
124	0.496	0.0	0.0	0.0	0.0	0.006	0.006	0.003	0.003	9.819818109130859	-0.05327098693847656	-0.003591302490234375	2.95257568359375	-4.093170166015625	-0.476837158203125	9.811438403320311	0.3286041778564453	0.13347674255371092	-0.240325927734375	-4.779815673828125	-2.35748291015625	9.991003527832031	0.35015199279785153	-0.08259995727539061	3.772735595703125	-4.596710205078125	-1.79290771484375	
125	0.5	0.0	0.0	0.0	0.0	0.006	0.003	0.003	0.003	9.759963067626952	-0.45190556335449217	-0.037110125732421874	0.171661376953125	-2.5787353515625	-1.857757568359375	9.941922393798828	-0.16041151123046873	-0.040701428222656245	0.54931640625	-4.955291748046875	-2.773284912109375	9.967061511230469	0.14724340209960937	-0.30885201416015623	3.80706787109375	-4.634857177734375	-2.605438232421875	
126	0.504	0.0	0.0	0.0	0.0	0.003	0.006	0.003	0.003	9.788693487548828	-0.011372457885742187	0.005985504150390624	2.712249755859375	-3.7994384765625	-0.705718994140625	9.792284790039062	0.3585316986083984	0.13407529296874998	0.003814697265625	-4.81414794921875	-2.08282470703125	9.974244116210937	0.4961982940673828	-0.08559270935058594	3.7841796875	-4.57000732421875	-1.73187255859375	
127	0.508	0.0	0.0	0.0	0.0	0.003	0.006	0.003	0.006	9.75517466430664	-0.6099228729248046	-0.07541735229492187	-0.091552734375	-2.162933349609375	-2.20489501953125	9.92217023010254	-0.34536358947753903	-0.020350714111328123	0.514984130859375	-4.7760009765625	-2.76947021484375	10.24718310546875	-0.6266822845458984	-0.507570751953125	3.71551513671875	-4.669189453125	-2.410888671875	
128	0.512	0.0	0.0	0.0	0.0	0.0	0.003	0.003	0.003	9.683348614501952	0.0718260498046875	0.43514615173339843	-0.293731689453125	-1.926422119140625	-1.71661376953125	9.834781869506836	0.24361001892089842	0.11133037719726561	0.55694580078125	-4.810333251953125	-2.803802490234375	10.062829577636718	0.3573345977783203	-0.1149216796875	3.83758544921875	-4.642486572265625	-2.269744873046875	
129	0.516	0.0	0.0	0.0	0.0	0.003	0.006	0.006	0.003	9.789890588378906	-0.3908534210205078	-0.11372457885742186	-0.118255615234375	-2.277374267578125	-1.9683837890625	9.903615167236328	-0.11611878051757812	-0.016160861206054686	0.518798828125	-5.0048828125	-2.681732177734375	10.245986004638672	-0.36930560607910157	-0.49739539489746093	3.726959228515625	-4.63104248046875	-2.124786376953125	
130	0.52	0.0	0.0	0.0	0.0	0.006	0.003	0.003	0.003	9.696516723632811	0.16220716247558592	0.4369418029785156	0.461578369140625	-2.254486083984375	-1.3275146484375	9.680355862426758	0.3908534210205078	0.4064157318115234	0.637054443359375	-4.76837158203125	-2.41851806640625	10.046668716430663	0.13407529296874998	-0.14544775085449219	3.71551513671875	-4.909515380859375	-1.76239013671875	
131	0.524	0.0	0.0	0.0	0.0	0.003	0.003	0.003	0.006	9.848548529052733	-0.12808978881835936	-0.14245499877929688	0.64849853515625	-2.819061279296875	-1.77001953125	9.96586441040039	-0.3076549133300781	-0.022744915771484374	0.392913818359375	-4.8980712890625	-2.87628173828125	10.32379755859375	-0.6739677673339843	-0.4944026428222656	3.8909912109375	-4.840850830078125	-2.28118896484375	
132	0.528	0.0	0.0	0.0	0.0	0.009000000000000001	0.003	0.003	0.003	9.689932669067382	0.18255787658691405	0.47105917663574215	1.438140869140625	-2.90679931640625	-1.361846923828125	9.7162688873291	0.41838674011230464	0.40581718139648437	0.6866455078125	-4.955291748046875	-2.498626708984375	10.092158547973632	0.1927332336425781	-0.14185644836425781	3.4332275390625	-4.69970703125	-1.880645751953125	
133	0.532	0.0	0.0	0.0	0.0	0.003	0.006	0.003	0.003	9.877877499389648	0.25438392639160157	0.17836802368164062	0.3662109375	-2.47955322265625	-1.495361328125	9.840168823242188	0.018555062866210937	0.11432312927246092	0.58746337890625	-4.82940673828125	-2.422332763671875	10.059238275146484	-0.2232593048095703	-0.37708676147460934	3.60107421875	-4.726409912109375	-1.4801025390625	
134	0.536	0.0	0.0	0.0	0.0	0.006	0.003	0.006	0.006	9.64025298461914	0.23403321228027343	0.5165490081787109	0.789642333984375	-2.6092529296875	-1.354217529296875	9.747393508911133	0.12090718383789062	0.412401235961914	0.568389892578125	-5.039215087890625	-2.471923828125	10.059836825561522	0.08678981018066406	-0.028131869506835935	3.74603271484375	-4.608154296875	-1.911163330078125	
135	0.54	0.0	0.0	0.0	0.0	0.009000000000000001	0.003	0.003	0.006	9.913790524291992	0.2693476867675781	0.22206220397949217	0.576019287109375	-2.689361572265625	-1.384735107421875	9.913790524291992	-0.29089550170898437	0.1131260284423828	0.48065185546875	-4.98199462890625	-2.895355224609375	10.16338604736328	-0.47285482788085936	-0.3758896606445312	3.509521484375	-4.795074462890625	-1.804351806640625	
136	0.544	0.0	0.0	0.0	0.0	0.0	0.003	0.003	0.006	9.639055883789062	0.14604630126953125	0.4740519287109375	0.83160400390625	-2.2125244140625	-1.789093017578125	9.722254391479492	0.6266822845458984	0.20769699401855468	1.003265380859375	-4.711151123046875	-3.57818603515625	10.037091909790039	0.795473501586914	-0.13587094421386717	3.681182861328125	-4.558563232421875	-2.712249755859375	
137	0.548	0.0	0.0	0.0	0.0	0.0	0.006	0.003	0.006	9.898826763916015	0.37708676147460934	0.2316390106201172	0.263214111328125	-2.4871826171875	-1.178741455078125	9.865307940673828	0.06823474731445311	0.11432312927246092	0.736236572265625	-4.93621826171875	-2.979278564453125	10.075399136352539	-0.40761283264160153	-0.3507505432128906	3.4942626953125	-4.6539306640625	-1.46484375	
138	0.552	0.0	0.0	0.0	0.0	0.003	0.006	0.003	0.006	10.019135397338866	0.18255787658691405	-0.04369418029785156	3.16619873046875	-4.123687744140625	-0.530242919921875	9.750984811401366	0.7870937957763672	0.21009119567871093	0.74005126953125	-4.791259765625	-3.0670166015625	9.83178911743164	-0.0047884033203125	-0.044292730712890624	3.84521484375	-4.543304443359375	-2.925872802734375	
139	0.556	0.0	0.0	0.0	0.0	0.003	0.003	0.003	0.006	9.94671079711914	0.4471171600341797	0.19153613281249998	1.323699951171875	-2.964019775390625	-1.1138916015625	9.71686743774414	0.49200844116210934	0.28969840087890625	-0.0152587890625	-5.0048828125	-2.628326416015625	10.095151300048828	-0.15382745666503905	-0.39444472351074217	3.726959228515625	-4.66156005859375	-1.575469970703125	
140	0.56	0.0	0.0	0.0	0.0	0.006	0.003	0.003	0.006	10.002974536132811	0.17298106994628906	-0.013168109130859374	3.322601318359375	-4.15802001953125	-0.3662109375	9.73602105102539	0.40402153015136716	0.19512743530273435	0.659942626953125	-4.58526611328125	-3.5552978515625	9.790489138793944	-0.02693476867675781	-0.08140285644531249	3.559112548828125	-4.451751708984375	-2.872467041015625	
141	0.5640000000000001	0.0	0.0	0.0	0.0	0.003	0.006	0.003	0.003	9.979631069946288	0.3429693878173828	0.18255787658691405	6.389617919921875	-5.5389404296875	0.614166259765625	9.69831237487793	0.5458779785156249	0.26874913635253905	-0.125885009765625	-5.001068115234375	-2.98309326171875	9.816825357055663	0.29867665710449215	-0.15083470458984374	3.765106201171875	-4.7149658203125	-1.6632080078125	
142	0.5680000000000001	0.0	0.0	0.0	0.0	0.006	0.003	0.006	0.006	10.026916552734374	0.23822306518554687	-0.07062894897460938	3.993988037109375	-4.40216064453125	-0.213623046875	9.728239895629882	0.6446387969970703	0.12629413757324218	0.057220458984375	-4.7607421875	-3.040313720703125	9.81862100830078	-0.1227028350830078	-0.08200140686035155	3.8299560546875	-4.57000732421875	-2.536773681640625	
143	0.5720000000000001	0.0	0.0	0.0	0.0	0.006	0.003	0.006	0.003	9.976039767456054	0.18734627990722655	-0.11671733093261719	6.91986083984375	-5.970001220703125	1.06048583984375	9.71686743774414	-0.24660277099609373	0.30705636291503907	-0.301361083984375	-4.93621826171875	-2.78472900390625	9.771934075927733	0.3178302703857422	-0.16220716247558592	3.387451171875	-4.66156005859375	-1.89971923828125	
144	0.5760000000000001	0.0	0.0	0.0	0.0	0.003	0.003	0.006	0.009000000000000001	9.995193380737303	0.23642741394042968	-0.017357962036132813	4.749298095703125	-4.543304443359375	0.278472900390625	9.725247143554688	0.3435679382324219	0.19213468322753904	0.202178955078125	-4.787445068359375	-3.078460693359375	9.995791931152343	-0.229843359375	-0.2855085479736328	3.704071044921875	-4.50897216796875	-2.12860107421875	
145	0.58	0.0	0.0	0.0	0.0	0.003	0.003	0.006	0.003	9.961674557495117	-0.011372457885742187	-0.14963760375976562	6.072998046875	-5.496978759765625	0.637054443359375	9.819818109130859	-0.016759411621093748	-0.005985504150390624	0.400543212890625	-5.298614501953125	-2.2735595703125	9.819219558715819	0.22026655273437498	-0.19033903198242186	3.772735595703125	-4.711151123046875	-2.26593017578125	
146	0.584	0.0	0.0	0.0	0.0	0.003	0.006	0.003	0.003	9.847949978637695	-0.09516951599121093	-0.055066638183593745	3.604888916015625	-4.047393798828125	-0.09918212890625	9.686939916992188	0.4159925384521484	0.15442600708007811	0.0762939453125	-4.7149658203125	-2.899169921875	9.964068759155273	-0.086191259765625	-0.3435679382324219	3.971099853515625	-4.669189453125	-2.071380615234375	
147	0.588	0.0	0.0	0.0	0.0	0.006	0.006	0.003	0.003	9.90181951599121	-0.0143652099609375	-0.09337386474609374	5.939483642578125	-5.4168701171875	0.7171630859375	9.776722479248047	-0.028730419921875	0.05027823486328125	0.38909912109375	-4.95147705078125	-2.468109130859375	9.776722479248047	0.11851298217773437	-0.14544775085449219	3.871917724609375	-4.82940673828125	-2.09808349609375	
148	0.592	0.0	0.0	0.0	0.0	0.003	0.006	0.003	0.003	9.87009634399414	-0.1580173095703125	-0.10953472595214843	3.76129150390625	-4.222869873046875	-0.225067138671875	9.74859060974121	0.2693476867675781	0.09696516723632811	0.988006591796875	-4.970550537109375	-2.6397705078125	10.006565838623047	-0.05087678527832031	-0.35015199279785153	3.7994384765625	-4.43267822265625	-2.06756591796875	
149	0.596	0.0	0.0	0.0	0.0	0.003	0.003	0.006	0.003	9.920374578857421	-0.07422025146484375	-0.15442600708007811	6.7138671875	-5.523681640625	0.4730224609375	9.817423907470703	0.08858546142578125	-0.05626373901367187	0.31280517578125	-4.7760009765625	-2.6702880859375	10.090362896728514	0.010175357055664061	-0.20530279235839843	3.53240966796875	-4.634857177734375	-2.00653076171875	
150	0.6	0.0	0.0	0.0	0.0	0.003	0.003	0.006	0.003	9.811438403320311	-0.31184476623535157	-0.10295067138671875	2.429962158203125	-3.5858154296875	-0.7171630859375	9.906009368896484	0.258573779296875	-0.03411737365722656	0.75531005859375	-4.92095947265625	-2.60162353515625	9.968258612060547	0.013168109130859374	-0.29927520751953124	3.91387939453125	-4.4403076171875	-2.14385986328125	
151	0.604	0.0	0.0	0.0	0.0	0.012	0.006	0.003	0.006	9.615712417602538	-0.41898529052734373	0.4483142608642578	-0.057220458984375	-2.170562744140625	-1.89208984375	9.782707983398437	0.20530279235839843	-0.055066638183593745	0.49591064453125	-4.962921142578125	-2.7008056640625	10.047267266845703	-0.033518823242187495	-0.17118541870117188	3.82232666015625	-5.218505859375	-2.101898193359375	
152	0.608	0.0	0.0	0.0	0.0	0.006	0.006	0.003	0.003	9.80665	-0.35673604736328124	-0.2059013427734375	1.522064208984375	-2.8076171875	-1.1444091796875	9.926360083007811	0.16998831787109375	-0.062249243164062495	0.919342041015625	-4.940032958984375	-2.574920654296875	10.293870037841796	0.05566518859863281	-0.565630142211914	3.7078857421875	-4.6539306640625	-2.13623046875	
153	0.612	0.0	0.0	0.0	0.0	0.003	0.003	0.003	0.009000000000000001	9.627084875488281	-0.29388825378417965	0.4417302062988281	-0.400543212890625	-2.079010009765625	-2.246856689453125	9.795876092529296	0.3842693664550781	0.44113165588378905	0.438690185546875	-4.8065185546875	-2.605438232421875	10.089764346313476	-0.044891281127929686	-0.16340426330566404	3.753662109375	-4.917144775390625	-1.926422119140625	
154	0.616	0.0	0.0	0.0	0.0	0.006	0.003	0.003	0.003	9.756970315551758	-0.4740519287109375	-0.19213468322753904	-1.15966796875	-1.57928466796875	-2.0751953125	9.874884747314452	0.15562310791015624	-0.020949264526367185	0.789642333984375	-5.1116943359375	-2.7008056640625	10.259154113769531	0.05386953735351562	-0.4997895965576172	3.63922119140625	-4.43267822265625	-2.26593017578125	
155	0.62	0.0	0.0	0.0	0.0	0.006	0.003	0.003	0.006	9.615712417602538	-0.09337386474609374	0.4991910461425781	-1.1444091796875	-1.53350830078125	-2.277374267578125	9.777919580078125	0.4525041137695312	0.38367081604003905	0.537872314453125	-4.9285888671875	-2.742767333984375	10.070012182617187	0.1657984649658203	-0.06763619689941405	3.742218017578125	-4.795074462890625	-2.044677734375	
156	0.624	0.0	0.0	0.0	0.0	0.003	0.006	0.003	0.006	9.977236868286132	0.517746109008789	0.24361001892089842	-0.278472900390625	-1.720428466796875	-1.712799072265625	9.859322436523437	0.18375497741699218	0.20530279235839843	0.522613525390625	-4.87518310546875	-3.238677978515625	10.322001907348632	0.029927520751953124	-0.5566518859863281	3.551483154296875	-4.497528076171875	-2.277374267578125	
157	0.628	0.0	0.0	0.0	0.0	0.003	0.003	0.003	0.003	9.636661682128906	0.1292868896484375	0.5668272430419922	-0.759124755859375	-1.888275146484375	-2.2735595703125	9.759963067626952	0.4291606475830078	0.5009866973876953	0.255584716796875	-4.779815673828125	-2.69317626953125	10.129268673706054	0.15562310791015624	-0.08200140686035155	3.757476806640625	-4.852294921875	-1.926422119140625	
158	0.632	0.0	0.0	0.0	0.0	0.006	0.006	0.003	0.006	10.015544094848632	0.6631938598632812	0.23343466186523437	1.1444091796875	-2.54058837890625	-1.2969970703125	9.843760125732421	0.21906945190429686	0.19153613281249998	0.3204345703125	-4.833221435546875	-3.009796142578125	10.269329470825195	0.07422025146484375	-0.584185205078125	3.5247802734375	-4.764556884765625	-2.368927001953125	
159	0.636	0.0	0.0	0.0	0.0	0.006	0.003	0.003	0.006	10.116100564575195	0.7386112121582031	0.003591302490234375	5.63812255859375	-5.229949951171875	0.2593994140625	9.765948571777344	0.5105635040283203	0.2442085693359375	0.301361083984375	-4.718780517578125	-2.87628173828125	10.108319409179687	0.2376245147705078	-0.10773907470703124	3.787994384765625	-4.8980712890625	-1.895904541015625	
160	0.64	0.0	0.0	0.0	0.0	0.006	0.003	0.006	0.003	10.083180291748047	0.7595604766845703	0.16639701538085935	2.429962158203125	-3.292083740234375	-0.804901123046875	9.867702142333984	0.25797522888183594	0.23882161560058593	0.141143798828125	-4.7760009765625	-3.0059814453125	10.058041174316406	-0.13168109130859373	-0.40880993347167965	3.7078857421875	-4.779815673828125	-2.231597900390625	
161	0.644	0.0	0.0	0.0	0.0	0.003	0.006	0.006	0.003	10.13226142578125	0.4207809417724609	-0.14963760375976562	6.031036376953125	-4.99725341796875	0.713348388671875	9.77432827758789	0.37888241271972656	0.20769699401855468	-0.415802001953125	-4.489898681640625	-2.544403076171875	10.056844073486328	0.24061726684570311	-0.12150573425292968	3.50189208984375	-4.627227783203125	-2.0599365234375	
162	0.648	0.0	0.0	0.0	0.0	0.006	0.006	0.003	0.003	10.1131078125	0.9026140258789062	0.06045359191894531	3.887176513671875	-4.199981689453125	-0.19073486328125	9.771934075927733	0.19093758239746092	-0.03651157531738281	-0.19073486328125	-4.76837158203125	-2.64739990234375	9.897031112670899	-0.07422025146484375	-0.36750995483398435	3.5552978515625	-4.558563232421875	-2.22015380859375	
163	0.652	0.0	0.0	0.0	0.0	0.006	0.006	0.003	0.006	10.12567737121582	0.09038111267089843	-0.20051438903808594	6.664276123046875	-5.645751953125	0.926971435546875	9.859322436523437	0.26396073303222656	0.0718260498046875	-0.030517578125	-4.66156005859375	-2.681732177734375	9.842563024902343	0.2184709014892578	-0.07900865478515624	3.803253173828125	-4.78363037109375	-2.3040771484375	
164	0.656	0.0	0.0	0.0	0.0	0.003	0.006	0.006	0.006	9.742605105590819	-0.1484405029296875	-0.11073182678222655	5.71441650390625	-5.443572998046875	0.492095947265625	9.792284790039062	0.17238251953125	-0.0909796630859375	-0.0457763671875	-4.741668701171875	-2.62451171875	9.977236868286132	-0.19093758239746092	-0.4285620971679687	3.4332275390625	-5.0201416015625	-2.330780029296875	
165	0.66	0.0	0.0	0.0	0.0	0.003	0.003	0.003	0.006	10.003573086547851	0.028131869506835935	-0.22864625854492185	6.64520263671875	-5.77545166015625	0.751495361328125	9.674968908691406	0.24779987182617186	0.005985504150390624	0.682830810546875	-4.978179931640625	-2.99835205078125	9.770736975097655	0.3082534637451172	-0.1388636962890625	3.5400390625	-4.69970703125	-2.31170654296875	
166	0.664	0.0	0.0	0.0	0.0	0.003	0.003	0.003	0.006	9.622296472167967	-0.4584896179199218	0.10594342346191406	3.42559814453125	-4.055023193359375	-0.179290771484375	9.801861596679688	0.10654197387695312	-0.06943184814453125	0.030517578125	-4.9285888671875	-2.582550048828125	9.854534033203125	-0.10115502014160156	-0.11073182678222655	3.681182861328125	-4.9896240234375	-1.922607421875	
167	0.668	0.0	0.0	0.0	0.0	0.006	0.003	0.003	0.003	9.917980377197265	-0.2914940521240234	-0.17836802368164062	-1.827239990234375	-1.31988525390625	-2.5177001953125	9.743203656005859	0.2154781494140625	0.04848258361816406	0.83160400390625	-4.85992431640625	-3.185272216796875	9.907206469726562	0.17657237243652343	-0.12569558715820311	3.65447998046875	-4.66156005859375	-2.23541259765625	
168	0.672	0.0	0.0	0.0	0.0	0.003	0.003	0.003	0.003	9.56962403564453	-0.26695348510742184	0.2136824981689453	1.28936767578125	-3.24249267578125	-1.483917236328125	9.741408004760741	0.16879121704101563	-0.105344873046875	0.614166259765625	-4.84466552734375	-3.093719482421875	9.83897172241211	-0.11192892761230468	-0.16460136413574217	3.726959228515625	-4.73785400390625	-2.06756591796875	
169	0.676	0.0	0.0	0.0	0.0	0.003	0.003	0.003	0.006	9.794678991699218	-0.3591302490234375	0.23582886352539062	-2.506256103515625	-0.934600830078125	-2.429962158203125	9.648632690429688	0.34117373657226563	0.20350714111328125	0.682830810546875	-4.665374755859375	-3.21197509765625	9.815628256225585	0.24480711975097655	-0.010175357055664061	3.643035888671875	-4.33349609375	-2.323150634765625	
170	0.68	0.0	0.0	0.0	0.0	0.003	0.006	0.003	0.003	9.706093530273437	-0.12150573425292968	0.2597708801269531	-0.67138671875	-1.865386962890625	-1.903533935546875	9.771934075927733	0.016759411621093748	0.277727392578125	0.614166259765625	-5.016326904296875	-3.23486328125	9.9461122467041	-0.16280571289062498	-0.08499415893554688	3.704071044921875	-4.94384765625	-2.193450927734375	
171	0.684	0.0	0.0	0.0	0.0	0.006	0.003	0.003	0.006	9.9981861328125	0.12030863342285156	0.15861585998535155	0.675201416015625	-2.475738525390625	-1.911163330078125	9.727641345214844	0.26874913635253905	0.08499415893554688	0.67901611328125	-4.604339599609375	-3.05938720703125	9.970652813720703	0.03651157531738281	-0.17298106994628906	3.6773681640625	-4.05120849609375	-2.40325927734375	
172	0.6880000000000001	0.0	0.0	0.0	0.0	0.003	0.003	0.003	0.003	10.070610733032225	0.007781155395507812	-0.009576806640625	3.604888916015625	-4.261016845703125	-0.095367431640625	9.645041387939452	0.16879121704101563	0.2813186950683594	0.263214111328125	-5.123138427734375	-2.986907958984375	9.765948571777344	0.0005985504150390625	-0.0909796630859375	3.71551513671875	-4.84466552734375	-1.827239990234375	
173	0.6920000000000001	0.0	0.0	0.0	0.0	0.003	0.006	0.006	0.003	10.090961447143554	0.1406593475341797	0.10654197387695312	2.384185791015625	-3.662109375	-0.209808349609375	9.853935482788085	0.26216508178710934	0.16819266662597654	0.278472900390625	-4.421234130859375	-2.62451171875	9.998784683227539	-0.05087678527832031	-0.18914193115234373	3.59344482421875	-4.364013671875	-2.262115478515625	
174	0.6960000000000001	0.0	0.0	0.0	0.0	0.003	0.003	0.003	0.003	10.027515103149414	0.15322890625	-0.001197100830078125	6.08062744140625	-5.313873291015625	-0.011444091796875	9.76175871887207	0.1005564697265625	0.1005564697265625	0.19073486328125	-4.90570068359375	-2.96783447265625	10.075997686767577	0.032920272827148434	-0.09636661682128905	3.448486328125	-4.53948974609375	-1.88446044921875	
175	0.7000000000000001	0.0	0.0	0.0	0.0	0.006	0.003	0.006	0.006	9.996989031982421	0.010175357055664061	0.06105214233398437	5.31005859375	-4.985809326171875	0.354766845703125	9.784503634643555	0.30346506042480464	0.11372457885742186	0.598907470703125	-4.81414794921875	-2.552032470703125	9.91498762512207	0.04249707946777344	-0.28790274963378903	3.482818603515625	-4.29534912109375	-2.18963623046875	
176	0.704	0.0	0.0	0.0	0.0	0.015	0.006	0.006	0.003	9.849745629882811	-0.4608838195800781	0.11731588134765625	2.99072265625	-4.2724609375	-0.335693359375	9.737816702270507	0.1975216369628906	0.430956298828125	0.240325927734375	-4.87518310546875	-2.552032470703125	10.034099157714843	0.12150573425292968	-0.10953472595214843	3.77655029296875	-4.5623779296875	-1.7242431640625	
177	0.708	0.0	0.0	0.0	0.0	0.003	0.003	0.003	0.006	9.797671743774414	0.32501287536621093	-0.022146365356445312	1.8768310546875	-2.956390380859375	-1.434326171875	9.877877499389648	0.15203180541992187	0.076614453125	0.583648681640625	-4.817962646484375	-2.941131591796875	10.405200415039062	-0.20829554443359374	-0.7122749938964843	3.7994384765625	-4.81414794921875	-2.4566650390625	
178	0.712	0.0	0.0	0.0	0.0	0.003	0.003	0.006	0.006	9.783905084228515	0.17776947326660156	0.20350714111328125	4.730224609375	-4.375457763671875	-1.026153564453125	9.80066449584961	0.23582886352539062	0.3184288208007812	0.270843505859375	-4.9285888671875	-2.64739990234375	10.037091909790039	0.14125789794921875	-0.1406593475341797	3.570556640625	-4.589080810546875	-1.911163330078125	
179	0.716	0.0	0.0	0.0	0.0	0.003	0.003	0.006	0.003	9.739612353515625	-0.546476528930664	0.04189852905273437	-1.277923583984375	-1.499176025390625	-2.231597900390625	9.865307940673828	0.3286041778564453	0.04369418029785156	0.461578369140625	-4.43267822265625	-2.63214111328125	10.21545993347168	-0.10235212097167969	-0.6206967803955078	3.73077392578125	-4.73785400390625	-2.2430419921875	
180	0.72	0.0	0.0	0.0	0.0	0.003	0.003	0.003	0.006	9.810241302490233	-0.7529764221191406	0.2855085479736328	1.110076904296875	-2.716064453125	-0.66375732421875	9.86291373901367	0.11252747802734374	0.3752911102294922	-0.2288818359375	-4.718780517578125	-2.696990966796875	10.264541067504883	0.002992752075195312	-0.2214636535644531	3.704071044921875	-4.886627197265625	-2.208709716796875	
181	0.724	0.0	0.0	0.0	0.0	0.006	0.006	0.003	0.006	10.02332525024414	0.4896142395019531	-0.23582886352539062	0.42724609375	-2.483367919921875	-1.697540283203125	9.98561657409668	0.2867056488037109	-0.10893617553710937	1.209259033203125	-4.84466552734375	-2.7923583984375	10.329184512329102	-0.1693897674560547	-0.6811503723144531	3.74603271484375	-4.547119140625	-2.20489501953125	
182	0.728	0.0	0.0	0.0	0.0	0.003	0.003	0.003	0.006	9.680954412841796	0.4477157104492187	0.2567781280517578	4.84466552734375	-4.718780517578125	-0.713348388671875	9.58339069519043	0.34117373657226563	0.46028526916503903	0.11444091796875	-5.016326904296875	-2.475738525390625	10.007762939453125	0.23403321228027343	-0.2609679809570312	3.62396240234375	-4.6844482421875	-2.056121826171875	
183	0.732	0.0	0.0	0.0	0.0	0.003	0.006	0.003	0.006	9.81862100830078	-0.3238157745361328	-0.06763619689941405	1.97601318359375	-3.162384033203125	-1.88446044921875	9.950302099609374	0.35194764404296874	-0.09217676391601562	1.094818115234375	-5.069732666015625	-2.643585205078125	10.297461340332031	-0.1370680450439453	-0.6069301208496093	3.88336181640625	-4.55474853515625	-1.953125	
184	0.736	0.0	0.0	0.0	0.0	0.003	0.003	0.003	0.006	9.733028298950195	-0.2885013000488281	0.13287819213867186	0.209808349609375	-2.155303955078125	-1.071929931640625	9.734225399780273	0.2136824981689453	0.3286041778564453	-0.14495849609375	-4.993438720703125	-2.956390380859375	10.162787496948242	0.11911153259277343	-0.3274070770263672	3.749847412109375	-4.901885986328125	-2.445220947265625	
185	0.74	0.0	0.0	0.0	0.0	0.003	0.006	0.003	0.003	9.99220062866211	1.0031704956054688	0.1304839904785156	3.44085693359375	-4.06646728515625	-0.11444091796875	9.834781869506836	0.24001871643066405	0.013168109130859374	0.659942626953125	-4.94384765625	-2.9754638671875	10.034697708129881	0.06284779357910156	-0.469263525390625	3.894805908203125	-4.886627197265625	-1.873016357421875	
186	0.744	0.0	0.0	0.0	0.0	0.003	0.003	0.006	0.003	9.77432827758789	1.004966146850586	0.07900865478515624	4.99725341796875	-4.917144775390625	-0.850677490234375	9.63366893005371	0.3238157745361328	0.4225765930175781	0.0	-4.791259765625	-2.6702880859375	9.980229620361328	0.1771709228515625	-0.17477672119140625	3.597259521484375	-4.87518310546875	-2.15911865234375	
187	0.748	0.0	0.0	0.0	0.0	0.003	0.003	0.006	0.003	9.841964474487304	-0.16160861206054686	0.24001871643066405	3.185272216796875	-3.818511962890625	-0.823974609375	9.892841259765625	0.19692308654785154	0.029927520751953124	0.08392333984375	-5.077362060546875	-3.0517578125	10.108319409179687	0.029328970336914062	-0.41838674011230464	3.47137451171875	-4.848480224609375	-1.97601318359375	
188	0.752	0.0	0.0	0.0	0.0	0.003	0.006	0.003	0.003	9.61451531677246	-0.3327940307617187	0.15861585998535155	1.6326904296875	-3.108978271484375	-1.773834228515625	9.624092123413085	0.29568390502929687	0.4070142822265625	-0.06103515625	-4.5928955078125	-3.143310546875	9.828197814941406	-0.03651157531738281	-0.10414777221679687	3.574371337890625	-4.467010498046875	-2.69317626953125	
189	0.756	0.0	0.0	0.0	0.0	0.003	0.006	0.003	0.003	9.993996279907225	0.086191259765625	0.1975216369628906	-0.797271728515625	-1.8463134765625	-0.40435791015625	9.80066449584961	0.32441432495117184	0.06584054565429687	0.232696533203125	-4.7454833984375	-3.139495849609375	9.976039767456054	0.15442600708007811	-0.3938461730957031	3.627777099609375	-4.852294921875	-1.873016357421875	
190	0.76	0.0	0.0	0.0	0.0	0.006	0.006	0.006	0.006	9.968857162475585	0.7697358337402344	0.061650692749023434	6.923675537109375	-5.893707275390625	0.637054443359375	9.65940659790039	0.21128829650878905	0.2693476867675781	0.377655029296875	-4.52423095703125	-3.040313720703125	9.76774422302246	-0.04129997863769531	-0.03232172241210937	3.92913818359375	-4.73785400390625	-2.178192138671875	
191	0.764	0.0	0.0	0.0	0.0	0.003	0.003	0.003	0.003	10.180744009399413	0.7003039855957031	-0.0909796630859375	5.4473876953125	-5.275726318359375	0.2899169921875	9.92217023010254	0.19812018737792966	-0.0005985504150390625	0.732421875	-4.001617431640625	-3.08990478515625	9.943718045043944	0.16160861206054686	-0.13407529296874998	3.77655029296875	-4.72259521484375	-2.1820068359375	
192	0.768	0.0	0.0	0.0	0.0	0.006	0.006	0.003	0.006	9.733028298950195	-0.025139117431640625	0.2711433380126953	6.4544677734375	-5.535125732421875	0.576019287109375	9.603142858886718	0.3022679595947265	0.3232172241210937	0.186920166015625	-4.810333251953125	-3.040313720703125	9.7162688873291	-0.037708676147460936	-0.044292730712890624	3.56292724609375	-4.726409912109375	-2.61688232421875	
193	0.772	0.0	0.0	0.0	0.0	0.006	0.006	0.003	0.003	9.890447058105469	0.13946224670410157	0.0987608184814453	0.83160400390625	-2.899169921875	-1.21307373046875	9.701305126953125	0.16519991455078123	0.040102877807617184	0.3662109375	-5.08880615234375	-2.719879150390625	9.78689783630371	0.2292448089599609	-0.025737667846679687	3.856658935546875	-4.8370361328125	-2.185821533203125	
194	0.776	0.0	0.0	0.0	0.0	0.003	0.003	0.003	4.572	9.76774422302246	-0.0383072265625	0.2472013214111328	3.3111572265625	-3.597259521484375	-0.072479248046875	9.715670336914062	0.20231004028320312	0.28490999755859375	-0.06866455078125	-4.58526611328125	-2.89154052734375	9.87608184814453	-0.1083376251220703	-0.16819266662597654	3.60870361328125	-4.41741943359375	-2.197265625	
195	0.78	0.0	0.0	0.0	0.0	4.596	4.644	4.644	4.587	9.945513696289062	-0.1149216796875	-0.06464344482421874	1.83868408203125	-3.231048583984375	-1.087188720703125	9.733626849365233	0.18854338073730467	0.040701428222656245	0.4119873046875	-5.084991455078125	-2.872467041015625	9.916184725952148	0.2041056915283203	-0.14784195251464843	3.795623779296875	-4.8370361328125	-2.155303955078125	
196	0.784	0.0	0.0	0.0	0.0	4.614	4.647	4.644	4.581	9.80066449584961	0.04369418029785156	0.21188684692382811	3.177642822265625	-3.60107421875	-0.209808349609375	9.759364517211914	0.2867056488037109	0.15322890625	0.354766845703125	-4.66156005859375	-2.86865234375	9.93414123840332	-0.08379705810546874	-0.19692308654785154	3.780364990234375	-4.63104248046875	-2.0904541015625	
197	0.788	0.0	0.0	0.0	0.0	4.6080000000000005	4.641	4.644	4.605	10.050260018920898	-0.14425065002441406	-0.13587094421386717	3.574371337890625	-4.53948974609375	-0.1373291015625	9.767145672607422	0.18854338073730467	0.0383072265625	0.3509521484375	-4.993438720703125	-2.841949462890625	9.916184725952148	0.18555062866210936	-0.15861585998535155	3.604888916015625	-4.76837158203125	-2.3193359375	
198	0.792	0.0	0.0	0.0	0.0	4.605	4.647	4.647	4.599	9.931747036743163	0.008379705810546874	-0.10953472595214843	5.1422119140625	-4.913330078125	0.06866455078125	9.855731134033203	0.1466448516845703	0.05386953735351562	0.46539306640625	-4.67681884765625	-2.780914306640625	10.077194787597655	-0.201112939453125	-0.3058592620849609	3.74603271484375	-4.535675048828125	-2.1514892578125	
199	0.796	0.0	0.0	0.0	0.0	4.605	4.647	4.647	4.605	9.943119494628906	0.12449848632812499	-0.040701428222656245	5.573272705078125	-5.39398193359375	0.377655029296875	9.804255798339844	0.21966800231933592	0.2998737579345703	0.461578369140625	-5.039215087890625	-2.43377685546875	10.002974536132811	0.14425065002441406	-0.11671733093261719	3.650665283203125	-4.596710205078125	-2.20489501953125	
200	0.8	0.0	0.0	0.0	0.0	4.599	4.644	4.641	4.611	9.779116680908203	-0.10594342346191406	-0.02154781494140625	4.100799560546875	-4.17327880859375	-0.682830810546875	9.791087689208984	0.14185644836425781	0.11911153259277343	0.576019287109375	-4.817962646484375	-2.719879150390625	10.006565838623047	-0.13587094421386717	-0.2645592834472656	3.726959228515625	-4.489898681640625	-2.044677734375	
201	0.804	0.0	0.0	0.0	0.0	4.611	4.644	4.647	4.593	9.932345587158203	-0.14484920043945312	-0.11372457885742186	5.092620849609375	-4.993438720703125	-0.00762939453125	9.90122096557617	0.20530279235839843	0.2166752502441406	0.06866455078125	-4.909515380859375	-2.2430419921875	10.146626635742187	0.10235212097167969	-0.22565350646972654	3.856658935546875	-4.772186279296875	-2.22015380859375	
202	0.808	0.0	0.0	0.0	0.0	4.6080000000000005	4.65	4.647	4.581	9.73063409729004	-0.059256491088867186	0.054468087768554684	2.674102783203125	-3.1585693359375	-1.0528564453125	9.941323843383788	0.3082534637451172	-0.03411737365722656	0.782012939453125	-4.772186279296875	-2.826690673828125	10.296264239501953	-0.013766659545898436	-0.5530605834960938	3.74603271484375	-4.512786865234375	-1.77001953125	
203	0.812	0.0	0.0	0.0	0.0	4.614	4.644	4.644	4.5840000000000005	9.569025485229492	0.34237083740234375	0.5482721801757812	1.007080078125	-2.58636474609375	-1.3885498046875	9.834183319091796	0.2262520568847656	0.2454056701660156	0.186920166015625	-5.0811767578125	-2.37274169921875	10.075399136352539	0.15741875915527342	-0.2519897247314453	3.650665283203125	-4.970550537109375	-2.25067138671875	
204	0.8160000000000001	0.0	0.0	0.0	0.0	4.614	4.641	4.647	4.599	9.763554370117188	-0.016160861206054686	0.05805939025878906	2.46429443359375	-3.34930419921875	-1.19781494140625	10.000580334472655	0.2645592834472656	-0.08978256225585937	0.86212158203125	-4.72259521484375	-2.76947021484375	10.349535226440429	-0.031124621582031248	-0.6057330200195312	3.6773681640625	-4.772186279296875	-1.750946044921875	
205	0.8200000000000001	0.0	0.0	0.0	0.0	4.6080000000000005	4.65	4.65	4.605	9.656413845825195	0.11791443176269531	0.4267664459228515	0.60272216796875	-2.44903564453125	-1.54876708984375	9.72285294189453	0.3459621398925781	0.26755203552246093	0.133514404296875	-4.78363037109375	-2.796173095703125	10.101136804199218	0.07062894897460938	-0.3028665100097656	3.833770751953125	-4.70733642578125	-2.483367919921875	
206	0.8240000000000001	0.0	0.0	0.0	0.0	4.605	4.647	4.647	4.602	9.756970315551758	-0.012569558715820313	0.08020575561523437	-1.186370849609375	-2.02178955078125	-1.873016357421875	9.905410818481444	0.3172317199707031	0.0017956512451171875	0.60272216796875	-4.5928955078125	-2.655029296875	10.173561404418944	0.08200140686035155	-0.5285200164794922	3.673553466796875	-4.44793701171875	-1.697540283203125	
207	0.8280000000000001	0.0	0.0	0.0	0.0	4.599	4.641	4.638	4.611	9.718064538574218	0.2932897033691406	0.37768531188964843	1.76239013671875	-3.108978271484375	-1.110076904296875	9.735422500610351	0.3477577911376953	0.24779987182617186	-0.034332275390625	-4.9896240234375	-2.4566650390625	9.98561657409668	-0.00239420166015625	-0.13587094421386717	3.74603271484375	-4.852294921875	-2.15911865234375	
208	0.8320000000000001	0.0	0.0	0.0	0.0	4.611	4.647	4.65	4.599	9.970652813720703	-0.0047884033203125	-0.0652419952392578	0.286102294921875	-2.227783203125	-1.453399658203125	9.968857162475585	0.2753331909179687	-0.03411737365722656	0.396728515625	-5.001068115234375	-3.231048583984375	10.308833798217773	-0.022146365356445312	-0.5722141967773438	3.47137451171875	-4.49371337890625	-2.00653076171875	
209	0.836	0.0	0.0	0.0	0.0	4.611	4.65	0.006	0.003	9.63307037963867	0.18914193115234373	0.38187516479492184	2.25067138671875	-3.726959228515625	-1.110076904296875	9.649829791259766	0.36810850524902344	0.3220201232910156	-0.370025634765625	-4.962921142578125	-2.532958984375	9.931747036743163	0.023942016601562498	-0.11432312927246092	3.66973876953125	-4.688262939453125	-2.3193359375	
210	0.84	0.0	0.0	0.0	0.0	0.006	0.003	0.006	0.003	9.829993466186522	-0.03890577697753906	0.08978256225585937	-0.96893310546875	-2.00653076171875	-1.88446044921875	9.847351428222655	0.20769699401855468	0.076614453125	0.392913818359375	-4.69970703125	-3.101348876953125	9.97843396911621	0.19871873779296872	-0.3495534423828125	3.505706787109375	-4.688262939453125	-1.9378662109375	
211	0.844	0.0	0.0	0.0	0.0	0.003	0.003	0.003	0.003	9.94072529296875	-0.023942016601562498	0.09636661682128905	0.6256103515625	-2.777099609375	-1.636505126953125	9.781510882568359	0.29269115295410153	0.26815058593749996	0.125885009765625	-4.619598388671875	-2.105712890625	10.115502014160155	-0.05746083984375	-0.15382745666503905	3.696441650390625	-4.566192626953125	-2.2125244140625	
212	0.848	0.0	0.0	0.0	0.0	0.006	0.003	0.003	0.006	9.83178911743164	0.07422025146484375	0.16460136413574217	-1.31988525390625	-1.522064208984375	-2.23541259765625	9.852139831542969	0.18555062866210936	0.11911153259277343	0.52642822265625	-4.955291748046875	-3.261566162109375	10.036493359375	0.0909796630859375	-0.30526071166992186	3.60107421875	-4.5623779296875	-2.124786376953125	
213	0.852	0.0	0.0	0.0	0.0	0.0	0.003	0.003	0.006	9.91438907470703	0.17956512451171874	0.11192892761230468	0.9918212890625	-2.51007080078125	-1.430511474609375	9.668384854125977	0.34177228698730466	0.2424129180908203	0.1068115234375	-4.673004150390625	-3.101348876953125	9.645041387939452	0.009576806640625	0.044891281127929686	3.780364990234375	-4.608154296875	-2.376556396484375	
214	0.856	0.0	0.0	0.0	0.0	0.003	0.003	0.006	0.006	9.913191973876952	0.14305354919433594	0.14006079711914063	-1.544952392578125	-1.544952392578125	-2.117156982421875	9.920973129272461	0.14963760375976562	0.12988544006347655	0.598907470703125	-4.99725341796875	-3.07464599609375	10.153210690307617	0.023942016601562498	-0.47105917663574215	3.70025634765625	-4.78363037109375	-1.8768310546875	
215	0.86	0.0	0.0	0.0	0.0	0.006	0.003	0.003	0.006	10.082581741333007	0.23822306518554687	-0.040701428222656245	2.521514892578125	-3.4332275390625	-0.896453857421875	9.807847100830077	0.25737667846679685	0.18136077575683593	0.156402587890625	-4.703521728515625	-3.05938720703125	9.792284790039062	-0.09038111267089843	0.05746083984375	3.681182861328125	-4.3182373046875	-2.368927001953125	
216	0.864	0.0	0.0	0.0	0.0	0.003	0.003	0.006	0.003	10.032303506469725	0.239420166015625	-0.05027823486328125	5.771636962890625	-5.43975830078125	0.69427490234375	9.648632690429688	0.1514332550048828	0.21787235107421873	-0.03814697265625	-4.741668701171875	-2.857208251953125	9.984419473266602	0.10654197387695312	-0.42796354675292964	3.589630126953125	-4.520416259765625	-2.437591552734375	
217	0.868	0.0	0.0	0.0	0.0	0.006	0.006	0.006	0.003	10.021529598999022	0.26755203552246093	-0.004189852905273437	3.4332275390625	-3.91387939453125	-0.3204345703125	9.756970315551758	0.3363853332519531	0.17238251953125	0.26702880859375	-4.94384765625	-3.0975341796875	9.740210903930663	0.052073886108398436	0.0	3.993988037109375	-4.5318603515625	-2.38037109375	
218	0.872	0.0	0.0	0.0	0.0	0.003	0.003	0.003	0.006	10.053851321411132	0.26216508178710934	-0.10414777221679687	6.256103515625	-5.565643310546875	0.42724609375	9.795876092529296	0.09696516723632811	0.09157821350097656	0.064849853515625	-4.52423095703125	-2.66265869140625	9.891644158935547	-0.05566518859863281	-0.10594342346191406	3.543853759765625	-4.7149658203125	-2.2430419921875	
219	0.876	0.0	0.0	0.0	0.0	0.003	0.006	0.006	0.003	10.000580334472655	0.35015199279785153	0.006584054565429687	4.85992431640625	-4.5928955078125	0.072479248046875	9.79946739501953	0.1657984649658203	0.03232172241210937	0.263214111328125	-4.810333251953125	-3.0364990234375	9.728838446044922	0.09217676391601562	0.02154781494140625	3.696441650390625	-4.421234130859375	-2.330780029296875	
220	0.88	0.0	0.0	0.0	0.0	0.006	0.003	0.003	0.003	9.958083255004881	0.26755203552246093	-0.03172317199707031	6.137847900390625	-5.680084228515625	0.698089599609375	9.628281976318359	0.15203180541992187	0.24600422058105467	-0.030517578125	-4.89044189453125	-2.727508544921875	9.733626849365233	0.04189852905273437	-0.10414777221679687	3.73077392578125	-4.669189453125	-2.22015380859375	
221	0.884	0.0	0.0	0.0	0.0	0.003	0.003	0.003	0.003	9.864709390258788	-0.10893617553710937	0.04249707946777344	4.60052490234375	-4.57763671875	0.2288818359375	9.771934075927733	0.16998831787109375	0.06883329772949218	0.18310546875	-4.558563232421875	-2.933502197265625	10.065223779296874	0.0796072052001953	-0.3687070556640625	3.85284423828125	-4.4403076171875	-2.056121826171875	
222	0.888	0.0	0.0	0.0	0.0	0.003	0.003	0.003	0.006	10.052654220581054	0.17956512451171874	-0.1592144104003906	6.496429443359375	-5.523681640625	0.850677490234375	9.874884747314452	0.16699556579589842	0.07122749938964844	0.415802001953125	-5.084991455078125	-2.5787353515625	9.874286196899414	-0.06404489440917968	-0.16998831787109375	3.551483154296875	-4.67681884765625	-2.25830078125	
223	0.892	0.0	0.0	0.0	0.0	0.006	0.006	0.003	0.006	9.83238766784668	-0.05805939025878906	-0.004189852905273437	4.276275634765625	-4.497528076171875	-0.06103515625	9.719860189819336	0.28431144714355466	0.09157821350097656	0.091552734375	-4.756927490234375	-2.7618408203125	10.002974536132811	0.14544775085449219	-0.3136404174804687	3.76129150390625	-4.4708251953125	-2.025604248046875	
224	0.896	0.0	0.0	0.0	0.0	0.003	0.006	0.003	0.006	9.6917283203125	-0.34715924072265625	0.239420166015625	1.094818115234375	-2.93731689453125	-1.583099365234375	9.769539874267577	0.14006079711914063	0.15502455749511718	0.469207763671875	-5.126953125	-2.574920654296875	10.014945544433592	0.07422025146484375	-0.17357962036132812	3.79180908203125	-4.840850830078125	-1.987457275390625	
225	0.9	0.0	0.0	0.0	0.0	0.006	0.003	0.003	0.0	9.849745629882811	-0.36750995483398435	-0.05746083984375	3.177642822265625	-3.96728515625	-0.23651123046875	9.949104998779296	0.2861070983886719	-0.00239420166015625	0.96893310546875	-5.092620849609375	-2.83050537109375	10.146626635742187	-0.03172317199707031	-0.41958384094238277	3.665924072265625	-4.482269287109375	-2.35748291015625	
226	0.904	0.0	0.0	0.0	0.0	0.003	0.006	0.006	0.006	9.72285294189453	-0.4387374542236328	0.2699462371826172	-0.16021728515625	-2.32696533203125	-2.010345458984375	9.821015209960937	0.09217676391601562	0.10175357055664062	0.2593994140625	-4.840850830078125	-2.685546875	10.162188946533202	0.10175357055664062	-0.26276363220214843	3.528594970703125	-4.6539306640625	-2.124786376953125	
227	0.908	0.0	0.0	0.0	0.0	0.006	0.006	0.003	0.003	9.740210903930663	-0.46507367248535153	-0.03890577697753906	1.10626220703125	-3.078460693359375	-1.09100341796875	9.868899243164062	0.4082113830566406	0.02633621826171875	0.762939453125	-5.1422119140625	-2.9144287109375	10.015544094848632	0.06344634399414062	-0.3315969299316406	3.589630126953125	-4.57763671875	-2.269744873046875	
228	0.912	0.0	0.0	0.0	0.0	0.003	0.006	0.003	0.009000000000000001	9.654019644165038	-0.469263525390625	0.3507505432128906	-1.42669677734375	-1.6632080078125	-2.246856689453125	9.712079034423828	0.2376245147705078	0.5039794494628906	0.522613525390625	-4.901885986328125	-2.84576416015625	10.120290417480469	0.08319850769042968	-0.2184709014892578	3.79180908203125	-4.810333251953125	-1.77764892578125	
229	0.916	0.0	0.0	0.0	0.0	0.003	0.003	0.003	0.003	9.91498762512207	0.2328361114501953	0.20649989318847656	-1.3885498046875	-1.27410888671875	-2.239227294921875	9.93354268798828	0.364517202758789	0.055066638183593745	0.9613037109375	-5.02777099609375	-2.742767333984375	10.407594616699217	-0.09756371765136718	-0.6560112548828124	3.54766845703125	-4.726409912109375	-2.15911865234375	
230	0.92	0.0	0.0	0.0	0.0	0.006	0.003	0.006	0.006	9.65342109375	-0.052073886108398436	0.5117606048583984	-1.049041748046875	-1.644134521484375	-2.513885498046875	9.708487731933593	0.2663549346923828	0.5776011505126952	0.278472900390625	-4.665374755859375	-2.960205078125	10.117896215820313	0.05686228942871093	-0.17956512451171874	3.719329833984375	-5.016326904296875	-2.063751220703125	
231	0.924	0.0	0.0	0.0	0.0	0.006	0.003	0.003	0.003	9.937133990478515	0.7056909393310546	0.25797522888183594	0.34332275390625	-2.391815185546875	-1.739501953125	9.811438403320311	0.3603273498535156	0.1484405029296875	0.1068115234375	-4.779815673828125	-2.956390380859375	10.20169327392578	-0.03531447448730469	-0.5303156677246094	3.57818603515625	-4.734039306640625	-2.166748046875	
232	0.928	0.0	0.0	0.0	0.0	0.006	0.003	0.003	0.006	9.744999307250977	0.17597382202148437	0.5147533569335937	5.28717041015625	-4.99725341796875	0.19073486328125	9.777919580078125	0.30047230834960936	0.5225345123291015	0.247955322265625	-4.810333251953125	-2.689361572265625	10.016142645263672	0.2262520568847656	-0.10773907470703124	3.787994384765625	-4.8370361328125	-1.895904541015625	
233	0.932	0.0	0.0	0.0	0.0	0.006	0.003	0.003	0.006	10.101735354614258	0.661398208618164	0.07541735229492187	1.873016357421875	-3.021240234375	-1.13677978515625	9.917381826782226	0.22505495605468748	0.12030863342285156	0.14495849609375	-4.764556884765625	-2.857208251953125	10.308833798217773	-0.12030863342285156	-0.59376201171875	3.406524658203125	-4.695892333984375	-2.2125244140625	
234	0.936	0.0	0.0	0.0	0.0	0.006	0.003	0.003	0.003	10.051457119750976	0.45190556335449217	-0.13407529296874998	6.28662109375	-5.512237548828125	0.568389892578125	9.702502227783203	0.19512743530273435	0.5506663818359374	0.0	-4.75311279296875	-2.63214111328125	9.928754284667969	0.23822306518554687	-0.12868833923339842	3.826141357421875	-4.688262939453125	-2.22015380859375	
235	0.9400000000000001	0.0	0.0	0.0	0.0	0.003	0.003	0.003	0.006	10.165780249023436	0.5728127471923827	-0.12868833923339842	3.71551513671875	-4.169464111328125	-0.31280517578125	9.90181951599121	0.37708676147460934	-0.0053869537353515625	0.05340576171875	-4.970550537109375	-2.696990966796875	9.835380419921874	-0.025737667846679687	-0.3441664886474609	3.7841796875	-4.825592041015625	-2.147674560546875	
236	0.9440000000000001	0.0	0.0	0.0	0.0	0.003	0.003	0.003	0.006	9.947907897949218	0.0526724365234375	-0.11013327636718749	5.9814453125	-5.45501708984375	0.514984130859375	9.781510882568359	0.17178396911621094	0.1197100830078125	-0.102996826171875	-4.93621826171875	-2.521514892578125	10.050858569335936	0.18435352783203124	-0.11192892761230468	3.54766845703125	-4.61578369140625	-1.89971923828125	
237	0.9480000000000001	0.0	0.0	0.0	0.0	0.006	0.006	0.003	0.003	9.673771807861328	-0.29388825378417965	0.14006079711914063	2.521514892578125	-3.566741943359375	-0.66375732421875	9.922768780517577	0.3651157531738281	-0.054468087768554684	0.1983642578125	-4.863739013671875	-2.582550048828125	10.040084661865233	-0.15322890625	-0.4477157104492187	3.635406494140625	-4.913330078125	-2.079010009765625	
238	0.9520000000000001	0.0	0.0	0.0	0.0	0.006	0.006	0.006	0.0	9.767145672607422	-0.01975216369628906	0.12629413757324218	3.818511962890625	-4.18853759765625	-0.3204345703125	9.600748657226562	0.25139117431640623	0.33758243408203126	-0.11444091796875	-4.669189453125	-2.8839111328125	9.86291373901367	0.3232172241210937	-0.10175357055664062	3.673553466796875	-4.547119140625	-2.38800048828125	
239	0.9560000000000001	0.0	0.0	0.0	0.0	0.0	0.006	0.006	0.006	9.749189160156249	0.1580173095703125	0.2609679809570312	1.575469970703125	-2.7618408203125	-0.91552734375	9.73602105102539	0.2813186950683594	0.11731588134765625	0.58746337890625	-4.955291748046875	-3.2501220703125	10.018536846923828	-0.05746083984375	-0.32620997619628905	3.643035888671875	-4.894256591796875	-2.109527587890625	
240	0.96	0.0	0.0	0.0	0.0	0.006	0.006	0.006	0.006	9.816226806640625	-0.09576806640624999	0.143652099609375	0.995635986328125	-3.0517578125	-1.636505126953125	9.788693487548828	0.11252747802734374	0.26276363220214843	0.335693359375	-4.64630126953125	-3.253936767578125	9.903016616821288	-0.031124621582031248	0.07242460021972656	3.475189208984375	-4.421234130859375	-2.35748291015625	
241	0.964	0.0	0.0	0.0	0.0	0.003	0.003	0.003	0.003	9.86411083984375	0.2136824981689453	0.11791443176269531	1.07574462890625	-2.838134765625	-0.81634521484375	9.704896429443359	0.3178302703857422	0.055066638183593745	0.499725341796875	-4.66156005859375	-3.154754638671875	9.91438907470703	-0.014963760375976562	-0.3956418243408203	3.551483154296875	-5.023956298828125	-2.162933349609375	
242	0.968	0.0	0.0	0.0	0.0	0.003	0.003	0.003	0.003	9.916783276367187	0.037110125732421874	0.11851298217773437	3.4332275390625	-4.154205322265625	-0.030517578125	9.654618194580078	0.21727380065917967	0.21428104858398436	0.148773193359375	-4.535675048828125	-2.613067626953125	9.651625442504882	0.16819266662597654	0.09576806640624999	3.719329833984375	-4.596710205078125	-2.46429443359375	
243	0.972	0.0	0.0	0.0	0.0	0.003	0.003	0.003	0.006	10.101136804199218	0.2059013427734375	0.020949264526367185	3.299713134765625	-4.20379638671875	-0.095367431640625	9.865307940673828	0.09636661682128905	0.13108254089355467	0.225067138671875	-5.039215087890625	-2.960205078125	9.916783276367187	-0.013168109130859374	0.1197100830078125	3.59344482421875	-4.596710205078125	-2.017974853515625	
244	0.976	0.0	0.0	0.0	0.0	0.003	0.003	0.003	0.003	9.97244846496582	0.031124621582031248	0.12150573425292968	5.718231201171875	-5.184173583984375	0.75531005859375	9.683947164916992	0.13108254089355467	0.23642741394042968	0.194549560546875	-4.5166015625	-2.98309326171875	9.83178911743164	-0.05626373901367187	-0.09816226806640624	3.673553466796875	-4.604339599609375	-2.346038818359375	
245	0.98	0.0	0.0	0.0	0.0	0.003	0.006	0.006	0.009000000000000001	9.958681805419921	0.25438392639160157	-0.03531447448730469	4.055023193359375	-4.638671875	-0.217437744140625	9.67856021118164	0.2615665313720703	0.1693897674560547	0.5950927734375	-5.04302978515625	-2.72369384765625	9.628880526733397	0.30526071166992186	0.02154781494140625	3.887176513671875	-4.66156005859375	-2.063751220703125	
246	0.984	0.0	0.0	0.0	0.0	0.003	0.003	0.003	0.006	9.83178911743164	-0.12808978881835936	0.2442085693359375	4.99725341796875	-5.1422119140625	0.3204345703125	9.660603698730467	0.11611878051757812	0.3896563201904297	0.23651123046875	-4.764556884765625	-2.765655517578125	10.115502014160155	-0.09157821350097656	-0.2519897247314453	4.016876220703125	-4.47845458984375	-2.11334228515625	
247	0.988	0.0	0.0	0.0	0.0	0.006	0.003	0.003	0.006	9.880271701049804	-0.4483142608642578	0.06763619689941405	2.025604248046875	-3.5858154296875	-1.316070556640625	9.929951385498047	0.025139117431640625	0.023343466186523436	0.52642822265625	-5.1422119140625	-2.986907958984375	10.025120901489258	0.011372457885742187	-0.07362170104980469	3.91387939453125	-4.57000732421875	-2.26593017578125	
248	0.992	0.0	0.0	0.0	0.0	0.0	0.003	0.003	0.003	9.84555577697754	0.08319850769042968	0.18136077575683593	4.87518310546875	-4.66156005859375	0.274658203125	9.760561618041992	0.42796354675292964	0.06404489440917968	0.66375732421875	-4.344940185546875	-2.780914306640625	9.924564431762695	-0.010773907470703125	-0.33039982910156246	3.65447998046875	-4.41741943359375	-2.20489501953125	
249	0.996	0.0	0.0	0.0	0.0	0.003	0.003	0.003	0.003	9.883264453125	-0.14245499877929688	0.08259995727539061	2.22015380859375	-3.467559814453125	-0.881195068359375	9.773131176757811	0.16041151123046873	0.1879448303222656	0.6561279296875	-5.18035888671875	-2.460479736328125	9.777919580078125	0.21906945190429686	0.12808978881835936	3.467559814453125	-4.41741943359375	-1.70135498046875	
250	1.0	0.0	0.0	0.0	0.0	0.003	0.003	0.003	0.465	9.880870251464843	-0.42377369384765623	-0.05027823486328125	1.209259033203125	-2.841949462890625	-1.60980224609375	10.043675964355469	0.09576806640624999	0.03591302490234375	0.61798095703125	-5.039215087890625	-2.7313232421875	10.35492218017578	-0.3699041564941406	-0.2980781066894531	3.65447998046875	-4.444122314453125	-2.25830078125	
251	1.004	0.0	0.0	0.0	0.0	4.539	4.641	4.641	4.587	9.931747036743163	-0.10773907470703124	-0.014963760375976562	3.570556640625	-4.32586669921875	-0.560760498046875	9.73661960144043	0.32082302246093747	0.0053869537353515625	0.164031982421875	-4.932403564453125	-2.78472900390625	10.035296258544921	0.1975216369628906	-0.19153613281249998	3.604888916015625	-4.8675537109375	-2.3345947265625	
252	1.008	0.0	0.0	0.0	0.0	4.6080000000000005	4.638	4.644	4.596	9.641450085449218	0.10414777221679687	0.15861585998535155	1.399993896484375	-2.750396728515625	-1.53350830078125	9.704896429443359	0.34117373657226563	0.22445640563964842	0.507354736328125	-4.528045654296875	-2.490997314453125	9.852139831542969	-0.0017956512451171875	-0.1322796417236328	3.665924072265625	-4.215240478515625	-1.6937255859375	
253	1.012	0.0	0.0	0.0	0.0	4.602	4.647	4.65	4.611	9.941922393798828	-0.49679684448242184	0.105344873046875	2.38037109375	-3.459930419921875	-0.78582763671875	9.937133990478515	0.14185644836425781	0.39324762268066404	0.06103515625	-4.894256591796875	-2.407073974609375	10.324994659423828	-0.004189852905273437	-0.18734627990722655	3.787994384765625	-4.573822021484375	-1.89208984375	
254	1.016	0.0	0.0	0.0	0.0	4.605	4.647	4.65	4.605	9.828796365356444	-0.12808978881835936	-0.0383072265625	0.93841552734375	-2.498626708984375	-1.68609619140625	9.897629663085937	0.3447650390625	-0.011372457885742187	0.762939453125	-4.734039306640625	-3.032684326171875	10.381258398437499	-0.19812018737792966	-0.546476528930664	3.612518310546875	-4.55474853515625	-1.979827880859375	
255	1.02	0.0	0.0	0.0	0.0	4.599	4.644	4.641	4.611	9.610325463867188	0.43993455505371093	0.2501940734863281	0.408172607421875	-2.49481201171875	-1.6326904296875	9.618705169677733	0.3764882110595703	0.4273649963378906	-0.148773193359375	-4.7454833984375	-2.4566650390625	9.848548529052733	0.40402153015136716	-0.24001871643066405	3.787994384765625	-4.638671875	-1.873016357421875	
256	1.024	0.0	0.0	0.0	0.0	4.611	4.647	4.647	4.593	9.788693487548828	-0.09995791931152344	0.1693897674560547	1.6021728515625	-2.960205078125	-1.220703125	9.995791931152343	0.22266075439453123	-0.012569558715820313	0.583648681640625	-4.863739013671875	-2.582550048828125	10.340556970214843	-0.09935936889648436	-0.47165772705078124	3.650665283203125	-4.795074462890625	-1.56402587890625	
257	1.028	0.0	0.0	0.0	0.0	4.611	4.647	4.647	4.581	9.776722479248047	0.1083376251220703	0.13287819213867186	1.8768310546875	-3.810882568359375	-1.277923583984375	9.98501802368164	0.18854338073730467	0.08080430603027343	-0.011444091796875	-4.878997802734375	-2.4871826171875	10.166977349853514	-0.1610100616455078	-0.16460136413574217	3.551483154296875	-4.69207763671875	-2.64739990234375	
258	1.032	0.0	0.0	0.0	0.0	4.611	4.65	4.644	4.59	9.76774422302246	0.2292448089599609	-0.06823474731445311	0.095367431640625	-2.422332763671875	-1.6326904296875	9.773131176757811	0.37708676147460934	-0.016160861206054686	0.87738037109375	-4.749298095703125	-2.60162353515625	10.016142645263672	0.16998831787109375	-0.5608417388916015	3.726959228515625	-4.673004150390625	-1.865386962890625	
259	1.036	0.0	0.0	0.0	0.0	4.611	4.638	4.647	4.596	9.522338552856445	0.17477672119140625	0.3962403747558593	1.60980224609375	-3.101348876953125	-1.171112060546875	9.581595043945311	0.4578910675048828	0.3651157531738281	-0.011444091796875	-4.924774169921875	-2.490997314453125	9.836577520751952	0.0909796630859375	-0.06344634399414062	3.62396240234375	-4.772186279296875	-2.040863037109375	
260	1.04	0.0	0.0	0.0	0.0	4.6080000000000005	4.647	4.65	4.599	9.9461122467041	-0.07122749938964844	0.037110125732421874	0.202178955078125	-2.69317626953125	-1.4190673828125	10.147225186157225	0.1227028350830078	-0.19393033447265623	0.514984130859375	-4.726409912109375	-2.956390380859375	10.459069952392577	-0.16460136413574217	-0.508169302368164	3.795623779296875	-5.06591796875	-1.987457275390625	
261	1.044	0.0	0.0	0.0	0.0	4.599	4.641	0.003	0.006	9.610325463867188	0.1867477294921875	0.11372457885742186	0.89263916015625	-2.605438232421875	-1.499176025390625	9.680954412841796	0.43514615173339843	0.17238251953125	0.362396240234375	-4.67681884765625	-2.964019775390625	9.944316595458984	0.06284779357910156	-0.23702596435546874	3.60107421875	-4.730224609375	-2.34222412109375	
262	1.048	0.0	0.0	0.0	0.0	0.006	0.003	0.003	0.003	9.739612353515625	0.3381809844970703	0.2519897247314453	0.110626220703125	-1.949310302734375	-1.636505126953125	9.589974749755859	0.2861070983886719	0.2454056701660156	0.51116943359375	-4.82177734375	-3.154754638671875	9.829394915771484	0.2962824554443359	-0.34117373657226563	3.6468505859375	-4.848480224609375	-1.94549560546875	
263	1.052	0.0	0.0	0.0	0.0	0.003	0.006	0.006	0.003	9.880870251464843	0.010175357055664061	0.08918401184082031	1.941680908203125	-3.665924072265625	-0.881195068359375	9.819818109130859	0.258573779296875	0.24899697265624998	0.186920166015625	-4.871368408203125	-2.90679931640625	10.144232434082031	-0.09337386474609374	-0.11731588134765625	3.42559814453125	-5.08880615234375	-2.117156982421875	
264	1.056	0.0	0.0	0.0	0.0	0.006	0.003	0.006	0.003	9.982623822021484	0.13347674255371092	-0.03651157531738281	-0.2288818359375	-2.025604248046875	-1.739501953125	9.83777462158203	0.1274912384033203	0.10714052429199218	0.091552734375	-4.425048828125	-3.18145751953125	10.171167202758788	-0.0005985504150390625	-0.5931634613037109	3.65447998046875	-4.764556884765625	-2.292633056640625	
265	1.06	0.0	0.0	0.0	0.0	0.003	0.006	0.003	0.006	9.94072529296875	0.36092590026855464	-0.037110125732421874	2.66265869140625	-3.452301025390625	-0.484466552734375	9.557653027343749	0.30406361083984373	0.22565350646972654	-0.0152587890625	-4.695892333984375	-3.147125244140625	9.567229833984374	0.054468087768554684	0.07481880187988281	3.5858154296875	-4.14276123046875	-2.216339111328125	
266	1.064	0.0	0.0	0.0	0.0	0.006	0.006	0.003	0.003	9.91438907470703	0.3010708587646484	0.18614917907714842	0.6561279296875	-2.834320068359375	-1.06048583984375	9.706692080688477	0.1657984649658203	0.22744915771484372	-0.1068115234375	-5.153656005859375	-2.7618408203125	10.121487518310547	0.003591302490234375	-0.5793968017578125	3.814697265625	-5.046844482421875	-1.926422119140625	
267	1.068	0.0	0.0	0.0	0.0	0.009000000000000001	0.003	0.006	0.006	10.143633883666991	0.12330138549804687	-0.2885013000488281	4.726409912109375	-4.7760009765625	-0.125885009765625	9.909600671386718	0.1514332550048828	-0.06464344482421874	0.0457763671875	-4.680633544921875	-2.93731689453125	9.96586441040039	-0.11791443176269531	-0.11671733093261719	3.673553466796875	-4.37164306640625	-2.41851806640625	
268	1.072	0.0	0.0	0.0	0.0	0.006	0.003	0.006	0.006	10.007762939453125	-0.001197100830078125	-0.3333925811767578	5.9967041015625	-5.290985107421875	0.423431396484375	9.76116016845703	0.17238251953125	-0.03232172241210937	0.347137451171875	-4.688262939453125	-2.758026123046875	9.668384854125977	-0.0017956512451171875	0.14963760375976562	3.688812255859375	-4.451751708984375	-2.6702880859375	
269	1.076	0.0	0.0	0.0	0.0	0.006	0.003	0.003	0.003	9.854534033203125	0.2723404388427734	0.14724340209960937	5.741119384765625	-5.260467529296875	0.926971435546875	9.539696514892578	0.31962592163085934	0.3746925598144531	-0.072479248046875	-4.711151123046875	-3.116607666015625	9.56363853149414	0.15382745666503905	0.26755203552246093	3.856658935546875	-4.40216064453125	-2.15911865234375	
270	1.08	0.0	0.0	0.0	0.0	0.003	0.006	0.003	0.003	10.021529598999022	0.0017956512451171875	-0.16280571289062498	5.931854248046875	-5.54656982421875	0.67901611328125	9.849147079467773	0.07841010437011718	0.054468087768554684	0.25177001953125	-5.10406494140625	-2.72369384765625	9.94671079711914	-0.08200140686035155	-0.01915361328125	3.8299560546875	-4.711151123046875	-1.895904541015625	
271	1.084	0.0	0.0	0.0	0.0	0.006	0.006	0.003	0.006	9.995193380737303	0.201112939453125	0.03232172241210937	3.910064697265625	-4.016876220703125	0.560760498046875	9.733028298950195	0.2615665313720703	0.09457096557617187	0.32806396484375	-4.718780517578125	-2.99072265625	9.849745629882811	-0.023942016601562498	-0.32082302246093747	3.780364990234375	-4.230499267578125	-2.1514892578125	
272	1.088	0.0	0.0	0.0	0.0	0.0	0.006	0.003	0.006	9.78629928588867	0.0939724151611328	0.10115502014160156	5.413055419921875	-5.062103271484375	0.23651123046875	9.616310968017578	0.1927332336425781	0.11791443176269531	0.31280517578125	-4.75311279296875	-2.696990966796875	9.686939916992188	0.0939724151611328	-0.0939724151611328	3.72314453125	-4.85992431640625	-2.11334228515625	
273	1.092	0.0	0.0	0.0	0.0	0.006	0.003	0.006	0.003	9.762955819702148	-0.3812766143798828	0.00239420166015625	2.11334228515625	-3.391265869140625	-1.01470947265625	9.938929641723632	0.2154781494140625	-0.03531447448730469	0.339508056640625	-5.077362060546875	-2.41851806640625	10.103531005859374	0.08319850769042968	-0.2693476867675781	3.62396240234375	-4.67681884765625	-2.1514892578125	
274	1.096	0.0	0.0	0.0	0.0	0.006	0.003	0.003	0.006	9.928155734252929	-0.3345896820068359	-0.16340426330566404	5.290985107421875	-5.0811767578125	0.396728515625	9.847351428222655	0.022146365356445312	-0.11552023010253906	-0.46539306640625	-4.611968994140625	-2.544403076171875	10.035894808959961	-0.17657237243652343	-0.2663549346923828	3.5552978515625	-4.61578369140625	-2.37274169921875	
275	1.1	0.0	0.0	0.0	0.0	0.003	0.006	0.003	0.003	9.721655841064452	-0.37289690856933594	0.015562310791015624	0.3662109375	-2.166748046875	-1.56402587890625	9.77492682800293	0.34835634155273437	0.037708676147460936	0.5950927734375	-5.1727294921875	-2.7618408203125	9.973047015380859	0.19871873779296872	-0.2442085693359375	3.902435302734375	-4.45556640625	-2.12860107421875	
276	1.104	0.0	0.0	0.0	0.0	0.003	0.006	0.003	0.006	9.510966094970703	0.02693476867675781	0.535702621459961	-1.12152099609375	-1.861572265625	-2.4261474609375	9.72345149230957	0.26695348510742184	0.42377369384765623	0.415802001953125	-5.214691162109375	-2.597808837890625	9.982623822021484	0.1227028350830078	-0.08319850769042968	3.5400390625	-4.8065185546875	-1.674652099609375	
277	1.108	0.0	0.0	0.0	0.0	0.003	0.003	0.006	0.003	9.788094937133788	-0.5482721801757812	-0.0143652099609375	-0.087738037109375	-2.315521240234375	-2.13623046875	10.018536846923828	0.16041151123046873	-0.07122749938964844	0.896453857421875	-5.001068115234375	-2.777099609375	10.302848294067383	-0.0053869537353515625	-0.3363853332519531	3.696441650390625	-4.459381103515625	-2.3651123046875	
278	1.112	0.0	0.0	0.0	0.0	0.006	0.003	0.006	0.006	9.692925421142577	0.17597382202148437	0.5183446594238281	-0.9613037109375	-1.48773193359375	-2.330780029296875	9.818022457885741	0.23822306518554687	0.35194764404296874	0.3814697265625	-4.92095947265625	-3.15093994140625	10.186130963134765	-0.00718260498046875	-0.20171148986816406	3.60870361328125	-4.665374755859375	-2.14385986328125	
279	1.116	0.0	0.0	0.0	0.0	0.003	0.003	0.003	0.006	9.600748657226562	-0.19153613281249998	0.2825157958984375	-1.861572265625	-1.163482666015625	-2.719879150390625	9.71028338317871	0.46028526916503903	0.30885201416015623	0.40435791015625	-4.99725341796875	-2.99072265625	9.994594830322265	0.09277531433105468	-0.3938461730957031	3.635406494140625	-4.589080810546875	-2.166748046875	
280	1.12	0.0	0.0	0.0	0.0	0.0	0.003	0.003	0.003	9.802460147094726	0.4447229583740234	0.49679684448242184	0.49591064453125	-2.338409423828125	-1.590728759765625	9.941323843383788	0.10414777221679687	0.36810850524902344	0.301361083984375	-4.795074462890625	-2.826690673828125	10.307636697387695	-0.005985504150390624	-0.3136404174804687	3.818511962890625	-4.87518310546875	-1.8463134765625	
281	1.124	0.0	0.0	0.0	0.0	0.006	0.006	0.003	0.003	10.197503421020507	0.4997895965576172	-0.1370680450439453	3.082275390625	-3.696441650390625	-0.57220458984375	10.003573086547851	0.3184288208007812	0.08918401184082031	0.6256103515625	-4.558563232421875	-3.0364990234375	10.335768566894531	-0.18555062866210936	-0.535702621459961	3.536224365234375	-4.46319580078125	-2.391815185546875	
282	1.1280000000000001	0.0	0.0	0.0	0.0	0.003	0.003	0.003	0.003	9.804255798339844	0.7314286071777343	0.5410895751953124	2.6702880859375	-3.536224365234375	-0.83160400390625	9.603142858886718	0.27952304382324217	0.42377369384765623	-0.46539306640625	-4.383087158203125	-2.735137939453125	9.775525378417969	0.3016694091796875	0.06284779357910156	3.6773681640625	-4.730224609375	-2.0904541015625	
283	1.1320000000000001	0.0	0.0	0.0	0.0	0.003	0.003	0.006	0.003	10.015544094848632	0.45190556335449217	-0.08559270935058594	3.59344482421875	-4.291534423828125	-0.461578369140625	9.928754284667969	0.4381389038085937	0.07302315063476562	0.5035400390625	-4.528045654296875	-2.32696533203125	10.113706362915039	-0.01915361328125	-0.4333505004882812	3.8604736328125	-4.688262939453125	-2.391815185546875	
284	1.1360000000000001	0.0	0.0	0.0	0.0	0.003	0.003	0.006	0.006	9.958083255004881	0.411802685546875	0.2663549346923828	5.19561767578125	-4.734039306640625	0.28228759765625	9.855132583618163	0.08379705810546874	0.22744915771484372	-0.335693359375	-4.604339599609375	-2.758026123046875	10.190320816040039	0.12509703674316405	-0.22026655273437498	3.681182861328125	-5.069732666015625	-2.117156982421875	
285	1.1400000000000001	0.0	0.0	0.0	0.0	0.006	0.006	0.003	0.006	9.848548529052733	0.20829554443359374	0.12808978881835936	2.689361572265625	-3.68499755859375	-0.659942626953125	9.773729727172851	0.37888241271972656	0.061650692749023434	0.392913818359375	-4.82177734375	-3.009796142578125	10.084377392578125	-0.02454056701660156	-0.5141548065185546	3.421783447265625	-4.482269287109375	-2.368927001953125	
286	1.1440000000000001	0.0	0.0	0.0	0.0	0.006	0.003	0.003	0.003	9.78031378173828	0.030526071166992186	0.17836802368164062	1.85394287109375	-3.383636474609375	-1.2664794921875	9.58339069519043	0.4016273284912109	0.46686932373046874	-0.1068115234375	-4.72259521484375	-2.658843994140625	9.82460651245117	0.3794809631347656	-0.029328970336914062	3.65447998046875	-4.695892333984375	-2.155303955078125	
287	1.1480000000000001	0.0	0.0	0.0	0.0	0.0	0.003	0.006	0.003	9.835978970336914	0.1304839904785156	0.21966800231933592	0.80108642578125	-2.704620361328125	-1.628875732421875	9.984419473266602	0.22864625854492185	-0.09457096557617187	0.78582763671875	-5.06591796875	-2.99072265625	10.132859976196288	-0.19333178405761717	-0.37708676147460934	3.673553466796875	-4.87518310546875	-2.03704833984375	
288	1.1520000000000001	0.0	0.0	0.0	0.0	0.003	0.003	0.003	0.003	9.970652813720703	0.031124621582031248	-0.010175357055664061	1.308441162109375	-3.063201904296875	-1.5869140625	9.759963067626952	0.15382745666503905	0.2609679809570312	0.152587890625	-4.547119140625	-3.002166748046875	10.046070166015625	0.21188684692382811	-0.20171148986816406	3.73077392578125	-4.909515380859375	-2.483367919921875	
289	1.156	0.0	0.0	0.0	0.0	0.006	0.003	0.003	0.003	9.78689783630371	0.15263035583496093	0.08200140686035155	2.46429443359375	-3.631591796875	-0.370025634765625	9.725247143554688	0.36212300109863277	0.10175357055664062	0.240325927734375	-4.89044189453125	-3.055572509765625	9.791686239624022	0.034715924072265626	-0.21128829650878905	3.749847412109375	-4.856109619140625	-2.094268798828125	
290	1.16	0.0	0.0	0.0	0.0	0.003	0.003	0.003	0.003	10.079588989257813	0.0526724365234375	0.03950432739257812	2.155303955078125	-3.631591796875	-0.77056884765625	9.701305126953125	0.23223756103515625	0.34057518615722654	-0.011444091796875	-5.1422119140625	-3.0517578125	9.74200655517578	0.09756371765136718	0.11013327636718749	3.810882568359375	-4.67681884765625	-2.475738525390625	
291	1.164	0.0	0.0	0.0	0.0	0.003	0.003	0.003	0.003	10.079588989257813	0.10414777221679687	-0.13347674255371092	4.2877197265625	-4.6234130859375	0.22125244140625	9.964667309570311	0.19692308654785154	-0.013168109130859374	0.469207763671875	-4.909515380859375	-2.780914306640625	10.120290417480469	-0.15263035583496093	-0.34117373657226563	3.70025634765625	-4.94384765625	-2.2430419921875	
292	1.168	0.0	0.0	0.0	0.0	0.0	0.003	0.006	0.003	9.955090502929687	0.2609679809570312	0.19153613281249998	3.963470458984375	-4.161834716796875	-0.26702880859375	9.59476315307617	0.2855085479736328	0.3537432952880859	-0.2288818359375	-4.5623779296875	-3.082275390625	9.6917283203125	0.03950432739257812	-0.010773907470703125	3.711700439453125	-4.55474853515625	-2.41851806640625	
293	1.172	0.0	0.0	0.0	0.0	0.003	0.006	0.003	0.003	9.892841259765625	0.17896657409667968	0.0718260498046875	4.283905029296875	-4.764556884765625	0.240325927734375	9.67856021118164	0.22086510314941404	0.10354922180175781	0.48065185546875	-5.3863525390625	-2.55584716796875	9.745597857666015	0.296881005859375	0.025737667846679687	3.986358642578125	-4.974365234375	-2.033233642578125	
294	1.176	0.0	0.0	0.0	0.0	0.003	0.003	4.578	4.599	9.945513696289062	-0.23882161560058593	-0.0047884033203125	4.17327880859375	-4.38690185546875	-0.423431396484375	9.749787710571288	0.12808978881835936	0.3298012786865234	0.69427490234375	-4.82940673828125	-3.002166748046875	9.965265859985351	-0.22026655273437498	-0.16519991455078123	3.620147705078125	-4.34112548828125	-2.3651123046875	
295	1.18	0.0	0.0	0.0	0.0	4.599	4.644	4.647	4.6080000000000005	9.956287603759765	0.2262520568847656	-0.016759411621093748	4.08935546875	-4.425048828125	-0.255584716796875	9.763554370117188	0.16160861206054686	-0.07481880187988281	0.732421875	-4.955291748046875	-2.788543701171875	9.941323843383788	0.21188684692382811	-0.1352723937988281	3.73077392578125	-4.558563232421875	-2.162933349609375	
296	1.184	0.0	0.0	0.0	0.0	4.593	4.647	4.641	4.611	9.82580361328125	-0.031124621582031248	0.1149216796875	4.329681396484375	-4.41741943359375	0.030517578125	9.670779055786133	0.37289690856933594	0.18255787658691405	0.354766845703125	-4.93621826171875	-2.9144287109375	9.695319622802733	-0.013168109130859374	-0.1352723937988281	3.85284423828125	-4.5318603515625	-2.47955322265625	
297	1.188	0.0	0.0	0.0	0.0	4.611	4.644	4.647	4.587	10.012551342773437	0.14006079711914063	-0.11192892761230468	4.2724609375	-4.8065185546875	0.278472900390625	9.83777462158203	0.06643909606933593	-0.010175357055664061	0.51116943359375	-5.0811767578125	-2.63214111328125	10.016142645263672	0.18734627990722655	-0.16519991455078123	3.818511962890625	-4.772186279296875	-2.03704833984375	
298	1.192	0.0	0.0	0.0	0.0	4.611	4.647	4.644	4.578	9.936535440063476	-0.24301146850585936	0.025737667846679687	4.638671875	-4.49371337890625	0.011444091796875	9.835380419921874	0.18854338073730467	0.12868833923339842	0.316619873046875	-4.7454833984375	-2.796173095703125	10.27232222290039	-0.31483751831054685	-0.41419688720703124	3.658294677734375	-4.41741943359375	-2.12860107421875	
299	1.196	0.0	0.0	0.0	0.0	4.6080000000000005	4.644	4.644	4.596	9.816825357055663	-0.08559270935058594	0.2657563842773437	2.414703369140625	-3.4942626953125	-0.9918212890625	9.765948571777344	0.22864625854492185	0.3345896820068359	0.308990478515625	-4.913330078125	-2.64739990234375	9.70369932861328	0.3746925598144531	0.017357962036132813	3.765106201171875	-4.5013427734375	-1.834869384765625	
300	1.2	0.0	0.0	0.0	0.0	4.611	4.65	4.647	4.599	9.834781869506836	-0.1370680450439453	0.1197100830078125	3.803253173828125	-4.154205322265625	-0.293731689453125	9.756371765136718	0.14784195251464843	0.20949264526367187	0.164031982421875	-4.505157470703125	-2.750396728515625	10.152013589477539	-0.1879448303222656	-0.43933600463867184	3.875732421875	-4.730224609375	-1.99127197265625	
301	1.204	0.0	0.0	0.0	0.0	4.6080000000000005	4.647	4.6530000000000005	4.602	9.990404977416992	-0.1975216369628906	-0.09157821350097656	2.918243408203125	-3.826141357421875	-0.885009765625	10.014945544433592	0.15083470458984374	0.06883329772949218	0.621795654296875	-5.176544189453125	-2.41851806640625	10.295067138671874	0.09935936889648436	-0.4423287567138672	3.803253173828125	-4.89044189453125	-2.1514892578125	
302	1.208	0.0	0.0	0.0	0.0	4.605	4.647	4.647	4.6080000000000005	9.896432562255859	0.09816226806640624	0.11731588134765625	1.979827880859375	-3.261566162109375	-1.28936767578125	9.923965881347655	0.20171148986816406	-0.001197100830078125	0.5035400390625	-4.7760009765625	-2.696990966796875	10.092757098388672	-0.19871873779296872	-0.47584757995605464	3.692626953125	-4.34112548828125	-2.0904541015625	
303	1.212	0.0	0.0	0.0	0.0	4.6080000000000005	2.442	0.003	0.006	9.880870251464843	0.06284779357910156	0.0909796630859375	4.032135009765625	-4.543304443359375	-0.331878662109375	9.794678991699218	0.2651578338623047	0.181959326171875	0.0	-5.138397216796875	-2.044677734375	10.028113653564452	0.2759317413330078	-0.40462008056640625	3.7384033203125	-4.70733642578125	-2.079010009765625	
304	1.216	0.0	0.0	0.0	0.0	0.006	0.003	0.003	0.006	9.866505041503906	-0.2537853759765625	-0.16041151123046873	1.76239013671875	-3.162384033203125	-1.129150390625	10.025719451904296	0.1388636962890625	-0.10295067138671875	0.576019287109375	-4.78363037109375	-2.574920654296875	10.279504827880858	-0.022744915771484374	-0.5398924743652344	3.673553466796875	-4.55474853515625	-1.77764892578125	
305	1.22	0.0	0.0	0.0	0.0	0.006	0.003	0.003	0.003	9.855731134033203	-0.17836802368164062	0.011971008300781249	3.993988037109375	-4.329681396484375	-0.3814697265625	9.771335525512695	0.37229835815429685	0.11073182678222655	0.152587890625	-4.82940673828125	-2.69317626953125	10.209474429321288	0.03890577697753906	-0.5470750793457031	3.696441650390625	-4.608154296875	-2.34222412109375	
