	time	dac1	dac2	dac3	dac4	adc1.3	adc2.3	adc3.3	adc4.3	imu1accx	imu1accy	imu1accz	imu1gyrox	imu1gyroy	imu1gyroz	imu2accx	imu2accy	imu2accz	imu2gyrox	imu2gyroy	imu2gyroz	imu3accx	imu3accy	imu3accz	imu3gyrox	imu3gyroy	imu3gyroz	log
0	0.0	0.0	0.0	0.0	0.0	4.59	4.632	4.635	4.566	9.86411083984375	-0.12988544006347655	0.05985504150390625	2.605438232421875	-3.543853759765625	-0.904083251953125	9.779715231323241	0.4165910888671875	0.16220716247558592	0.431060791015625	-4.894256591796875	-2.986907958984375	10.00417163696289	0.032920272827148434	-0.2603694305419922	3.74603271484375	-4.734039306640625	-2.288818359375	Estabilizou em 7s, 1407 rpm
1	0.004	0.0	0.0	0.0	0.0	4.593	4.6290000000000004	4.632	4.563	9.867103591918944	-0.11911153259277343	0.06045359191894531	2.689361572265625	-3.80706787109375	-0.858306884765625	9.785102185058593	0.41419688720703124	0.16460136413574217	0.102996826171875	-4.89044189453125	-2.880096435546875	10.000580334472655	0.031124621582031248	-0.24181436767578124	3.51715087890625	-4.58526611328125	-2.056121826171875	Started
2	0.008	0.0	0.0	0.0	0.0	4.59	4.626	4.632	4.578	9.866505041503906	-0.11731588134765625	0.06045359191894531	2.597808837890625	-3.70025634765625	-0.705718994140625	9.78031378173828	0.4147954376220703	0.15981296081542967	0.263214111328125	-4.932403564453125	-2.941131591796875	10.01733974609375	0.03591302490234375	-0.2424129180908203	3.726959228515625	-4.73785400390625	-2.063751220703125	IMU1|LSM6DS3|0x6A|I2C-1|±2g (±19,6m/s²)|±125º/s|400Hz
3	0.012	0.0	0.0	0.0	0.0	4.59	4.635	4.635	4.581	9.873687646484374	-0.12569558715820311	0.04249707946777344	2.471923828125	-3.635406494140625	-0.911712646484375	9.783905084228515	0.41060558471679687	0.14724340209960937	0.041961669921875	-4.917144775390625	-2.880096435546875	10.005368737792969	0.044292730712890624	-0.2472013214111328	3.688812255859375	-4.60052490234375	-2.269744873046875	IMU2|LSM6DS3|0x6B|I2C-1|±2g (±19,6m/s²)|±125º/s|400Hz
4	0.016	0.0	0.0	0.0	0.0	4.587	4.635	4.632	4.587	9.86351228942871	-0.1227028350830078	0.05746083984375	2.655029296875	-3.795623779296875	-0.8544921875	9.787496386718749	0.4159925384521484	0.14903905334472656	0.3814697265625	-4.947662353515625	-2.887725830078125	10.01733974609375	0.0430956298828125	-0.2346317626953125	3.7384033203125	-4.63104248046875	-2.231597900390625	IMU3|LSM6DS3|0x6B|I2C-2|±2g (±19,6m/s²)|±125º/s|400Hz
5	0.02	0.0	0.0	0.0	0.0	4.575	4.632	4.626	4.593	9.872490545654296	-0.12509703674316405	0.062249243164062495	2.666473388671875	-3.59344482421875	-0.782012939453125	9.78629928588867	0.4100070343017578	0.14125789794921875	0.591278076171875	-4.909515380859375	-2.92205810546875	10.008361489868163	0.03411737365722656	-0.2442085693359375	3.582000732421875	-4.444122314453125	-2.2125244140625	ADC|ADS1015|0|0|1|0|±6,144 V|2400 SPS
6	0.024	0.0	0.0	0.0	0.0	4.593	4.632	4.635	4.569	9.867103591918944	-0.1227028350830078	0.05027823486328125	2.6397705078125	-3.742218017578125	-0.81634521484375	9.788693487548828	0.4159925384521484	0.1370680450439453	0.385284423828125	-4.92095947265625	-2.838134765625	10.002974536132811	0.03591302490234375	-0.25318682556152344	3.6163330078125	-4.730224609375	-2.31170654296875	Gen1|Disabled
7	0.028	0.0	0.0	0.0	0.0	4.59	4.635	4.635	4.563	9.859322436523437	-0.12330138549804687	0.05566518859863281	2.73895263671875	-3.643035888671875	-0.919342041015625	9.783306533813477	0.421978042602539	0.15981296081542967	0.209808349609375	-4.87518310546875	-2.90679931640625	10.003573086547851	0.04548983154296875	-0.24660277099609373	3.82232666015625	-4.730224609375	-2.193450927734375	Gen2|Enabled|Noise|0.0|10.0|1668
8	0.032	0.0	0.0	0.0	0.0	4.59	4.632	4.635	4.566	9.860519537353515	-0.11851298217773437	0.054468087768554684	2.513885498046875	-3.53240966796875	-0.8392333984375	9.783905084228515	0.4112041351318359	0.15203180541992187	0.415802001953125	-4.96673583984375	-2.902984619140625	9.999383233642577	0.04369418029785156	-0.24839842224121092	3.77655029296875	-4.52423095703125	-1.995086669921875	Gen3|Enabled|Noise|0.0|10.0|128
9	0.036000000000000004	0.0	0.0	0.0	0.0	4.587	4.626	4.6290000000000004	4.578	9.882067352294921	-0.12090718383789062	0.06943184814453125	2.87628173828125	-3.53240966796875	-0.637054443359375	9.78629928588867	0.4171896392822265	0.15382745666503905	0.579833984375	-4.726409912109375	-2.89154052734375	10.002974536132811	0.037110125732421874	-0.24899697265624998	3.505706787109375	-4.627227783203125	-2.246856689453125	Gen4|Enabled|Noise|0.0|10.0|128
10	0.04	0.0	0.0	0.0	0.0	4.5840000000000005	4.635	4.635	4.581	9.906607919311522	-0.13287819213867186	0.07541735229492187	2.7618408203125	-3.643035888671875	-0.8697509765625	9.819219558715819	0.3968389251708984	0.1657984649658203	0.244140625	-4.634857177734375	-2.880096435546875	10.040683212280273	0.02454056701660156	-0.25318682556152344	3.665924072265625	-4.703521728515625	-2.170562744140625	Ctrl|Disabled
11	0.044	0.0	0.0	0.0	0.0	4.5840000000000005	4.635	4.6290000000000004	4.587	9.860519537353515	-0.14903905334472656	0.0796072052001953	2.716064453125	-3.6468505859375	-0.835418701171875	9.7928833404541	0.3896563201904297	0.16759411621093748	0.3662109375	-4.863739013671875	-2.796173095703125	10.012551342773437	0.01975216369628906	-0.23882161560058593	3.444671630859375	-4.5318603515625	-1.995086669921875	
12	0.048	0.0	0.0	0.0	0.0	4.578	4.632	4.623	4.587	9.85692823486328	-0.13646949462890623	0.052073886108398436	2.719879150390625	-3.627777099609375	-0.946044921875	9.765350021362304	0.39264907226562495	0.1406593475341797	0.415802001953125	-4.76837158203125	-2.79998779296875	9.982623822021484	0.0143652099609375	-0.24301146850585936	3.643035888671875	-4.6539306640625	-2.231597900390625	
13	0.052000000000000005	0.0	0.0	0.0	0.0	4.587	4.635	4.638	4.569	9.86411083984375	-0.13467384338378904	0.07362170104980469	2.5787353515625	-3.5247802734375	-0.640869140625	9.773729727172851	0.3956418243408203	0.17298106994628906	0.32806396484375	-4.947662353515625	-2.79998779296875	9.999981784057617	0.020350714111328123	-0.23044190979003906	3.673553466796875	-4.535675048828125	-2.140045166015625	
14	0.056	0.0	0.0	0.0	0.0	4.593	4.635	4.635	4.557	9.833584768676758	-0.18136077575683593	0.10115502014160156	2.658843994140625	-3.77655029296875	-0.820159912109375	9.760561618041992	0.3459621398925781	0.19572598571777342	0.78582763671875	-5.2337646484375	-2.849578857421875	9.99220062866211	-0.029927520751953124	-0.18914193115234373	3.74603271484375	-4.60052490234375	-2.368927001953125	
15	0.06	0.0	0.0	0.0	0.0	4.596	4.6290000000000004	4.635	4.566	9.867103591918944	-0.16340426330566404	0.054468087768554684	2.58636474609375	-3.59344482421875	-0.720977783203125	9.777321029663085	0.35673604736328124	0.1592144104003906	0.225067138671875	-4.749298095703125	-2.96783447265625	10.000580334472655	-0.027533319091796873	-0.22744915771484372	3.520965576171875	-4.6539306640625	-2.01416015625	
16	0.064	0.0	0.0	0.0	0.0	4.599	4.635	4.635	4.581	9.884461553955077	-0.12449848632812499	0.059256491088867186	2.4566650390625	-3.66973876953125	-0.89263916015625	9.798270294189452	0.43993455505371093	0.1849520782470703	0.316619873046875	-5.157470703125	-2.92205810546875	10.020931048583984	0.05746083984375	-0.21727380065917967	3.650665283203125	-4.596710205078125	-2.384185791015625	
17	0.068	0.0	0.0	0.0	0.0	4.59	4.635	4.632	4.5840000000000005	9.853336932373047	-0.18614917907714842	0.10654197387695312	2.468109130859375	-3.326416015625	-0.881195068359375	9.779116680908203	0.3429693878173828	0.21068974609375	0.255584716796875	-5.07354736328125	-2.979278564453125	10.005368737792969	-0.033518823242187495	-0.17597382202148437	3.543853759765625	-4.596710205078125	-2.094268798828125	
18	0.07200000000000001	0.0	0.0	0.0	0.0	4.578	4.632	4.6290000000000004	4.587	9.868300692749022	-0.16759411621093748	0.07422025146484375	2.4566650390625	-3.353118896484375	-0.8087158203125	9.782109432983399	0.3537432952880859	0.17238251953125	0.4119873046875	-5.07354736328125	-2.9144287109375	9.995791931152343	-0.022744915771484374	-0.2166752502441406	3.4942626953125	-4.848480224609375	-2.391815185546875	
19	0.076	0.0	0.0	0.0	0.0	4.587	4.632	4.623	4.578	9.873687646484374	-0.0796072052001953	0.08080430603027343	2.704620361328125	-3.85284423828125	-0.7781982421875	9.78629928588867	0.49380409240722656	0.19572598571777342	0.18310546875	-4.7454833984375	-3.01361083984375	10.018536846923828	0.12689268798828124	-0.22026655273437498	3.559112548828125	-4.46319580078125	-2.25830078125	
20	0.08	0.0	0.0	0.0	0.0	4.59	4.635	4.635	4.566	9.87608184814453	-0.14903905334472656	0.10654197387695312	2.471923828125	-3.635406494140625	-0.843048095703125	9.795277542114258	0.3872621185302734	0.20171148986816406	0.274658203125	-4.749298095703125	-2.788543701171875	10.026916552734374	0.016759411621093748	-0.18614917907714842	3.849029541015625	-4.791259765625	-2.017974853515625	
21	0.084	0.0	0.0	0.0	0.0	4.593	4.632	4.635	4.557	9.898228213500976	-0.14903905334472656	0.08798691101074219	2.62451171875	-3.60870361328125	-0.904083251953125	9.808445651245117	0.36272155151367186	0.1771709228515625	0.186920166015625	-4.604339599609375	-2.99072265625	10.025719451904296	-0.025737667846679687	-0.23642741394042968	3.612518310546875	-4.61578369140625	-2.3040771484375	
22	0.088	0.0	0.0	0.0	0.0	4.59	4.626	4.632	4.578	9.87069489440918	-0.07302315063476562	0.05686228942871093	2.70843505859375	-3.765106201171875	-0.77056884765625	9.79348189086914	0.5045779998779296	0.16041151123046873	0.2899169921875	-4.810333251953125	-2.86102294921875	10.026318002319336	0.12569558715820311	-0.24001871643066405	3.551483154296875	-4.581451416015625	-2.216339111328125	
23	0.092	0.0	0.0	0.0	0.0	4.587	4.638	4.632	4.5840000000000005	9.832986218261718	-0.13287819213867186	0.09457096557617187	2.681732177734375	-3.673553466796875	-0.720977783203125	9.749787710571288	0.3908534210205078	0.18614917907714842	0.438690185546875	-4.98199462890625	-2.99072265625	9.975441217041014	0.017956512451171875	-0.21428104858398436	3.353118896484375	-4.749298095703125	-2.09808349609375	
24	0.096	0.0	0.0	0.0	0.0	4.587	4.638	4.632	4.5840000000000005	9.850344180297851	-0.13168109130859373	0.07422025146484375	2.483367919921875	-3.42559814453125	-0.942230224609375	9.764751470947266	0.40940848388671874	0.16519991455078123	0.396728515625	-4.67681884765625	-2.895355224609375	9.964667309570311	-0.02154781494140625	-0.23044190979003906	3.77655029296875	-4.63104248046875	-2.231597900390625	
25	0.1	0.0	0.0	0.0	0.0	4.578	4.632	4.626	4.593	9.88266590270996	-0.06823474731445311	0.051475335693359374	2.593994140625	-3.765106201171875	-0.75531005859375	9.788094937133788	0.5063736511230469	0.14185644836425781	0.331878662109375	-4.913330078125	-2.902984619140625	10.01733974609375	0.12449848632812499	-0.2567781280517578	3.83758544921875	-4.486083984375	-2.22015380859375	
26	0.10400000000000001	0.0	0.0	0.0	0.0	4.593	4.632	4.638	4.575	9.883264453125	-0.1005564697265625	0.06823474731445311	2.58636474609375	-3.559112548828125	-0.84686279296875	9.789890588378906	0.4207809417724609	0.1562216583251953	0.400543212890625	-4.856109619140625	-2.925872802734375	10.00955859069824	0.03591302490234375	-0.2472013214111328	3.57818603515625	-4.634857177734375	-1.983642578125	
27	0.108	0.0	0.0	0.0	0.0	4.5840000000000005	4.632	4.635	4.563	9.880271701049804	-0.08978256225585937	0.06105214233398437	2.52532958984375	-3.467559814453125	-1.026153564453125	9.794678991699218	0.4381389038085937	0.16340426330566404	0.3662109375	-4.985809326171875	-2.90679931640625	10.006565838623047	0.016759411621093748	-0.23702596435546874	4.02069091796875	-4.98199462890625	-2.384185791015625	
28	0.112	0.0	0.0	0.0	0.0	4.596	4.6290000000000004	4.635	4.5600000000000005	9.87009634399414	-0.06344634399414062	0.05027823486328125	2.716064453125	-3.757476806640625	-0.888824462890625	9.787496386718749	0.49380409240722656	0.14006079711914063	0.5950927734375	-5.001068115234375	-2.99072265625	10.012551342773437	0.1131260284423828	-0.2693476867675781	3.875732421875	-4.718780517578125	-2.002716064453125	
29	0.116	0.0	0.0	0.0	0.0	4.59	4.6290000000000004	4.632	4.581	9.864709390258788	-0.11073182678222655	0.062249243164062495	2.63214111328125	-3.505706787109375	-0.865936279296875	9.7683427734375	0.42437224426269526	0.15442600708007811	0.274658203125	-4.82177734375	-3.009796142578125	9.983820922851562	0.033518823242187495	-0.25139117431640623	3.742218017578125	-4.52423095703125	-2.079010009765625	
30	0.12	0.0	0.0	0.0	0.0	4.587	4.638	4.635	4.5840000000000005	9.859322436523437	-0.10175357055664062	0.07541735229492187	2.55584716796875	-3.71551513671875	-1.003265380859375	9.779116680908203	0.44532150878906246	0.17178396911621094	0.244140625	-4.95147705078125	-2.910614013671875	9.992799179077148	0.02454056701660156	-0.22744915771484372	3.66973876953125	-4.7149658203125	-2.140045166015625	
31	0.124	0.0	0.0	0.0	0.0	4.59	4.635	4.632	4.5840000000000005	9.890447058105469	-0.07362170104980469	0.05566518859863281	2.60162353515625	-3.810882568359375	-1.007080078125	9.807847100830077	0.4740519287109375	0.14544775085449219	0.37384033203125	-5.008697509765625	-2.864837646484375	10.034697708129881	0.09756371765136718	-0.23642741394042968	3.51715087890625	-4.756927490234375	-2.140045166015625	
32	0.128	0.0	0.0	0.0	0.0	4.575	4.632	4.6290000000000004	4.587	9.88386300354004	-0.12689268798828124	0.05087678527832031	2.422332763671875	-3.4637451171875	-0.858306884765625	9.798868844604492	0.40462008056640625	0.14903905334472656	0.274658203125	-4.8370361328125	-2.96783447265625	10.016142645263672	0.031124621582031248	-0.229843359375	3.604888916015625	-4.69970703125	-2.02178955078125	
33	0.132	0.0	0.0	0.0	0.0	4.587	4.632	4.638	4.572	9.858125335693359	-0.12389993591308593	0.07601590270996093	2.712249755859375	-3.711700439453125	-0.93841552734375	9.762955819702148	0.41539398803710936	0.18315642700195311	0.095367431640625	-4.9285888671875	-2.971649169921875	9.989806427001952	0.044292730712890624	-0.2041056915283203	3.391265869140625	-4.81414794921875	-2.06756591796875	
34	0.136	0.0	0.0	0.0	0.0	4.59	4.635	4.635	4.563	9.839570272827148	-0.10594342346191406	0.07242460021972656	2.719879150390625	-3.7384033203125	-0.934600830078125	9.772532626342773	0.43454760131835934	0.16759411621093748	0.225067138671875	-5.1116943359375	-3.143310546875	9.995791931152343	0.06584054565429687	-0.2262520568847656	3.635406494140625	-4.360198974609375	-1.956939697265625	
35	0.14	0.0	0.0	0.0	0.0	4.593	4.6290000000000004	4.635	4.566	9.862315188598632	-0.12988544006347655	0.06344634399414062	2.674102783203125	-3.452301025390625	-0.804901123046875	9.776722479248047	0.39444472351074217	0.1484405029296875	0.301361083984375	-4.962921142578125	-2.925872802734375	9.994594830322265	0.02154781494140625	-0.23882161560058593	3.76129150390625	-4.535675048828125	-2.2125244140625	
36	0.14400000000000002	0.0	0.0	0.0	0.0	4.593	4.623	4.632	4.578	9.87009634399414	-0.12449848632812499	0.0718260498046875	2.7618408203125	-3.45611572265625	-1.041412353515625	9.788693487548828	0.41359833679199215	0.1753752716064453	0.614166259765625	-4.93621826171875	-3.07464599609375	10.01015714111328	0.031124621582031248	-0.21727380065917967	3.448486328125	-4.550933837890625	-2.03704833984375	
37	0.148	0.0	0.0	0.0	0.0	4.59	4.635	4.632	4.581	9.89523546142578	-0.12090718383789062	0.06943184814453125	2.716064453125	-3.582000732421875	-0.850677490234375	9.787496386718749	0.4165910888671875	0.1580173095703125	0.217437744140625	-4.718780517578125	-2.87628173828125	10.02332525024414	0.04369418029785156	-0.2262520568847656	3.56292724609375	-4.69207763671875	-2.15911865234375	
38	0.152	0.0	0.0	0.0	0.0	4.587	4.635	4.632	4.587	9.878476049804688	-0.12689268798828124	0.06763619689941405	2.559661865234375	-3.803253173828125	-0.881195068359375	9.789890588378906	0.39444472351074217	0.15322890625	-0.0152587890625	-5.035400390625	-2.880096435546875	10.008960040283203	0.017357962036132813	-0.23882161560058593	3.68499755859375	-4.657745361328125	-2.300262451171875	
39	0.156	0.0	0.0	0.0	0.0	4.578	4.635	4.626	4.59	9.861716638183593	-0.1352723937988281	0.08678981018066406	2.532958984375	-3.574371337890625	-0.6866455078125	9.779116680908203	0.4034229797363281	0.16699556579589842	0.171661376953125	-4.886627197265625	-2.826690673828125	9.995791931152343	0.020350714111328123	-0.22026655273437498	3.814697265625	-4.405975341796875	-2.246856689453125	
40	0.16	0.0	0.0	0.0	0.0	4.59	4.635	4.632	4.572	9.860519537353515	-0.14305354919433594	0.086191259765625	2.643585205078125	-3.57818603515625	-0.701904296875	9.773131176757811	0.3962403747558593	0.17477672119140625	0.286102294921875	-4.779815673828125	-2.92205810546875	9.999383233642577	0.02693476867675781	-0.2184709014892578	3.734588623046875	-4.608154296875	-2.12860107421875	
41	0.164	0.0	0.0	0.0	0.0	4.593	4.632	4.635	4.5600000000000005	9.885658654785155	-0.14425065002441406	0.06584054565429687	2.62451171875	-3.734588623046875	-0.87738037109375	9.789292037963866	0.3968389251708984	0.15382745666503905	0.095367431640625	-4.718780517578125	-2.811431884765625	10.011354241943359	0.007781155395507812	-0.24361001892089842	3.665924072265625	-4.894256591796875	-2.262115478515625	
42	0.168	0.0	0.0	0.0	0.0	4.593	4.6290000000000004	4.632	4.572	9.897031112670899	-0.14484920043945312	0.08259995727539061	2.422332763671875	-3.574371337890625	-0.8392333984375	9.795277542114258	0.39324762268066404	0.16998831787109375	0.5950927734375	-4.932403564453125	-2.864837646484375	10.01733974609375	0.01915361328125	-0.22385785522460935	3.41796875	-4.329681396484375	-2.105712890625	
43	0.17200000000000001	0.0	0.0	0.0	0.0	4.5840000000000005	4.623	4.632	4.581	9.860519537353515	-0.16879121704101563	0.0909796630859375	2.704620361328125	-3.612518310546875	-1.010894775390625	9.785700735473633	0.36212300109863277	0.16819266662597654	0.3662109375	-4.871368408203125	-3.021240234375	10.002375985717773	-0.02154781494140625	-0.21727380065917967	3.60870361328125	-4.604339599609375	-2.368927001953125	
44	0.176	0.0	0.0	0.0	0.0	4.587	4.638	4.635	4.5840000000000005	9.851541281127929	-0.17238251953125	0.06344634399414062	2.651214599609375	-3.7689208984375	-0.789642333984375	9.773131176757811	0.38187516479492184	0.17477672119140625	0.32806396484375	-4.863739013671875	-3.12042236328125	9.988609326171874	-0.004189852905273437	-0.23523031311035156	3.635406494140625	-4.680633544921875	-2.079010009765625	
45	0.18	0.0	0.0	0.0	0.0	4.581	4.632	4.632	4.59	9.858125335693359	-0.1592144104003906	0.08140285644531249	2.674102783203125	-3.765106201171875	-0.774383544921875	9.775525378417969	0.37888241271972656	0.181959326171875	0.2593994140625	-4.878997802734375	-2.826690673828125	10.000580334472655	-0.018555062866210937	-0.21428104858398436	3.265380859375	-4.638671875	-1.99127197265625	
46	0.184	0.0	0.0	0.0	0.0	4.59	4.632	4.623	4.593	9.86411083984375	-0.17597382202148437	0.09038111267089843	2.8076171875	-3.475189208984375	-0.95367431640625	9.78629928588867	0.3459621398925781	0.17238251953125	0.28228759765625	-4.8980712890625	-2.96783447265625	10.016142645263672	-0.023942016601562498	-0.20949264526367187	3.795623779296875	-4.673004150390625	-1.9683837890625	
47	0.188	0.0	0.0	0.0	0.0	4.593	4.632	4.632	4.566	9.888052856445311	-0.1753752716064453	0.07541735229492187	2.50244140625	-3.871917724609375	-0.957489013671875	9.797671743774414	0.37888241271972656	0.17657237243652343	0.263214111328125	-3.936767578125	-3.11279296875	10.025719451904296	-0.006584054565429687	-0.22864625854492185	3.57818603515625	-4.63104248046875	-2.1820068359375	
48	0.192	0.0	0.0	0.0	0.0	4.593	4.632	4.635	4.557	9.882067352294921	-0.15023615417480468	0.06763619689941405	2.5634765625	-3.7384033203125	-0.77056884765625	9.791087689208984	0.38786066894531246	0.17956512451171874	0.362396240234375	-5.016326904296875	-2.838134765625	10.017938296508788	0.001197100830078125	-0.2232593048095703	3.520965576171875	-4.8980712890625	-1.995086669921875	
49	0.196	0.0	0.0	0.0	0.0	4.59	4.6290000000000004	4.632	4.575	9.859920986938477	-0.18136077575683593	0.08439560852050781	2.643585205078125	-3.780364990234375	-0.7781982421875	9.781510882568359	0.35194764404296874	0.18076222534179687	0.339508056640625	-4.817962646484375	-3.10516357421875	10.002974536132811	-0.031124621582031248	-0.20829554443359374	3.63922119140625	-4.669189453125	-2.277374267578125	
50	0.2	0.0	0.0	0.0	0.0	4.59	4.638	4.635	4.581	9.858723886108399	-0.15682020874023436	0.07841010437011718	2.5177001953125	-3.5858154296875	-0.888824462890625	9.770736975097655	0.3705027069091797	0.18255787658691405	0.354766845703125	-4.856109619140625	-2.79998779296875	9.99220062866211	-0.00718260498046875	-0.20709844360351562	3.467559814453125	-4.428863525390625	-2.025604248046875	
51	0.20400000000000001	0.0	0.0	0.0	0.0	4.59	4.635	4.635	4.587	9.866505041503906	-0.14724340209960937	0.06464344482421874	2.544403076171875	-3.650665283203125	-0.782012939453125	9.781510882568359	0.3896563201904297	0.16759411621093748	0.469207763671875	-5.0048828125	-2.62451171875	10.001777435302733	0.013766659545898436	-0.2166752502441406	3.7689208984375	-4.703521728515625	-2.201080322265625	
52	0.20800000000000002	0.0	0.0	0.0	0.0	4.581	4.632	4.6290000000000004	4.59	9.864709390258788	-0.1640028137207031	0.07541735229492187	2.70843505859375	-3.53240966796875	-0.75531005859375	9.785102185058593	0.3651157531738281	0.16160861206054686	0.4119873046875	-4.604339599609375	-3.021240234375	10.008361489868163	-0.01915361328125	-0.22026655273437498	3.734588623046875	-4.6234130859375	-2.056121826171875	
53	0.212	0.0	0.0	0.0	0.0	4.59	4.632	4.638	4.581	9.873089096069336	-0.1388636962890625	0.0652419952392578	2.78472900390625	-3.42559814453125	-0.74005126953125	9.789890588378906	0.3920505218505859	0.16460136413574217	0.560760498046875	-4.8065185546875	-2.964019775390625	10.007762939453125	0.00239420166015625	-0.2232593048095703	3.711700439453125	-4.730224609375	-2.101898193359375	
54	0.216	0.0	0.0	0.0	0.0	4.587	4.635	4.638	4.563	9.868899243164062	-0.12210428466796874	0.06284779357910156	2.74658203125	-3.86810302734375	-0.93841552734375	9.792284790039062	0.42018239135742186	0.1484405029296875	0.522613525390625	-5.046844482421875	-3.047943115234375	10.005368737792969	0.031124621582031248	-0.2454056701660156	3.56292724609375	-4.703521728515625	-2.2430419921875	
55	0.22	0.0	0.0	0.0	0.0	4.593	4.6290000000000004	4.632	4.563	9.865307940673828	-0.12449848632812499	0.05985504150390625	2.79998779296875	-3.7689208984375	-0.86212158203125	9.776722479248047	0.4070142822265625	0.16041151123046873	0.5035400390625	-4.840850830078125	-2.964019775390625	9.999383233642577	0.020350714111328123	-0.2346317626953125	3.726959228515625	-4.482269287109375	-2.132415771484375	
56	0.224	0.0	0.0	0.0	0.0	4.593	4.623	4.632	4.578	9.860519537353515	-0.10773907470703124	0.061650692749023434	2.780914306640625	-3.56292724609375	-0.881195068359375	9.783905084228515	0.41898529052734373	0.16280571289062498	0.3204345703125	-4.848480224609375	-2.96783447265625	10.001777435302733	0.03950432739257812	-0.24361001892089842	3.559112548828125	-4.72259521484375	-2.1209716796875	
57	0.228	0.0	0.0	0.0	0.0	4.587	4.635	4.635	4.5840000000000005	9.886855755615233	-0.10295067138671875	0.047285482788085934	2.62451171875	-3.44085693359375	-0.705718994140625	9.792284790039062	0.4429273071289062	0.13826514587402344	0.553131103515625	-5.035400390625	-2.933502197265625	10.007762939453125	0.06763619689941405	-0.258573779296875	3.79180908203125	-4.909515380859375	-2.25830078125	
58	0.232	0.0	0.0	0.0	0.0	4.59	4.635	4.632	4.5840000000000005	9.88266590270996	-0.09995791931152344	0.047285482788085934	2.605438232421875	-3.66973876953125	-0.79345703125	9.797671743774414	0.44532150878906246	0.13407529296874998	0.3204345703125	-4.95147705078125	-2.96783447265625	10.006565838623047	0.06105214233398437	-0.25737667846679685	3.53240966796875	-4.528045654296875	-2.25830078125	
59	0.23600000000000002	0.0	0.0	0.0	0.0	4.578	4.635	4.626	4.59	9.877877499389648	-0.09816226806640624	0.06045359191894531	2.544403076171875	-3.551483154296875	-0.7781982421875	9.785102185058593	0.44891281127929683	0.14425065002441406	0.1983642578125	-4.791259765625	-3.009796142578125	10.008960040283203	0.07062894897460938	-0.2501940734863281	3.787994384765625	-4.550933837890625	-2.227783203125	
60	0.24	0.0	0.0	0.0	0.0	4.59	4.632	4.638	4.575	9.86291373901367	-0.086191259765625	0.0526724365234375	2.643585205078125	-3.48663330078125	-0.682830810546875	9.781510882568359	0.46507367248535153	0.1370680450439453	0.492095947265625	-4.9591064453125	-2.872467041015625	10.001777435302733	0.07003039855957031	-0.2615665313720703	3.54766845703125	-4.718780517578125	-2.246856689453125	
61	0.244	0.0	0.0	0.0	0.0	4.59	4.632	4.635	4.5600000000000005	9.871293444824218	-0.076614453125	0.04548983154296875	2.5634765625	-3.5400390625	-0.843048095703125	9.770736975097655	0.46148236999511716	0.1322796417236328	0.3204345703125	-4.970550537109375	-2.887725830078125	10.005967288208007	0.08020575561523437	-0.2663549346923828	3.559112548828125	-4.608154296875	-2.193450927734375	
62	0.248	0.0	0.0	0.0	0.0	4.59	4.6290000000000004	4.632	4.566	9.872490545654296	-0.0718260498046875	0.058657940673828124	2.49481201171875	-3.513336181640625	-0.644683837890625	9.777321029663085	0.4560954162597656	0.1580173095703125	0.3662109375	-4.8980712890625	-2.899169921875	10.008960040283203	0.08319850769042968	-0.2501940734863281	3.566741943359375	-4.558563232421875	-2.18963623046875	
63	0.252	0.0	0.0	0.0	0.0	4.593	4.623	4.6290000000000004	4.578	9.87668039855957	-0.06464344482421874	0.05027823486328125	2.471923828125	-3.391265869140625	-0.89263916015625	9.783306533813477	0.45968671875	0.14963760375976562	0.64849853515625	-5.123138427734375	-2.994537353515625	10.017938296508788	0.076614453125	-0.24301146850585936	3.54766845703125	-4.3487548828125	-2.185821533203125	
64	0.256	0.0	0.0	0.0	0.0	4.587	4.638	4.635	4.587	9.880271701049804	-0.06464344482421874	0.05985504150390625	2.685546875	-3.604888916015625	-0.873565673828125	9.788693487548828	0.47165772705078124	0.15502455749511718	0.278472900390625	-4.669189453125	-2.689361572265625	10.01015714111328	0.08499415893554688	-0.23523031311035156	3.482818603515625	-4.47845458984375	-2.040863037109375	
65	0.26	0.0	0.0	0.0	0.0	4.5840000000000005	4.632	4.632	4.5840000000000005	9.864709390258788	-0.06883329772949218	0.05805939025878906	2.498626708984375	-3.60107421875	-0.812530517578125	9.785102185058593	0.46507367248535153	0.16041151123046873	0.438690185546875	-4.78363037109375	-2.735137939453125	10.002974536132811	0.08319850769042968	-0.22744915771484372	3.536224365234375	-4.5623779296875	-2.262115478515625	
66	0.264	0.0	0.0	0.0	0.0	4.578	4.632	4.626	4.593	9.867702142333984	-0.08918401184082031	0.06643909606933593	2.63214111328125	-3.60870361328125	-0.713348388671875	9.781510882568359	0.4626794708251953	0.16041151123046873	0.54931640625	-4.627227783203125	-3.002166748046875	9.9981861328125	0.07302315063476562	-0.22565350646972654	3.597259521484375	-4.638671875	-2.086639404296875	
67	0.268	0.0	0.0	0.0	0.0	4.593	4.635	4.635	4.566	9.872490545654296	-0.07721300354003906	0.05386953735351562	2.590179443359375	-3.59344482421875	-0.9918212890625	9.78629928588867	0.4584896179199218	0.16041151123046873	0.316619873046875	-4.726409912109375	-3.0670166015625	10.007164389038085	0.07302315063476562	-0.2280477081298828	3.650665283203125	-4.581451416015625	-2.09808349609375	
68	0.272	0.0	0.0	0.0	0.0	4.593	4.632	4.638	4.557	9.8694977935791	-0.08678981018066406	0.06823474731445311	2.643585205078125	-3.498077392578125	-0.698089599609375	9.78629928588867	0.44891281127929683	0.16819266662597654	0.518798828125	-4.9896240234375	-3.01361083984375	10.00955859069824	0.0718260498046875	-0.22685060729980466	3.50189208984375	-4.608154296875	-2.1514892578125	
69	0.276	0.0	0.0	0.0	0.0	4.59	4.6290000000000004	4.632	4.569	9.87069489440918	-0.0909796630859375	0.07601590270996093	2.61688232421875	-3.566741943359375	-0.885009765625	9.785102185058593	0.4327519500732422	0.19033903198242186	0.3662109375	-4.901885986328125	-2.93731689453125	10.006565838623047	0.06105214233398437	-0.21188684692382811	3.79180908203125	-4.741668701171875	-2.28118896484375	
70	0.28	0.0	0.0	0.0	0.0	4.593	4.62	4.635	4.578	9.861716638183593	-0.09756371765136718	0.06404489440917968	2.5177001953125	-3.597259521484375	-0.835418701171875	9.784503634643555	0.4381389038085937	0.18315642700195311	0.25177001953125	-4.608154296875	-2.9144287109375	10.005368737792969	0.05386953735351562	-0.21906945190429686	3.604888916015625	-4.486083984375	-2.040863037109375	
71	0.28400000000000003	0.0	0.0	0.0	0.0	4.59	4.635	4.632	4.5840000000000005	9.861118087768554	-0.09337386474609374	0.07841010437011718	2.58636474609375	-3.4942626953125	-0.782012939453125	9.783905084228515	0.43155484924316406	0.18555062866210936	0.4425048828125	-5.01251220703125	-2.8533935546875	10.007762939453125	0.05626373901367187	-0.20350714111328125	3.84521484375	-4.673004150390625	-2.14385986328125	
72	0.28800000000000003	0.0	0.0	0.0	0.0	4.581	4.632	4.632	4.587	9.86411083984375	-0.10714052429199218	0.08918401184082031	2.895355224609375	-3.22723388671875	-0.827789306640625	9.78629928588867	0.41958384094238277	0.181959326171875	0.28228759765625	-4.947662353515625	-2.735137939453125	10.011952792358398	0.052073886108398436	-0.21308394775390624	3.631591796875	-4.69207763671875	-2.109527587890625	
73	0.292	0.0	0.0	0.0	0.0	4.587	4.632	4.626	4.59	9.8694977935791	-0.11911153259277343	0.08559270935058594	2.437591552734375	-3.803253173828125	-0.812530517578125	9.787496386718749	0.42377369384765623	0.17477672119140625	0.3204345703125	-5.031585693359375	-2.81524658203125	10.005368737792969	0.04129997863769531	-0.21487959899902342	3.86810302734375	-4.825592041015625	-2.101898193359375	
74	0.296	0.0	0.0	0.0	0.0	4.59	4.635	4.638	4.563	9.882067352294921	-0.1227028350830078	0.08200140686035155	2.590179443359375	-3.528594970703125	-0.865936279296875	9.792284790039062	0.4016273284912109	0.18136077575683593	0.18310546875	-4.93621826171875	-2.73895263671875	10.017938296508788	0.037708676147460936	-0.2214636535644531	3.635406494140625	-4.66156005859375	-2.262115478515625	
75	0.3	0.0	0.0	0.0	0.0	4.599	4.632	4.635	4.557	9.87069489440918	-0.1322796417236328	0.08319850769042968	2.574920654296875	-3.650665283203125	-0.797271728515625	9.788693487548828	0.3920505218505859	0.18555062866210936	0.2593994140625	-4.795074462890625	-2.99835205078125	10.001777435302733	0.014963760375976562	-0.2166752502441406	3.559112548828125	-4.451751708984375	-2.117156982421875	
76	0.304	0.0	0.0	0.0	0.0	4.593	4.626	4.632	4.572	9.86291373901367	-0.14425065002441406	0.0939724151611328	2.76947021484375	-3.704071044921875	-0.7476806640625	9.783306533813477	0.3860650177001953	0.17597382202148437	0.537872314453125	-4.791259765625	-2.84576416015625	9.99160207824707	0.016160861206054686	-0.2154781494140625	3.566741943359375	-4.535675048828125	-2.2125244140625	
77	0.308	0.0	0.0	0.0	0.0	4.587	4.635	4.635	4.5840000000000005	9.858125335693359	-0.1610100616455078	0.09217676391601562	2.529144287109375	-3.612518310546875	-0.8087158203125	9.780912332153319	0.373495458984375	0.17178396911621094	0.244140625	-4.825592041015625	-2.78472900390625	10.007762939453125	-0.00718260498046875	-0.21906945190429686	3.82232666015625	-4.642486572265625	-2.017974853515625	
78	0.312	0.0	0.0	0.0	0.0	4.587	4.635	4.635	4.5840000000000005	9.868899243164062	-0.16280571289062498	0.09157821350097656	2.6397705078125	-3.673553466796875	-0.8392333984375	9.782109432983399	0.3651157531738281	0.17477672119140625	0.408172607421875	-5.035400390625	-3.162384033203125	10.005368737792969	-0.02154781494140625	-0.21308394775390624	3.681182861328125	-4.69207763671875	-2.06756591796875	
79	0.316	0.0	0.0	0.0	0.0	4.572	4.632	4.6290000000000004	4.593	9.871891995239258	-0.17477672119140625	0.08918401184082031	2.353668212890625	-3.6163330078125	-0.766754150390625	9.785700735473633	0.36092590026855464	0.18854338073730467	0.148773193359375	-4.84466552734375	-2.742767333984375	10.008960040283203	-0.02154781494140625	-0.21009119567871093	3.475189208984375	-4.535675048828125	-2.00653076171875	
80	0.32	0.0	0.0	0.0	0.0	4.593	4.632	4.638	4.575	9.866505041503906	-0.17896657409667968	0.09816226806640624	2.330780029296875	-3.7078857421875	-0.87738037109375	9.788693487548828	0.35134909362792965	0.17657237243652343	0.030517578125	-4.7760009765625	-2.910614013671875	10.006565838623047	-0.029927520751953124	-0.20649989318847656	3.71551513671875	-4.64630126953125	-2.056121826171875	
81	0.324	0.0	0.0	0.0	0.0	4.59	4.632	4.638	4.566	9.868300692749022	-0.19632453613281248	0.09217676391601562	2.6092529296875	-3.482818603515625	-0.881195068359375	9.785102185058593	0.34656069030761716	0.16819266662597654	0.164031982421875	-4.98199462890625	-2.826690673828125	10.004770187377929	-0.037110125732421874	-0.19632453613281248	3.6163330078125	-4.53948974609375	-2.277374267578125	
82	0.328	0.0	0.0	0.0	0.0	4.593	4.632	4.635	4.5600000000000005	9.859322436523437	-0.20231004028320312	0.08379705810546874	2.655029296875	-4.0130615234375	-0.766754150390625	9.775525378417969	0.3429693878173828	0.17597382202148437	0.42724609375	-4.764556884765625	-2.83050537109375	9.999383233642577	-0.04129997863769531	-0.20709844360351562	3.6468505859375	-4.665374755859375	-2.246856689453125	
83	0.332	0.0	0.0	0.0	0.0	4.59	4.626	4.6290000000000004	4.578	9.861118087768554	-0.19033903198242186	0.07841010437011718	2.529144287109375	-3.383636474609375	-1.0528564453125	9.787496386718749	0.33518823242187495	0.18435352783203124	0.1678466796875	-4.863739013671875	-2.9296875	10.007762939453125	-0.028131869506835935	-0.22505495605468748	3.631591796875	-4.57000732421875	-2.08282470703125	
84	0.336	0.0	0.0	0.0	0.0	4.587	4.638	4.635	4.581	9.87009634399414	-0.19393033447265623	0.06883329772949218	2.349853515625	-3.509521484375	-0.843048095703125	9.783905084228515	0.34177228698730466	0.17477672119140625	0.583648681640625	-5.0811767578125	-2.9754638671875	10.005967288208007	-0.03890577697753906	-0.20829554443359374	3.681182861328125	-4.787445068359375	-2.109527587890625	
85	0.34	0.0	0.0	0.0	0.0	4.59	4.635	4.632	4.5840000000000005	9.867103591918944	-0.18255787658691405	0.059256491088867186	2.597808837890625	-3.66973876953125	-0.87738037109375	9.787496386718749	0.33399113159179683	0.17417817077636719	0.331878662109375	-4.913330078125	-2.796173095703125	10.003573086547851	-0.04189852905273437	-0.22026655273437498	3.734588623046875	-4.611968994140625	-2.2125244140625	
86	0.34400000000000003	0.0	0.0	0.0	0.0	4.578	4.635	4.6290000000000004	4.59	9.864709390258788	-0.17956512451171874	0.05805939025878906	2.635955810546875	-3.528594970703125	-0.9307861328125	9.788094937133788	0.3459621398925781	0.16280571289062498	0.164031982421875	-4.573822021484375	-2.788543701171875	10.001777435302733	-0.028730419921875	-0.23702596435546874	3.84521484375	-4.81414794921875	-2.185821533203125	
87	0.34800000000000003	0.0	0.0	0.0	0.0	4.59	4.632	4.635	4.575	9.871293444824218	-0.17657237243652343	0.06404489440917968	2.376556396484375	-3.692626953125	-0.850677490234375	9.788693487548828	0.3555389465332031	0.15562310791015624	0.31280517578125	-4.96673583984375	-2.864837646484375	9.999981784057617	-0.022146365356445312	-0.23642741394042968	3.803253173828125	-4.749298095703125	-2.239227294921875	
88	0.352	0.0	0.0	0.0	0.0	4.587	4.635	4.638	4.563	9.867702142333984	-0.17477672119140625	0.062249243164062495	2.57110595703125	-3.414154052734375	-0.720977783203125	9.78629928588867	0.354940396118164	0.14604630126953125	0.537872314453125	-5.0811767578125	-2.960205078125	10.014346994018554	-0.02154781494140625	-0.24660277099609373	3.582000732421875	-4.398345947265625	-2.11334228515625	
89	0.356	0.0	0.0	0.0	0.0	4.596	4.632	4.635	4.563	9.878476049804688	-0.14963760375976562	0.040701428222656245	2.635955810546875	-3.307342529296875	-0.965118408203125	9.785102185058593	0.3705027069091797	0.14185644836425781	0.446319580078125	-4.917144775390625	-2.96783447265625	10.014945544433592	-0.006584054565429687	-0.258573779296875	3.60870361328125	-4.61578369140625	-1.972198486328125	
90	0.36	0.0	0.0	0.0	0.0	4.587	4.62	4.632	4.581	9.87608184814453	-0.14604630126953125	0.032920272827148434	2.7618408203125	-3.643035888671875	-0.79345703125	9.787496386718749	0.38187516479492184	0.1406593475341797	0.05340576171875	-4.940032958984375	-3.1585693359375	10.007762939453125	0.0053869537353515625	-0.2567781280517578	3.60107421875	-4.604339599609375	-2.02178955078125	
91	0.364	0.0	0.0	0.0	0.0	4.587	4.638	4.635	4.59	9.873687646484374	-0.13587094421386717	0.054468087768554684	2.52532958984375	-3.704071044921875	-0.823974609375	9.783905084228515	0.39145197143554683	0.1370680450439453	0.164031982421875	-4.947662353515625	-2.9144287109375	10.006565838623047	0.011971008300781249	-0.26336218261718747	3.665924072265625	-4.718780517578125	-2.033233642578125	
92	0.368	0.0	0.0	0.0	0.0	4.587	4.635	4.632	4.5840000000000005	9.865906491088866	-0.13168109130859373	0.051475335693359374	2.544403076171875	-3.22723388671875	-0.804901123046875	9.785102185058593	0.40581718139648437	0.13646949462890623	0.48065185546875	-5.13458251953125	-2.98309326171875	10.003573086547851	0.028730419921875	-0.2699462371826172	3.8604736328125	-4.589080810546875	-2.193450927734375	
93	0.372	0.0	0.0	0.0	0.0	4.578	4.632	4.626	4.59	9.866505041503906	-0.12090718383789062	0.04369418029785156	2.674102783203125	-3.711700439453125	-0.9307861328125	9.77432827758789	0.4273649963378906	0.12210428466796874	0.16021728515625	-4.79888916015625	-3.017425537109375	10.008361489868163	0.040102877807617184	-0.26276363220214843	3.68499755859375	-4.50897216796875	-2.105712890625	
94	0.376	0.0	0.0	0.0	0.0	4.59	4.635	4.638	4.572	9.879074600219726	-0.11013327636718749	0.03531447448730469	2.635955810546875	-3.589630126953125	-0.873565673828125	9.785102185058593	0.4327519500732422	0.12090718383789062	0.400543212890625	-4.90570068359375	-2.96783447265625	10.012551342773437	0.05985504150390625	-0.26336218261718747	3.726959228515625	-4.547119140625	-2.117156982421875	
95	0.38	0.0	0.0	0.0	0.0	4.59	4.635	4.638	4.563	9.875483297729492	-0.086191259765625	0.04848258361816406	2.635955810546875	-3.4942626953125	-0.8087158203125	9.785700735473633	0.44113165588378905	0.12868833923339842	0.43487548828125	-4.82177734375	-2.9449462890625	10.005967288208007	0.061650692749023434	-0.25797522888183594	3.62396240234375	-4.650115966796875	-2.166748046875	
96	0.384	0.0	0.0	0.0	0.0	4.59	4.6290000000000004	4.635	4.569	9.865307940673828	-0.09038111267089843	0.03950432739257812	2.696990966796875	-3.559112548828125	-0.762939453125	9.785102185058593	0.4465186096191406	0.13467384338378904	0.110626220703125	-4.90570068359375	-2.765655517578125	10.002974536132811	0.05805939025878906	-0.25797522888183594	3.57818603515625	-4.64630126953125	-2.376556396484375	
97	0.388	0.0	0.0	0.0	0.0	4.593	4.623	4.635	4.581	9.86351228942871	-0.0796072052001953	0.05805939025878906	2.64739990234375	-3.4637451171875	-0.797271728515625	9.779715231323241	0.45489831542968745	0.13946224670410157	0.17547607421875	-4.95147705078125	-3.009796142578125	9.999383233642577	0.07242460021972656	-0.2424129180908203	3.89862060546875	-4.39453125	-1.979827880859375	
98	0.392	0.0	0.0	0.0	0.0	4.587	4.635	4.635	4.5840000000000005	9.87009634399414	-0.06584054565429687	0.05087678527832031	2.7008056640625	-3.650665283203125	-0.8392333984375	9.785102185058593	0.46028526916503903	0.15203180541992187	0.38909912109375	-4.90570068359375	-3.002166748046875	10.000580334472655	0.07721300354003906	-0.23582886352539062	3.7078857421875	-4.505157470703125	-2.086639404296875	
99	0.396	0.0	0.0	0.0	0.0	4.5840000000000005	4.635	4.632	4.5840000000000005	9.867103591918944	-0.06643909606933593	0.05566518859863281	2.6397705078125	-3.50189208984375	-0.774383544921875	9.780912332153319	0.469862075805664	0.15562310791015624	0.43487548828125	-4.978179931640625	-3.0975341796875	10.012551342773437	0.08200140686035155	-0.2154781494140625	3.7689208984375	-4.7454833984375	-2.13623046875	
100	0.4	0.0	0.0	0.0	0.0	4.578	4.632	4.626	4.59	9.87608184814453	-0.06045359191894531	0.06943184814453125	2.44903564453125	-3.284454345703125	-0.5950927734375	9.779715231323241	0.47165772705078124	0.15981296081542967	0.423431396484375	-4.8370361328125	-3.10516357421875	10.006565838623047	0.09277531433105468	-0.22266075439453123	3.429412841796875	-4.756927490234375	-2.01416015625	
101	0.404	0.0	0.0	0.0	0.0	4.59	4.635	4.638	4.569	9.87727894897461	-0.05327098693847656	0.07601590270996093	2.460479736328125	-3.894805908203125	-0.9002685546875	9.779116680908203	0.469263525390625	0.17357962036132812	0.48065185546875	-4.756927490234375	-3.08990478515625	10.011354241943359	0.08858546142578125	-0.22685060729980466	3.780364990234375	-4.67681884765625	-2.017974853515625	
102	0.40800000000000003	0.0	0.0	0.0	0.0	4.596	4.632	4.635	4.557	9.867702142333984	-0.058657940673828124	0.0796072052001953	2.758026123046875	-3.6163330078125	-0.8392333984375	9.784503634643555	0.469263525390625	0.18076222534179687	0.25177001953125	-4.72259521484375	-2.96783447265625	10.001777435302733	0.09038111267089843	-0.21787235107421873	3.681182861328125	-4.619598388671875	-1.956939697265625	
103	0.41200000000000003	0.0	0.0	0.0	0.0	4.593	4.6290000000000004	4.635	4.572	9.86291373901367	-0.06643909606933593	0.08918401184082031	2.582550048828125	-3.543853759765625	-0.8087158203125	9.771934075927733	0.47285482788085936	0.17836802368164062	0.225067138671875	-4.848480224609375	-3.04412841796875	9.999383233642577	0.1005564697265625	-0.22505495605468748	3.631591796875	-4.695892333984375	-2.239227294921875	
104	0.41600000000000004	0.0	0.0	0.0	0.0	4.59	4.638	4.635	4.5840000000000005	9.872490545654296	-0.061650692749023434	0.08978256225585937	2.452850341796875	-3.53240966796875	-0.7781982421875	9.77432827758789	0.4722562774658203	0.18136077575683593	0.2899169921875	-4.711151123046875	-2.838134765625	10.002974536132811	0.08259995727539061	-0.21248539733886718	3.814697265625	-4.573822021484375	-2.06756591796875	
105	0.42	0.0	0.0	0.0	0.0	4.587	4.635	4.632	4.587	9.875483297729492	-0.06823474731445311	0.09157821350097656	2.674102783203125	-3.551483154296875	-0.75531005859375	9.781510882568359	0.469862075805664	0.17357962036132812	0.34332275390625	-4.970550537109375	-2.95257568359375	10.013748443603514	0.08439560852050781	-0.21428104858398436	3.7841796875	-4.825592041015625	-2.208709716796875	
106	0.424	0.0	0.0	0.0	0.0	4.581	4.635	4.632	4.593	9.871293444824218	-0.07062894897460938	0.10295067138671875	2.620697021484375	-3.559112548828125	-0.614166259765625	9.783905084228515	0.4740519287109375	0.18315642700195311	0.17547607421875	-5.16510009765625	-2.9754638671875	10.00417163696289	0.09457096557617187	-0.21787235107421873	3.73077392578125	-4.7149658203125	-2.17437744140625	
107	0.428	0.0	0.0	0.0	0.0	4.593	4.632	4.623	4.578	9.872490545654296	-0.076614453125	0.08978256225585937	2.658843994140625	-3.54766845703125	-0.858306884765625	9.78629928588867	0.4513070129394531	0.19572598571777342	0.308990478515625	-5.008697509765625	-2.628326416015625	10.012551342773437	0.08319850769042968	-0.21128829650878905	3.41033935546875	-4.53948974609375	-2.28118896484375	
108	0.432	0.0	0.0	0.0	0.0	4.59	4.635	4.638	4.566	9.873687646484374	-0.07841010437011718	0.0909796630859375	2.40325927734375	-3.59344482421875	-0.621795654296875	9.785102185058593	0.4429273071289062	0.19033903198242186	0.18310546875	-4.81414794921875	-2.849578857421875	10.004770187377929	0.06703764648437499	-0.21308394775390624	3.810882568359375	-4.6539306640625	-2.132415771484375	
109	0.436	0.0	0.0	0.0	0.0	4.593	4.632	4.635	4.557	9.86411083984375	-0.08798691101074219	0.086191259765625	2.5634765625	-3.604888916015625	-0.743865966796875	9.785700735473633	0.43634325256347656	0.18315642700195311	0.385284423828125	-4.787445068359375	-2.92205810546875	10.007762939453125	0.05626373901367187	-0.21068974609375	3.543853759765625	-4.49371337890625	-2.0294189453125	
110	0.44	0.0	0.0	0.0	0.0	4.593	4.626	4.632	4.578	9.867702142333984	-0.10354922180175781	0.0909796630859375	2.620697021484375	-3.734588623046875	-0.812530517578125	9.78629928588867	0.4207809417724609	0.17657237243652343	0.213623046875	-5.0201416015625	-2.8076171875	9.998784683227539	0.047884033203124995	-0.21727380065917967	3.696441650390625	-4.535675048828125	-2.2125244140625	
111	0.444	0.0	0.0	0.0	0.0	4.59	4.638	4.635	4.581	9.873687646484374	-0.11372457885742186	0.08379705810546874	2.49481201171875	-3.56292724609375	-0.820159912109375	9.784503634643555	0.4177881896972656	0.17058686828613281	0.125885009765625	-4.67681884765625	-3.11279296875	10.005368737792969	0.03651157531738281	-0.2184709014892578	3.41033935546875	-4.43267822265625	-2.132415771484375	
112	0.448	0.0	0.0	0.0	0.0	4.593	4.635	4.632	4.5840000000000005	9.87727894897461	-0.12389993591308593	0.09217676391601562	2.5787353515625	-3.612518310546875	-0.713348388671875	9.787496386718749	0.39923312683105466	0.17357962036132812	0.3662109375	-4.779815673828125	-2.93731689453125	10.007164389038085	0.020350714111328123	-0.20470424194335937	3.570556640625	-4.673004150390625	-2.193450927734375	
113	0.452	0.0	0.0	0.0	0.0	4.578	4.632	4.6290000000000004	4.593	9.866505041503906	-0.14006079711914063	0.08499415893554688	2.4871826171875	-3.658294677734375	-0.896453857421875	9.785102185058593	0.38666356811523434	0.17956512451171874	0.20599365234375	-4.970550537109375	-2.834320068359375	10.013149893188476	0.010773907470703125	-0.21128829650878905	3.665924072265625	-4.611968994140625	-2.216339111328125	
114	0.456	0.0	0.0	0.0	0.0	4.593	4.6290000000000004	4.632	4.575	9.867702142333984	-0.15263035583496093	0.08379705810546874	2.696990966796875	-3.54766845703125	-0.89263916015625	9.785102185058593	0.37409400939941406	0.18136077575683593	0.2288818359375	-4.802703857421875	-2.948760986328125	10.004770187377929	0.00239420166015625	-0.21487959899902342	3.72314453125	-4.802703857421875	-2.033233642578125	
115	0.46	0.0	0.0	0.0	0.0	4.587	4.635	4.638	4.5600000000000005	9.872490545654296	-0.1640028137207031	0.08379705810546874	2.44140625	-3.734588623046875	-0.762939453125	9.782109432983399	0.3687070556640625	0.17477672119140625	0.3204345703125	-4.764556884765625	-2.9144287109375	9.997587582397461	-0.0047884033203125	-0.21727380065917967	3.673553466796875	-4.520416259765625	-2.010345458984375	
116	0.464	0.0	0.0	0.0	0.0	4.596	4.632	4.635	4.563	9.871293444824218	-0.1771709228515625	0.08798691101074219	2.506256103515625	-3.65447998046875	-0.850677490234375	9.782707983398437	0.36152445068359373	0.17357962036132812	0.003814697265625	-4.85992431640625	-2.857208251953125	10.005368737792969	-0.02154781494140625	-0.2136824981689453	3.513336181640625	-4.711151123046875	-2.05230712890625	
117	0.468	0.0	0.0	0.0	0.0	4.593	4.626	4.635	4.5840000000000005	9.872490545654296	-0.18435352783203124	0.08379705810546874	2.674102783203125	-3.627777099609375	-0.7171630859375	9.779116680908203	0.35673604736328124	0.17298106994628906	0.2593994140625	-4.642486572265625	-2.803802490234375	10.006565838623047	-0.028730419921875	-0.2154781494140625	3.631591796875	-4.7454833984375	-2.09808349609375	
118	0.47200000000000003	0.0	0.0	0.0	0.0	4.5840000000000005	4.638	4.635	4.581	9.873687646484374	-0.18734627990722655	0.0796072052001953	2.51007080078125	-3.437042236328125	-0.904083251953125	9.783306533813477	0.34835634155273437	0.16879121704101563	0.40435791015625	-4.833221435546875	-2.67791748046875	9.999383233642577	-0.028730419921875	-0.21787235107421873	3.74603271484375	-4.703521728515625	-2.101898193359375	
119	0.47600000000000003	0.0	0.0	0.0	0.0	4.587	4.638	4.632	4.5840000000000005	9.87009634399414	-0.18854338073730467	0.0718260498046875	2.716064453125	-3.437042236328125	-0.77056884765625	9.78629928588867	0.3280056274414062	0.1640028137207031	0.186920166015625	-4.87518310546875	-2.887725830078125	9.996989031982421	-0.03950432739257812	-0.21607669982910155	3.66973876953125	-4.93621826171875	-2.13623046875	
120	0.48	0.0	0.0	0.0	0.0	4.578	4.632	4.626	4.593	9.866505041503906	-0.19991583862304688	0.06883329772949218	2.574920654296875	-3.68499755859375	-0.789642333984375	9.78629928588867	0.33399113159179683	0.1610100616455078	0.347137451171875	-4.8065185546875	-2.910614013671875	10.013748443603514	-0.033518823242187495	-0.22445640563964842	3.6468505859375	-4.650115966796875	-2.12860107421875	
121	0.484	0.0	0.0	0.0	0.0	4.593	4.632	4.632	4.572	9.86411083984375	-0.20051438903808594	0.051475335693359374	2.69317626953125	-3.612518310546875	-0.81634521484375	9.787496386718749	0.33039982910156246	0.14604630126953125	0.438690185546875	-4.848480224609375	-3.032684326171875	10.008960040283203	-0.03651157531738281	-0.21906945190429686	3.692626953125	-4.669189453125	-2.162933349609375	
122	0.488	0.0	0.0	0.0	0.0	4.59	4.635	4.638	4.5600000000000005	9.875483297729492	-0.19033903198242186	0.044292730712890624	2.63214111328125	-3.5247802734375	-0.9613037109375	9.79348189086914	0.3429693878173828	0.14245499877929688	0.400543212890625	-4.840850830078125	-3.02886962890625	10.016142645263672	-0.03232172241210937	-0.24001871643066405	3.7078857421875	-4.688262939453125	-2.086639404296875	
123	0.492	0.0	0.0	0.0	0.0	4.596	4.632	4.635	4.569	9.868899243164062	-0.18614917907714842	0.047285482788085934	2.52532958984375	-3.528594970703125	-0.99945068359375	9.792284790039062	0.3477577911376953	0.14006079711914063	0.152587890625	-4.852294921875	-3.032684326171875	10.006565838623047	-0.028131869506835935	-0.24001871643066405	3.551483154296875	-4.50897216796875	-2.162933349609375	
124	0.496	0.0	0.0	0.0	0.0	4.593	4.626	4.635	4.581	9.868899243164062	-0.17357962036132812	0.06404489440917968	2.529144287109375	-3.696441650390625	-0.67901611328125	9.784503634643555	0.35194764404296874	0.12988544006347655	0.461578369140625	-5.05828857421875	-3.021240234375	10.011354241943359	-0.025139117431640625	-0.2561795776367187	3.66973876953125	-4.638671875	-1.949310302734375	
125	0.5	0.0	0.0	0.0	0.0	4.587	4.635	4.632	4.587	9.872490545654296	-0.16340426330566404	0.04967968444824218	2.55584716796875	-3.71551513671875	-0.75531005859375	9.791087689208984	0.35613749694824215	0.14903905334472656	0.614166259765625	-4.69207763671875	-2.960205078125	10.006565838623047	-0.02154781494140625	-0.2549824768066406	3.85284423828125	-4.657745361328125	-2.17437744140625	
126	0.504	0.0	0.0	0.0	0.0	4.5840000000000005	4.635	4.632	4.587	9.877877499389648	-0.16340426330566404	0.05087678527832031	2.674102783203125	-3.871917724609375	-0.881195068359375	9.788693487548828	0.35314474487304687	0.13168109130859373	0.335693359375	-5.062103271484375	-3.025054931640625	9.999383233642577	-0.0143652099609375	-0.24660277099609373	3.662109375	-4.78363037109375	-2.094268798828125	
127	0.508	0.0	0.0	0.0	0.0	4.575	4.635	4.626	4.593	9.865307940673828	-0.15023615417480468	0.052073886108398436	2.628326416015625	-3.398895263671875	-0.812530517578125	9.794678991699218	0.38247371520996093	0.14544775085449219	0.171661376953125	-4.89044189453125	-2.98309326171875	10.01075569152832	0.0005985504150390625	-0.2603694305419922	3.726959228515625	-4.53948974609375	-2.269744873046875	
128	0.512	0.0	0.0	0.0	0.0	4.593	4.635	4.632	4.569	9.87727894897461	-0.14544775085449219	0.052073886108398436	2.4261474609375	-3.559112548828125	-0.80108642578125	9.788693487548828	0.3860650177001953	0.14963760375976562	0.091552734375	-5.04302978515625	-2.8228759765625	10.016142645263672	0.005985504150390624	-0.26336218261718747	3.505706787109375	-4.73785400390625	-2.170562744140625	
129	0.516	0.0	0.0	0.0	0.0	4.59	4.635	4.635	4.557	9.881468801879882	-0.1370680450439453	0.04967968444824218	2.597808837890625	-3.673553466796875	-1.033782958984375	9.783306533813477	0.39264907226562495	0.13766659545898435	0.5035400390625	-4.78363037109375	-3.192901611328125	10.01733974609375	0.008978256225585938	-0.24121581726074218	3.662109375	-4.520416259765625	-2.1820068359375	
130	0.52	0.0	0.0	0.0	0.0	4.587	4.6290000000000004	4.635	4.572	9.882067352294921	-0.13766659545898435	0.05386953735351562	2.6397705078125	-3.48663330078125	-0.79345703125	9.781510882568359	0.4016273284912109	0.1514332550048828	0.19073486328125	-4.72259521484375	-2.8076171875	10.00955859069824	0.02454056701660156	-0.24181436767578124	3.482818603515625	-4.486083984375	-2.117156982421875	
131	0.524	0.0	0.0	0.0	0.0	4.593	4.635	4.635	4.581	9.860519537353515	-0.11911153259277343	0.04848258361816406	2.765655517578125	-3.6773681640625	-0.782012939453125	9.788094937133788	0.4159925384521484	0.1514332550048828	0.507354736328125	-5.05828857421875	-2.838134765625	10.013149893188476	0.037110125732421874	-0.24660277099609373	3.72314453125	-4.642486572265625	-2.1209716796875	
132	0.528	0.0	0.0	0.0	0.0	4.587	4.635	4.635	4.578	9.866505041503906	-0.11073182678222655	0.058657940673828124	2.490997314453125	-3.4332275390625	-1.041412353515625	9.784503634643555	0.41898529052734373	0.1640028137207031	0.339508056640625	-4.917144775390625	-2.90679931640625	10.022128149414062	0.047884033203124995	-0.24121581726074218	3.864288330078125	-4.589080810546875	-2.338409423828125	
133	0.532	0.0	0.0	0.0	0.0	4.578	4.635	4.632	4.59	9.877877499389648	-0.10235212097167969	0.04608838195800781	2.685546875	-3.9215087890625	-0.79345703125	9.785102185058593	0.4267664459228515	0.16280571289062498	0.484466552734375	-4.82940673828125	-2.8228759765625	10.013748443603514	0.06045359191894531	-0.23822306518554687	3.7078857421875	-4.756927490234375	-2.2125244140625	
134	0.536	0.0	0.0	0.0	0.0	4.59	4.635	4.623	4.581	9.85692823486328	-0.10773907470703124	0.11372457885742186	2.5634765625	-3.4942626953125	-0.92315673828125	9.780912332153319	0.40402153015136716	0.19931728820800781	0.354766845703125	-5.07354736328125	-3.0975341796875	10.025719451904296	0.0526724365234375	-0.24779987182617186	3.726959228515625	-4.688262939453125	-2.246856689453125	
135	0.54	0.0	0.0	0.0	0.0	4.59	4.635	4.632	4.563	9.874286196899414	-0.09457096557617187	0.0526724365234375	2.437591552734375	-3.6468505859375	-0.8544921875	9.813832604980469	0.4381389038085937	0.12689268798828124	0.339508056640625	-4.9896240234375	-2.803802490234375	10.04846436767578	0.10354922180175781	-0.2711433380126953	3.631591796875	-4.421234130859375	-2.2430419921875	
136	0.544	0.0	0.0	0.0	0.0	4.596	4.632	4.635	4.5600000000000005	9.841365924072266	-0.04608838195800781	0.14425065002441406	2.47955322265625	-3.513336181640625	-0.762939453125	9.756970315551758	0.4746504791259765	0.2214636535644531	0.148773193359375	-4.802703857421875	-2.78472900390625	10.007762939453125	0.16340426330566404	-0.21906945190429686	3.54766845703125	-4.436492919921875	-2.08282470703125	
137	0.548	0.0	0.0	0.0	0.0	4.59	4.626	4.635	4.581	9.87727894897461	-0.18614917907714842	0.062249243164062495	2.185821533203125	-3.28826904296875	-0.789642333984375	9.813832604980469	0.29388825378417965	0.13766659545898435	0.385284423828125	-5.115509033203125	-3.185272216796875	10.051457119750976	-0.09217676391601562	-0.3022679595947265	3.62396240234375	-4.711151123046875	-2.223968505859375	
138	0.552	0.0	0.0	0.0	0.0	4.59	4.635	4.635	4.5840000000000005	9.906009368896484	0.022146365356445312	0.029328970336914062	2.948760986328125	-3.41796875	-0.759124755859375	9.79946739501953	0.613514175415039	0.16998831787109375	0.362396240234375	-5.02777099609375	-2.872467041015625	10.059836825561522	0.26755203552246093	-0.23044190979003906	3.89862060546875	-4.871368408203125	-2.2735595703125	
139	0.556	0.0	0.0	0.0	0.0	4.587	4.638	4.635	4.5840000000000005	9.868899243164062	-0.09038111267089843	0.076614453125	2.140045166015625	-3.543853759765625	-0.782012939453125	9.787496386718749	0.3848679168701172	0.1370680450439453	0.171661376953125	-4.791259765625	-2.83050537109375	10.014945544433592	0.051475335693359374	-0.26815058593749996	3.60870361328125	-4.61578369140625	-1.972198486328125	
140	0.56	0.0	0.0	0.0	0.0	4.575	4.632	4.6290000000000004	4.59	9.909600671386718	-0.023942016601562498	0.032920272827148434	2.777099609375	-3.7078857421875	-0.919342041015625	9.783306533813477	0.44891281127929683	0.16998831787109375	0.61798095703125	-5.10406494140625	-2.788543701171875	9.97244846496582	0.06703764648437499	-0.21009119567871093	3.57818603515625	-4.47845458984375	-2.1514892578125	
141	0.5640000000000001	0.0	0.0	0.0	0.0	4.59	4.632	4.638	4.578	9.898228213500976	-0.06943184814453125	0.07601590270996093	2.277374267578125	-3.0975341796875	-0.93841552734375	9.803058697509766	0.4255693450927734	0.15203180541992187	0.26702880859375	-4.55474853515625	-3.021240234375	10.081983190917969	0.06105214233398437	-0.2980781066894531	3.635406494140625	-4.817962646484375	-2.353668212890625	
142	0.5680000000000001	0.0	0.0	0.0	0.0	4.59	4.635	4.638	4.5600000000000005	9.9078050201416	0.07900865478515624	0.00718260498046875	2.941131591796875	-4.039764404296875	-0.812530517578125	9.757568865966796	0.6075286712646484	0.1771709228515625	0.2288818359375	-4.8675537109375	-2.62451171875	9.94671079711914	0.2711433380126953	-0.1975216369628906	3.566741943359375	-4.650115966796875	-2.201080322265625	
143	0.5720000000000001	0.0	0.0	0.0	0.0	4.593	4.632	4.635	4.563	9.86291373901367	-0.08319850769042968	0.029328970336914062	3.2196044921875	-3.9215087890625	-0.705718994140625	9.81862100830078	0.23223756103515625	0.14125789794921875	0.385284423828125	-5.146026611328125	-3.025054931640625	9.934739788818359	-0.06763619689941405	-0.19931728820800781	3.635406494140625	-4.58526611328125	-2.12860107421875	
144	0.5760000000000001	0.0	0.0	0.0	0.0	4.59	4.626	4.635	4.581	9.926360083007811	0.04249707946777344	-0.009576806640625	3.154754638671875	-4.02069091796875	-0.95367431640625	9.732429748535155	0.5991489654541016	0.22385785522460935	0.37384033203125	-4.8828125	-3.093719482421875	10.008960040283203	0.2645592834472656	-0.18375497741699218	3.658294677734375	-4.75311279296875	-2.246856689453125	
145	0.58	0.0	0.0	0.0	0.0	4.587	4.635	4.635	4.5840000000000005	9.878476049804688	-0.020949264526367185	0.018555062866210937	3.421783447265625	-4.1351318359375	-0.89263916015625	9.810241302490233	0.3286041778564453	0.13347674255371092	0.240325927734375	-4.9285888671875	-2.681732177734375	9.948506448364258	0.05626373901367187	-0.19512743530273435	3.597259521484375	-4.734039306640625	-2.0904541015625	
146	0.584	0.0	0.0	0.0	0.0	4.5840000000000005	4.635	4.632	4.59	9.920374578857421	0.013766659545898436	0.015562310791015624	2.849578857421875	-3.63922119140625	-0.80108642578125	9.690531219482422	0.508169302368164	0.2059013427734375	0.41961669921875	-5.016326904296875	-3.01361083984375	9.941922393798828	0.15682020874023436	-0.18136077575683593	3.589630126953125	-4.497528076171875	-2.34222412109375	
147	0.588	0.0	0.0	0.0	0.0	4.578	4.635	4.6290000000000004	4.593	9.86411083984375	-0.09038111267089843	0.032920272827148434	3.11279296875	-4.138946533203125	-0.81634521484375	9.852139831542969	0.2597708801269531	0.143652099609375	0.335693359375	-4.711151123046875	-2.655029296875	9.994594830322265	-0.022744915771484374	-0.1753752716064453	3.635406494140625	-4.802703857421875	-2.155303955078125	
148	0.592	0.0	0.0	0.0	0.0	4.593	4.635	4.638	4.575	9.867103591918944	-0.17597382202148437	0.15083470458984374	2.796173095703125	-3.84521484375	-0.926971435546875	9.70968483276367	0.5823895538330078	0.19572598571777342	0.22125244140625	-4.528045654296875	-3.063201904296875	9.951499200439452	0.10773907470703124	-0.201112939453125	3.6163330078125	-4.581451416015625	-2.25067138671875	
149	0.596	0.0	0.0	0.0	0.0	4.59	4.635	4.638	4.563	9.852738381958007	-0.08978256225585937	0.010773907470703125	3.0059814453125	-3.80706787109375	-0.797271728515625	9.721057290649414	0.41060558471679687	0.10354922180175781	0.446319580078125	-4.9285888671875	-2.87628173828125	9.932345587158203	-0.051475335693359374	-0.1927332336425781	3.726959228515625	-4.802703857421875	-2.2430419921875	
150	0.6	0.0	0.0	0.0	0.0	4.59	4.6290000000000004	4.6290000000000004	4.569	9.847949978637695	-0.21188684692382811	0.1693897674560547	3.02886962890625	-3.79180908203125	-0.812530517578125	9.719261639404296	0.5542576843261718	0.20829554443359374	0.194549560546875	-4.795074462890625	-3.314971923828125	9.93354268798828	0.054468087768554684	-0.1484405029296875	3.757476806640625	-4.486083984375	-2.31170654296875	
151	0.604	0.0	0.0	0.0	0.0	4.593	4.623	4.635	4.581	9.90241806640625	-0.297479556274414	0.044292730712890624	1.48773193359375	-2.9449462890625	-0.888824462890625	9.758167416381836	0.3896563201904297	0.07841010437011718	0.51116943359375	-5.222320556640625	-2.7618408203125	9.975441217041014	0.0939724151611328	-0.06823474731445311	3.704071044921875	-4.795074462890625	-1.941680908203125	
152	0.608	0.0	0.0	0.0	0.0	4.587	4.638	4.635	4.5840000000000005	9.871293444824218	-0.23882161560058593	0.13946224670410157	2.9296875	-3.749847412109375	-0.83160400390625	9.778518130493163	0.44113165588378905	0.19213468322753904	0.347137451171875	-5.0811767578125	-3.35693359375	9.896432562255859	0.034715924072265626	-0.1945288848876953	3.437042236328125	-4.32586669921875	-2.66265869140625	
153	0.612	0.0	0.0	0.0	0.0	4.5840000000000005	4.635	4.632	4.59	9.892841259765625	-0.2980781066894531	0.09157821350097656	1.5411376953125	-2.887725830078125	-0.77056884765625	9.738415252685547	0.39145197143554683	0.10235212097167969	0.415802001953125	-5.115509033203125	-2.74658203125	9.931747036743163	0.12509703674316405	-0.0430956298828125	3.76129150390625	-4.61578369140625	-1.987457275390625	
154	0.616	0.0	0.0	0.0	0.0	4.581	4.632	4.626	4.59	9.889249957275391	-0.30705636291503907	0.1322796417236328	2.838134765625	-3.68499755859375	-0.850677490234375	9.814431155395507	0.4100070343017578	0.1945288848876953	0.400543212890625	-4.64630126953125	-3.307342529296875	10.117896215820313	-0.23642741394042968	-0.31543606872558594	3.589630126953125	-4.5318603515625	-2.35748291015625	
155	0.62	0.0	0.0	0.0	0.0	4.59	4.635	4.638	4.566	9.903016616821288	-0.3178302703857422	0.061650692749023434	1.556396484375	-3.124237060546875	-0.614166259765625	9.801861596679688	0.46627077331542965	0.2651578338623047	0.148773193359375	-4.82940673828125	-2.86865234375	9.944915145874022	0.08140285644531249	-0.05626373901367187	3.63922119140625	-4.78363037109375	-2.071380615234375	
156	0.624	0.0	0.0	0.0	0.0	4.596	4.635	4.638	4.5600000000000005	9.83238766784668	-0.2376245147705078	0.03411737365722656	2.5177001953125	-3.3721923828125	-1.0528564453125	9.777919580078125	0.45010991210937495	0.2166752502441406	0.408172607421875	-4.791259765625	-3.231048583984375	10.083778842163085	-0.20051438903808594	-0.31663316955566406	3.894805908203125	-4.46319580078125	-2.31170654296875	
157	0.628	0.0	0.0	0.0	0.0	4.593	4.6290000000000004	4.6290000000000004	4.569	9.92755718383789	-0.354341845703125	0.08259995727539061	1.5869140625	-3.009796142578125	-0.9307861328125	9.815029705810547	0.45489831542968745	0.2657563842773437	0.194549560546875	-5.2490234375	-2.6702880859375	9.961076007080077	0.04967968444824218	-0.04967968444824218	3.582000732421875	-4.451751708984375	-2.918243408203125	
158	0.632	0.0	0.0	0.0	0.0	4.59	4.635	4.635	4.5840000000000005	9.872490545654296	-0.2753331909179687	-0.027533319091796873	2.593994140625	-3.22723388671875	-0.980377197265625	9.885658654785155	0.14903905334472656	0.044292730712890624	0.40435791015625	-4.67681884765625	-3.01361083984375	10.123283169555663	-0.26276363220214843	-0.3459621398925781	3.765106201171875	-4.3487548828125	-2.498626708984375	
159	0.636	0.0	0.0	0.0	0.0	4.59	4.635	4.632	4.581	9.916783276367187	-0.28969840087890625	0.08918401184082031	3.10516357421875	-3.83758544921875	-0.690460205078125	9.802460147094726	0.5309142181396485	0.2549824768066406	-0.263214111328125	-4.974365234375	-2.76947021484375	10.073603485107421	0.19871873779296872	-0.22385785522460935	3.570556640625	-4.76837158203125	-1.865386962890625	
160	0.64	0.0	0.0	0.0	0.0	4.578	4.635	4.632	4.587	9.86411083984375	-0.2693476867675781	0.002992752075195312	2.58636474609375	-3.475189208984375	-1.224517822265625	9.872490545654296	0.1562216583251953	0.055066638183593745	0.22125244140625	-4.756927490234375	-3.032684326171875	10.117896215820313	-0.2693476867675781	-0.32082302246093747	3.681182861328125	-4.33349609375	-2.3040771484375	
161	0.644	0.0	0.0	0.0	0.0	4.587	4.635	4.623	4.5840000000000005	9.776123928833007	0.17178396911621094	0.19871873779296872	3.223419189453125	-3.92913818359375	-0.77056884765625	9.74799205932617	0.4908113403320312	0.23223756103515625	-0.156402587890625	-4.669189453125	-2.490997314453125	10.108917959594725	0.1927332336425781	-0.24301146850585936	3.7078857421875	-4.634857177734375	-2.094268798828125	
162	0.648	0.0	0.0	0.0	0.0	4.593	4.635	4.638	4.563	9.853935482788085	-0.21906945190429686	-0.011372457885742187	2.628326416015625	-3.177642822265625	-0.93841552734375	9.88266590270996	0.17776947326660156	0.04369418029785156	0.32806396484375	-4.93621826171875	-3.040313720703125	10.143633883666991	-0.30466216125488277	-0.47105917663574215	3.70025634765625	-4.72259521484375	-2.0751953125	
163	0.652	0.0	0.0	0.0	0.0	4.593	4.632	4.635	4.5600000000000005	9.770736975097655	0.19812018737792966	0.2059013427734375	3.597259521484375	-3.9215087890625	-0.885009765625	9.71686743774414	0.5135562561035156	0.28012159423828126	0.3662109375	-5.08880615234375	-2.597808837890625	10.070012182617187	0.22086510314941404	-0.24959552307128904	3.505706787109375	-4.467010498046875	-1.766204833984375	
164	0.656	0.0	0.0	0.0	0.0	4.593	4.6290000000000004	4.632	4.578	9.941922393798828	-0.3399766357421875	0.01915361328125	2.22015380859375	-3.513336181640625	-0.446319580078125	9.880870251464843	-0.07003039855957031	0.02693476867675781	0.247955322265625	-4.680633544921875	-2.7313232421875	10.155006341552733	-0.296881005859375	-0.48123453369140623	3.726959228515625	-4.825592041015625	-1.934051513671875	
165	0.66	0.0	0.0	0.0	0.0	4.59	4.635	4.635	4.581	9.766547122192382	0.2041056915283203	0.17058686828613281	3.45611572265625	-4.375457763671875	-0.957489013671875	9.707889181518555	0.5057751007080078	0.2693476867675781	0.09918212890625	-4.8980712890625	-2.51007080078125	9.94012674255371	0.2609679809570312	-0.21128829650878905	3.604888916015625	-4.650115966796875	-2.166748046875	
166	0.664	0.0	0.0	0.0	0.0	4.59	4.635	4.632	4.5840000000000005	9.941922393798828	-0.38247371520996093	0.01975216369628906	2.0599365234375	-3.498077392578125	-0.736236572265625	9.894038360595703	-0.1274912384033203	0.022146365356445312	0.2593994140625	-4.833221435546875	-2.750396728515625	10.124480270385742	-0.30406361083984373	-0.488417138671875	3.772735595703125	-4.863739013671875	-2.14385986328125	
167	0.668	0.0	0.0	0.0	0.0	4.578	4.632	4.6290000000000004	4.59	9.771934075927733	0.19512743530273435	0.15442600708007811	3.490447998046875	-4.093170166015625	-0.83160400390625	9.700108026123047	0.5530605834960938	0.181959326171875	0.667572021484375	-4.886627197265625	-3.398895263671875	9.906009368896484	0.30346506042480464	-0.17597382202148437	3.742218017578125	-4.550933837890625	-2.361297607421875	
168	0.672	0.0	0.0	0.0	0.0	4.59	4.632	4.638	4.5840000000000005	9.934739788818359	-0.4285620971679687	-0.001197100830078125	1.796722412109375	-3.07464599609375	-0.545501708984375	9.91558617553711	-0.1466448516845703	-0.016759411621093748	0.2593994140625	-4.84466552734375	-2.73895263671875	10.149020837402343	-0.30885201416015623	-0.489015689086914	3.734588623046875	-4.856109619140625	-1.77001953125	
169	0.676	0.0	0.0	0.0	0.0	4.587	4.635	4.638	4.563	9.835978970336914	-0.14006079711914063	0.052073886108398436	2.399444580078125	-3.753662109375	-1.09100341796875	9.707290631103515	0.6302735870361328	0.17657237243652343	0.843048095703125	-5.14984130859375	-3.337860107421875	9.909600671386718	0.2867056488037109	-0.1801636749267578	3.513336181640625	-5.06591796875	-2.338409423828125	
170	0.68	0.0	0.0	0.0	0.0	4.596	4.632	4.635	4.563	9.913191973876952	-0.40940848388671874	0.023942016601562498	1.861572265625	-3.01361083984375	-0.713348388671875	9.911994873046874	-0.12090718383789062	-0.010175357055664061	0.568389892578125	-4.87518310546875	-2.712249755859375	9.94072529296875	-0.04608838195800781	-0.12629413757324218	3.5858154296875	-4.6844482421875	-1.89208984375	
171	0.684	0.0	0.0	0.0	0.0	4.596	4.626	4.635	4.581	9.801263046264648	-0.12210428466796874	0.09217676391601562	2.368927001953125	-3.448486328125	-0.9307861328125	9.700108026123047	0.6865373260498047	0.20530279235839843	0.67138671875	-5.04302978515625	-2.9754638671875	9.916783276367187	0.33698388366699217	-0.17896657409667968	3.566741943359375	-4.72259521484375	-2.368927001953125	
172	0.6880000000000001	0.0	0.0	0.0	0.0	4.587	4.638	4.635	4.5840000000000005	9.919776028442381	-0.4782417816162109	0.051475335693359374	2.0904541015625	-3.292083740234375	-0.606536865234375	9.73602105102539	0.42317514343261714	0.10893617553710937	0.423431396484375	-5.146026611328125	-2.872467041015625	9.955689053344726	-0.09576806640624999	-0.14125789794921875	3.650665283203125	-4.924774169921875	-1.949310302734375	
173	0.6920000000000001	0.0	0.0	0.0	0.0	4.593	4.635	4.6290000000000004	4.5840000000000005	9.797073193359374	-0.09516951599121093	0.14784195251464843	1.987457275390625	-3.3111572265625	-0.904083251953125	9.682750064086914	0.7511807708740234	0.2316390106201172	0.843048095703125	-4.917144775390625	-3.223419189453125	9.85632968444824	0.05327098693847656	-0.12868833923339842	3.787994384765625	-4.486083984375	-2.811431884765625	
174	0.6960000000000001	0.0	0.0	0.0	0.0	4.578	4.632	4.626	4.59	9.878476049804688	0.19333178405761717	-0.017956512451171875	2.2735595703125	-3.36456298828125	-0.66375732421875	9.738415252685547	0.45968671875	0.11013327636718749	0.293731689453125	-5.13458251953125	-2.910614013671875	9.934739788818359	-0.06344634399414062	-0.1406593475341797	3.59344482421875	-4.76837158203125	-2.0294189453125	
175	0.7000000000000001	0.0	0.0	0.0	0.0	4.59	4.635	4.638	4.572	9.798270294189452	-0.07481880187988281	0.15382745666503905	2.437591552734375	-3.47137451171875	-0.86212158203125	9.689334118652344	0.738012661743164	0.3112462158203125	0.26702880859375	-4.547119140625	-3.6468505859375	9.868300692749022	0.032920272827148434	-0.13766659545898435	3.963470458984375	-4.50897216796875	-2.60162353515625	
176	0.704	0.0	0.0	0.0	0.0	4.59	4.635	4.638	4.5600000000000005	9.90181951599121	0.2501940734863281	-0.03172317199707031	2.7618408203125	-3.8299560546875	-0.980377197265625	9.745597857666015	0.469862075805664	0.12569558715820311	0.6103515625	-4.817962646484375	-2.643585205078125	9.897629663085937	0.258573779296875	0.003591302490234375	3.42559814453125	-4.50897216796875	-1.79290771484375	
177	0.708	0.0	0.0	0.0	0.0	4.593	4.632	4.635	4.569	9.943718045043944	0.02633621826171875	-0.03890577697753906	5.283355712890625	-5.08880615234375	-1.102447509765625	9.667786303710937	0.7900865478515624	0.32022447204589843	0.244140625	-4.833221435546875	-3.83758544921875	9.840767373657226	0.055066638183593745	-0.13766659545898435	3.841400146484375	-4.43267822265625	-2.597808837890625	
178	0.712	0.0	0.0	0.0	0.0	4.59	4.626	4.635	4.581	9.925761532592773	0.3178302703857422	-0.06943184814453125	3.101348876953125	-4.062652587890625	-0.84686279296875	9.78031378173828	0.70868369140625	0.2041056915283203	-0.1068115234375	-5.19561767578125	-2.44140625	9.897031112670899	0.28012159423828126	-0.012569558715820313	3.59344482421875	-4.50897216796875	-1.86920166015625	
179	0.716	0.0	0.0	0.0	0.0	4.59	4.638	4.635	4.5840000000000005	9.922768780517577	0.018555062866210937	-0.015562310791015624	5.5999755859375	-5.24139404296875	-1.21307373046875	9.668384854125977	0.7841010437011718	0.33698388366699217	0.194549560546875	-4.730224609375	-3.650665283203125	9.853935482788085	0.013168109130859374	-0.11252747802734374	3.74603271484375	-4.44793701171875	-2.40325927734375	
180	0.72	0.0	0.0	0.0	0.0	4.5840000000000005	4.632	4.632	4.587	9.950302099609374	0.33099837951660155	-0.08978256225585937	3.810882568359375	-4.69970703125	-0.827789306640625	9.785102185058593	0.6524199523925781	0.19812018737792966	-0.270843505859375	-4.970550537109375	-2.490997314453125	9.890447058105469	0.2645592834472656	-0.012569558715820313	3.772735595703125	-4.49371337890625	-1.73187255859375	
181	0.724	0.0	0.0	0.0	0.0	4.581	4.635	4.626	4.593	9.897629663085937	0.032920272827148434	0.004189852905273437	5.786895751953125	-5.481719970703125	-1.3427734375	9.900622415161132	0.11252747802734374	-0.03651157531738281	0.2899169921875	-4.72259521484375	-2.925872802734375	10.174758505249024	-0.21487959899902342	-0.45190556335449217	3.63922119140625	-4.2724609375	-2.5177001953125	
182	0.728	0.0	0.0	0.0	0.0	4.593	4.632	4.638	4.566	9.813234054565429	-0.04189852905273437	0.33698388366699217	3.170013427734375	-4.138946533203125	-0.583648681640625	9.792284790039062	0.603338818359375	0.1867477294921875	-0.156402587890625	-5.031585693359375	-2.28118896484375	9.90241806640625	0.22744915771484372	-0.017956512451171875	3.849029541015625	-4.608154296875	-1.7547607421875	
183	0.732	0.0	0.0	0.0	0.0	4.596	4.632	4.638	4.5600000000000005	9.885658654785155	-0.014963760375976562	0.0143652099609375	5.832672119140625	-5.657196044921875	-1.316070556640625	9.9078050201416	0.05985504150390625	-0.010175357055664061	0.377655029296875	-4.932403564453125	-3.28826904296875	10.179546908569336	-0.25797522888183594	-0.46507367248535153	3.841400146484375	-4.4403076171875	-2.361297607421875	
184	0.736	0.0	0.0	0.0	0.0	4.599	4.6290000000000004	4.635	4.575	9.797073193359374	-0.08559270935058594	0.3687070556640625	2.506256103515625	-3.467559814453125	-0.54931640625	9.74799205932617	0.4429273071289062	0.3429693878173828	0.18310546875	-4.9285888671875	-2.26593017578125	10.111910711669921	0.46148236999511716	-0.33399113159179683	3.795623779296875	-4.619598388671875	-1.739501953125	
185	0.74	0.0	0.0	0.0	0.0	4.593	4.623	4.635	4.578	9.859322436523437	-0.059256491088867186	0.04908113403320312	-1.323699951171875	-1.041412353515625	-0.8087158203125	9.90241806640625	-0.002992752075195312	-0.015562310791015624	0.17547607421875	-4.650115966796875	-3.24249267578125	10.188525164794921	-0.29867665710449215	-0.4483142608642578	3.692626953125	-4.4708251953125	-2.44903564453125	
186	0.744	0.0	0.0	0.0	0.0	4.59	4.638	4.638	4.587	9.776722479248047	-0.11911153259277343	0.39145197143554683	2.2735595703125	-3.53240966796875	-0.75531005859375	9.758167416381836	0.373495458984375	0.36571430358886714	-0.026702880859375	-4.8828125	-2.147674560546875	10.120888967895507	0.43574470214843747	-0.32142157287597656	3.80706787109375	-4.611968994140625	-1.918792724609375	
187	0.748	0.0	0.0	0.0	0.0	4.581	4.635	4.632	4.59	9.897629663085937	-0.7846995941162109	-0.05805939025878906	-1.28173828125	-0.93841552734375	-0.6256103515625	9.820416659545899	-0.11013327636718749	-0.04369418029785156	0.583648681640625	-4.89044189453125	-2.902984619140625	10.171167202758788	-0.3956418243408203	-0.42497079467773435	3.772735595703125	-4.764556884765625	-2.147674560546875	
188	0.752	0.0	0.0	0.0	0.0	4.59	4.635	4.623	4.593	9.758765966796874	-0.11791443176269531	0.4112041351318359	1.82342529296875	-3.124237060546875	-0.705718994140625	9.76235726928711	0.36810850524902344	0.36152445068359373	0.0152587890625	-4.638671875	-2.227783203125	10.124480270385742	0.4483142608642578	-0.32441432495117184	3.2958984375	-4.608154296875	-1.895904541015625	
189	0.756	0.0	0.0	0.0	0.0	4.593	4.635	4.638	4.569	9.917980377197265	-0.7924807495117187	-0.04369418029785156	-1.789093017578125	-0.782012939453125	-0.843048095703125	9.97783541870117	-0.29867665710449215	-0.04967968444824218	0.79345703125	-4.78363037109375	-2.84576416015625	10.162188946533202	-0.4159925384521484	-0.39145197143554683	3.833770751953125	-4.650115966796875	-1.819610595703125	
190	0.76	0.0	0.0	0.0	0.0	4.596	4.632	4.635	4.557	9.86411083984375	-0.03950432739257812	0.0	1.07574462890625	-2.498626708984375	-0.965118408203125	9.747393508911133	0.24121581726074218	0.3537432952880859	1.007080078125	-5.06591796875	-3.2196044921875	10.114304913330077	0.3477577911376953	-0.3064578125	3.536224365234375	-4.60052490234375	-2.471923828125	
191	0.764	0.0	0.0	0.0	0.0	4.593	4.6290000000000004	4.635	4.5840000000000005	9.945513696289062	-0.7966706024169922	-0.08020575561523437	-1.80816650390625	-0.93841552734375	-0.823974609375	9.988609326171874	-0.2753331909179687	-0.05626373901367187	0.827789306640625	-4.772186279296875	-2.948760986328125	10.177751257324218	-0.44053310546874996	-0.3950432739257812	3.658294677734375	-5.016326904296875	-2.166748046875	
192	0.768	0.0	0.0	0.0	0.0	4.593	4.638	4.635	4.581	9.879673150634765	0.0053869537353515625	-0.022744915771484374	1.346588134765625	-2.99072265625	-0.93841552734375	9.658209497070311	1.1623849060058593	0.25438392639160157	0.9918212890625	-4.974365234375	-3.13568115234375	9.885658654785155	0.430956298828125	-0.034715924072265626	3.597259521484375	-4.78363037109375	-2.532958984375	
193	0.772	0.0	0.0	0.0	0.0	4.593	4.638	4.635	4.5840000000000005	9.951499200439452	-0.8463502868652343	-0.09516951599121093	-2.15911865234375	-0.469207763671875	-0.576019287109375	9.976638317871092	-0.3327940307617187	-0.09038111267089843	0.78582763671875	-4.909515380859375	-2.66265869140625	10.149020837402343	-0.5374982727050781	-0.3764882110595703	3.627777099609375	-4.871368408203125	-1.953125	
194	0.776	0.0	0.0	0.0	0.0	4.578	4.635	4.632	4.59	9.897629663085937	-0.08020575561523437	-0.028131869506835935	1.163482666015625	-2.971649169921875	-1.06048583984375	9.682750064086914	1.071405242919922	0.23822306518554687	1.079559326171875	-4.779815673828125	-3.3416748046875	9.907206469726562	0.2998737579345703	-0.047285482788085934	3.551483154296875	-4.581451416015625	-2.346038818359375	
195	0.78	0.0	0.0	0.0	0.0	4.59	4.632	4.635	4.581	9.90900212097168	0.12389993591308593	0.076614453125	3.90625	-4.352569580078125	-0.537872314453125	9.767145672607422	0.6452373474121094	0.18854338073730467	0.209808349609375	-4.772186279296875	-3.177642822265625	9.976638317871092	-0.06105214233398437	-0.15442600708007811	3.76129150390625	-4.886627197265625	-1.934051513671875	
196	0.784	0.0	0.0	0.0	0.0	4.5840000000000005	4.635	4.638	4.563	9.885658654785155	-0.040701428222656245	-0.02154781494140625	1.697540283203125	-2.96783447265625	-0.812530517578125	9.644442837524414	1.092953057861328	0.2663549346923828	1.285552978515625	-5.08880615234375	-3.376007080078125	9.88266590270996	0.3178302703857422	-0.06344634399414062	3.509521484375	-4.756927490234375	-2.22015380859375	
197	0.788	0.0	0.0	0.0	0.0	4.593	4.632	4.635	4.5600000000000005	9.909600671386718	0.025139117431640625	0.061650692749023434	3.551483154296875	-4.009246826171875	-0.38909912109375	9.785102185058593	0.5596446380615234	0.16041151123046873	0.301361083984375	-4.871368408203125	-3.086090087890625	9.982623822021484	-0.21068974609375	-0.2292448089599609	3.391265869140625	-4.69207763671875	-1.766204833984375	
198	0.792	0.0	0.0	0.0	0.0	4.593	4.626	4.635	4.581	9.885658654785155	-0.03232172241210937	-0.003591302490234375	5.878448486328125	-5.4168701171875	-1.13677978515625	9.709086282348633	1.0085574493408203	0.2136824981689453	0.3509521484375	-5.062103271484375	-4.02069091796875	9.85094273071289	-0.00239420166015625	-0.15442600708007811	3.757476806640625	-4.4097900390625	-2.75421142578125	
199	0.796	0.0	0.0	0.0	0.0	4.59	4.638	4.635	4.587	9.90241806640625	0.16340426330566404	0.029927520751953124	3.910064697265625	-4.413604736328125	-0.629425048828125	9.756371765136718	0.6302735870361328	0.1867477294921875	0.141143798828125	-4.840850830078125	-2.956390380859375	9.96047745666504	-0.15741875915527342	-0.23702596435546874	3.692626953125	-4.947662353515625	-1.99127197265625	
200	0.8	0.0	0.0	0.0	0.0	4.59	4.635	4.635	0.003	9.885658654785155	-0.020949264526367185	0.07122749938964844	6.2255859375	-5.66864013671875	-1.239776611328125	9.69771382446289	1.035492218017578	0.2292448089599609	0.293731689453125	-5.077362060546875	-3.795623779296875	9.823409411621093	0.06703764648437499	-0.143652099609375	3.50189208984375	-4.184722900390625	-2.796173095703125	
201	0.804	0.0	0.0	0.0	0.0	0.0	0.003	0.006	0.003	9.919177478027343	0.18435352783203124	0.020350714111328123	4.1961669921875	-4.67681884765625	-0.560760498046875	9.769539874267577	0.37409400939941406	0.1849520782470703	-0.2593994140625	-5.008697509765625	-2.399444580078125	10.013149893188476	-0.3274070770263672	-0.18076222534179687	3.902435302734375	-4.7149658203125	-1.964569091796875	
202	0.808	0.0	0.0	0.0	0.0	0.003	0.003	0.003	0.006	9.893439810180663	-0.07541735229492187	0.0796072052001953	6.44683837890625	-5.82122802734375	-1.117706298828125	9.692925421142577	1.014542953491211	0.20171148986816406	0.54931640625	-4.611968994140625	-4.138946533203125	9.81862100830078	0.001197100830078125	-0.1304839904785156	3.9215087890625	-4.680633544921875	-2.773284912109375	
203	0.812	0.0	0.0	0.0	0.0	0.003	0.003	0.003	0.003	9.930549935913085	-0.05386953735351562	-0.025139117431640625	3.74603271484375	-4.329681396484375	-0.888824462890625	9.737218151855469	0.5183446594238281	0.1771709228515625	-0.141143798828125	-4.817962646484375	-2.38037109375	9.842563024902343	0.4542997650146484	-0.02154781494140625	3.60870361328125	-4.45556640625	-1.89208984375	
204	0.8160000000000001	0.0	0.0	0.0	0.0	0.006	0.006	0.006	0.003	9.871293444824218	0.20470424194335937	0.10654197387695312	6.130218505859375	-5.83648681640625	-0.949859619140625	9.88266590270996	-0.07781155395507812	0.02633621826171875	0.14495849609375	-4.7607421875	-3.1585693359375	9.816825357055663	0.061650692749023434	-0.14544775085449219	3.9520263671875	-4.43267822265625	-2.60162353515625	
205	0.8200000000000001	0.0	0.0	0.0	0.0	0.009000000000000001	0.006	0.006	0.003	9.903615167236328	-0.7553706237792969	0.013766659545898436	2.777099609375	-3.83758544921875	-0.90789794921875	9.745597857666015	0.5189432098388671	0.1945288848876953	-0.377655029296875	-4.76837158203125	-2.35748291015625	9.847949978637695	0.4070142822265625	-0.02154781494140625	3.597259521484375	-4.642486572265625	-2.071380615234375	
206	0.8240000000000001	0.0	0.0	0.0	0.0	0.003	0.003	0.003	0.003	9.850344180297851	-0.3447650390625	0.1274912384033203	3.879547119140625	-4.21142578125	-0.820159912109375	9.87608184814453	0.018555062866210937	0.04249707946777344	-0.125885009765625	-5.054473876953125	-3.204345703125	10.244788903808594	-0.030526071166992186	-0.5811924530029297	3.734588623046875	-4.57000732421875	-2.696990966796875	
207	0.8280000000000001	0.0	0.0	0.0	0.0	0.009000000000000001	0.006	0.006	0.003	9.941922393798828	-0.19692308654785154	-0.027533319091796873	3.444671630859375	-4.3792724609375	-0.766754150390625	9.815029705810547	0.25318682556152344	0.181959326171875	0.118255615234375	-5.123138427734375	-2.05230712890625	9.783905084228515	0.5027823486328125	0.09457096557617187	3.85284423828125	-4.58526611328125	-1.8768310546875	
208	0.8320000000000001	0.0	0.0	0.0	0.0	0.003	0.003	0.003	0.006	9.920374578857421	-0.21308394775390624	-0.11252747802734374	4.0435791015625	-4.43267822265625	-1.155853271484375	9.879074600219726	0.027533319091796873	0.09816226806640624	0.026702880859375	-4.795074462890625	-3.185272216796875	10.223241088867187	-0.18734627990722655	-0.5141548065185546	3.997802734375	-4.764556884765625	-2.74658203125	
209	0.836	0.0	0.0	0.0	0.0	0.006	0.003	0.003	0.003	9.929951385498047	-0.3585316986083984	0.010175357055664061	4.802703857421875	-5.30242919921875	-1.079559326171875	9.86291373901367	0.1657984649658203	0.16879121704101563	-0.02288818359375	-4.8980712890625	-2.330780029296875	10.152612139892577	0.1562216583251953	-0.29867665710449215	3.765106201171875	-4.7607421875	-2.338409423828125	
210	0.84	0.0	0.0	0.0	0.0	0.003	0.003	0.003	0.003	9.906009368896484	-0.4213794921875	-0.11911153259277343	2.201080322265625	-3.055572509765625	-0.782012939453125	9.815628256225585	0.4333505004882812	0.07422025146484375	0.67901611328125	-5.035400390625	-2.79998779296875	10.190919366455077	-0.031124621582031248	-0.5183446594238281	3.833770751953125	-4.459381103515625	-2.70843505859375	
211	0.844	0.0	0.0	0.0	0.0	0.006	0.006	0.003	0.003	9.911994873046874	-0.36631285400390623	0.03890577697753906	1.07574462890625	-2.58636474609375	-0.48065185546875	9.862315188598632	0.41060558471679687	0.12210428466796874	-0.1373291015625	-4.993438720703125	-2.01416015625	10.168773001098632	0.3758896606445312	-0.3962403747558593	3.787994384765625	-4.901885986328125	-1.544952392578125	
212	0.848	0.0	0.0	0.0	0.0	0.006	0.006	0.003	0.006	9.913790524291992	-0.297479556274414	-0.17477672119140625	2.201080322265625	-3.02886962890625	-1.079559326171875	10.022128149414062	-0.36391865234375	-0.1466448516845703	0.423431396484375	-5.100250244140625	-2.7618408203125	10.188525164794921	-0.7984662536621093	-0.4752490295410156	3.475189208984375	-4.543304443359375	-2.0751953125	
213	0.852	0.0	0.0	0.0	0.0	0.006	0.003	0.003	0.003	9.618705169677733	-0.19812018737792966	0.46806642456054687	0.560760498046875	-1.953125	-0.720977783203125	9.867702142333984	0.3920505218505859	0.1693897674560547	-0.030517578125	-4.833221435546875	-2.956390380859375	10.20169327392578	0.40402153015136716	-0.35673604736328124	3.589630126953125	-4.5928955078125	-2.033233642578125	
214	0.856	0.0	0.0	0.0	0.0	0.003	0.003	0.003	0.003	9.886855755615233	-0.488417138671875	-0.07242460021972656	1.346588134765625	-2.90679931640625	-0.888824462890625	9.894038360595703	0.12629413757324218	0.02454056701660156	0.30517578125	-5.035400390625	-2.925872802734375	10.022128149414062	0.01975216369628906	-0.10414777221679687	3.742218017578125	-4.428863525390625	-2.0294189453125	
215	0.86	0.0	0.0	0.0	0.0	0.003	0.003	0.003	0.003	9.609128363037108	-0.037110125732421874	0.46627077331542965	0.1678466796875	-1.9378662109375	-0.507354736328125	9.589974749755859	0.9558850128173828	0.34057518615722654	0.457763671875	-4.901885986328125	-2.81524658203125	10.111910711669921	0.1274912384033203	-0.2567781280517578	3.421783447265625	-4.60052490234375	-2.048492431640625	
216	0.864	0.0	0.0	0.0	0.0	0.003	0.006	0.003	0.006	9.88386300354004	0.13168109130859373	0.09696516723632811	-0.05340576171875	-1.758575439453125	-0.774383544921875	10.024522351074218	-0.27952304382324217	-0.16220716247558592	0.58746337890625	-5.0811767578125	-2.269744873046875	10.144232434082031	-0.03651157531738281	-0.34536358947753903	3.6468505859375	-4.467010498046875	-1.941680908203125	
217	0.868	0.0	0.0	0.0	0.0	0.0	0.003	0.003	0.006	9.59536170349121	-0.10115502014160156	0.49021278991699213	-0.278472900390625	-1.598358154296875	-0.782012939453125	9.708487731933593	0.1580173095703125	0.23403321228027343	0.67901611328125	-4.8370361328125	-3.025054931640625	10.005967288208007	0.04668693237304687	-0.16041151123046873	3.696441650390625	-4.61578369140625	-2.166748046875	
218	0.872	0.0	0.0	0.0	0.0	0.006	0.003	0.003	0.006	9.868300692749022	-0.022744915771484374	0.10354922180175781	-0.77056884765625	-1.1749267578125	-0.5950927734375	9.749189160156249	0.709880792236328	0.2567781280517578	0.11444091796875	-4.7607421875	-2.971649169921875	10.147823736572265	0.025139117431640625	-0.40222587890625	3.5858154296875	-4.558563232421875	-1.888275146484375	
219	0.876	0.0	0.0	0.0	0.0	0.0	0.003	0.006	0.003	9.567828384399414	0.031124621582031248	0.4740519287109375	-0.03814697265625	-1.636505126953125	-0.667572021484375	9.65940659790039	0.24480711975097655	0.26695348510742184	0.31280517578125	-4.791259765625	-2.777099609375	9.928754284667969	0.058657940673828124	-0.1292868896484375	3.70025634765625	-4.779815673828125	-2.391815185546875	
220	0.88	0.0	0.0	0.0	0.0	0.003	0.003	0.003	0.006	9.892841259765625	0.17836802368164062	0.07601590270996093	-0.156402587890625	-2.040863037109375	-0.789642333984375	9.771335525512695	0.59376201171875	0.23104046020507812	0.453948974609375	-4.993438720703125	-3.505706787109375	9.995791931152343	0.12808978881835936	-0.33399113159179683	3.70025634765625	-4.85992431640625	-2.101898193359375	
221	0.884	0.0	0.0	0.0	0.0	0.003	0.003	0.003	0.003	9.955090502929687	-0.025737667846679687	-0.055066638183593745	2.838134765625	-4.032135009765625	-1.079559326171875	9.788693487548828	0.2645592834472656	0.19033903198242186	0.392913818359375	-4.6234130859375	-3.143310546875	10.01733974609375	0.03411737365722656	-0.14903905334472656	3.7078857421875	-4.741668701171875	-2.422332763671875	
222	0.888	0.0	0.0	0.0	0.0	0.003	0.003	0.003	0.003	9.894038360595703	0.1083376251220703	0.11611878051757812	0.1983642578125	-2.216339111328125	-0.797271728515625	9.745597857666015	0.469862075805664	0.26815058593749996	0.461578369140625	-4.9591064453125	-2.964019775390625	9.962273107910155	0.16280571289062498	-0.3082534637451172	3.681182861328125	-4.878997802734375	-2.132415771484375	
223	0.892	0.0	0.0	0.0	0.0	0.003	0.003	0.003	0.003	9.913191973876952	0.0047884033203125	0.020350714111328123	3.101348876953125	-3.997802734375	-0.812530517578125	9.719860189819336	0.4165910888671875	0.23044190979003906	0.446319580078125	-4.7607421875	-3.414154052734375	9.80066449584961	-0.051475335693359374	-0.025737667846679687	3.6773681640625	-4.474639892578125	-2.32696533203125	
224	0.896	0.0	0.0	0.0	0.0	0.003	0.003	0.003	0.003	9.924564431762695	0.08080430603027343	0.1131260284423828	6.122589111328125	-6.099700927734375	-0.911712646484375	9.6917283203125	0.34656069030761716	0.2292448089599609	0.29754638671875	-4.787445068359375	-2.468109130859375	9.931148486328125	0.07003039855957031	-0.23523031311035156	3.42559814453125	-4.703521728515625	-2.12860107421875	
225	0.9	0.0	0.0	0.0	0.0	0.003	0.003	0.003	0.003	9.941922393798828	0.07900865478515624	-0.010175357055664061	3.833770751953125	-4.21142578125	-0.926971435546875	9.739612353515625	0.6296750366210937	0.21128829650878905	0.514984130859375	-4.817962646484375	-3.33404541015625	9.833584768676758	-0.04668693237304687	-0.09337386474609374	3.631591796875	-4.5166015625	-2.41851806640625	
226	0.904	0.0	0.0	0.0	0.0	0.003	0.003	0.006	0.003	9.97184991455078	-0.06643909606933593	-0.20350714111328125	6.0882568359375	-6.27899169921875	-0.804901123046875	9.67856021118164	0.15682020874023436	0.17238251953125	0.049591064453125	-4.82940673828125	-2.49481201171875	9.903016616821288	0.03651157531738281	-0.2472013214111328	2.941131591796875	-4.688262939453125	-2.2125244140625	
227	0.908	0.0	0.0	0.0	0.0	0.009000000000000001	0.003	0.006	0.006	9.949104998779296	0.09935936889648436	0.004189852905273437	4.63104248046875	-4.749298095703125	-0.8392333984375	9.81263550415039	0.44592005920410155	0.033518823242187495	0.370025634765625	-4.82940673828125	-2.979278564453125	9.836577520751952	-0.040102877807617184	-0.12808978881835936	3.79180908203125	-4.47845458984375	-2.368927001953125	
228	0.912	0.0	0.0	0.0	0.0	0.009000000000000001	0.003	0.006	0.006	9.967061511230469	-0.06404489440917968	-0.23403321228027343	6.870269775390625	-6.465911865234375	-0.949859619140625	9.683947164916992	0.15861585998535155	0.16280571289062498	0.370025634765625	-5.092620849609375	-2.63214111328125	9.922768780517577	0.03232172241210937	-0.18315642700195311	3.368377685546875	-4.787445068359375	-2.063751220703125	
229	0.916	0.0	0.0	0.0	0.0	0.006	0.003	0.003	0.003	9.926360083007811	-0.2166752502441406	-0.031124621582031248	5.275726318359375	-4.913330078125	-0.732421875	9.814431155395507	0.47884033203125	0.023942016601562498	0.3204345703125	-4.974365234375	-3.055572509765625	9.843760125732421	0.037708676147460936	-0.12150573425292968	3.73077392578125	-4.4403076171875	-2.47955322265625	
230	0.92	0.0	0.0	0.0	0.0	0.003	0.006	0.003	0.006	9.935936889648437	-0.10953472595214843	-0.18435352783203124	7.1868896484375	-6.75201416015625	-1.129150390625	9.682151513671874	0.18076222534179687	0.17417817077636719	0.354766845703125	-4.817962646484375	-2.58636474609375	9.91498762512207	-0.07062894897460938	-0.1514332550048828	3.62396240234375	-4.726409912109375	-2.376556396484375	
231	0.924	0.0	0.0	0.0	0.0	0.003	0.006	0.003	0.006	9.911994873046874	-0.5021837982177734	-0.09756371765136718	3.88336181640625	-4.558563232421875	-1.07574462890625	9.79946739501953	0.4542997650146484	0.017956512451171875	0.52642822265625	-4.7454833984375	-2.681732177734375	10.146626635742187	0.12030863342285156	-0.46028526916503903	3.570556640625	-4.421234130859375	-2.32696533203125	
232	0.928	0.0	0.0	0.0	0.0	0.006	0.003	0.003	0.006	9.93952819213867	-0.08259995727539061	-0.18854338073730467	7.14874267578125	-7.0343017578125	-0.949859619140625	9.80665	0.35134909362792965	0.09756371765136718	0.110626220703125	-4.795074462890625	-2.67791748046875	9.923965881347655	-0.10115502014160156	-0.1304839904785156	3.8299560546875	-4.69207763671875	-1.926422119140625	
233	0.932	0.0	0.0	0.0	0.0	0.003	0.006	0.006	0.009000000000000001	9.87608184814453	-0.6171054779052734	-0.06284779357910156	3.345489501953125	-4.31060791015625	-0.885009765625	9.827000714111328	0.2914940521240234	0.03531447448730469	0.888824462890625	-4.940032958984375	-2.780914306640625	10.19510921936035	0.1197100830078125	-0.43514615173339843	3.719329833984375	-4.436492919921875	-2.124786376953125	
234	0.936	0.0	0.0	0.0	0.0	0.009000000000000001	0.003	0.003	0.006	9.649829791259766	-0.5129577056884765	0.5291185668945312	-0.316619873046875	-1.42669677734375	-0.52642822265625	9.752181912231444	0.45968671875	0.11731588134765625	0.1068115234375	-4.75311279296875	-2.72369384765625	10.099341152954102	-0.02454056701660156	-0.21787235107421873	3.612518310546875	-4.8980712890625	-2.03704833984375	
235	0.9400000000000001	0.0	0.0	0.0	0.0	0.006	0.003	0.003	0.003	9.858723886108399	-0.5787982513427734	-0.10893617553710937	2.521514892578125	-3.147125244140625	-0.78582763671875	9.943718045043944	0.41539398803710936	-0.10235212097167969	0.89263916015625	-5.191802978515625	-2.796173095703125	10.180744009399413	0.2088940948486328	-0.44532150878906246	3.79180908203125	-4.20379638671875	-2.23541259765625	
236	0.9440000000000001	0.0	0.0	0.0	0.0	0.003	0.006	0.006	0.003	9.634866030883789	-0.7422025146484375	0.5327098693847656	-1.407623291015625	-1.049041748046875	-0.492095947265625	9.804255798339844	0.34536358947753903	0.1562216583251953	0.0762939453125	-4.993438720703125	-2.57110595703125	10.206481677246094	-0.08319850769042968	-0.18854338073730467	3.787994384765625	-4.6234130859375	-1.800537109375	
237	0.9480000000000001	0.0	0.0	0.0	0.0	0.003	0.003	0.006	0.003	9.821613760375977	-0.6859387756347656	-0.10654197387695312	-2.544403076171875	-2.056121826171875	-0.5645751953125	9.886257205200195	0.45669396667480466	-0.055066638183593745	1.18255615234375	-5.054473876953125	-3.18145751953125	10.12507882080078	0.15023615417480468	-0.4129997863769531	3.68499755859375	-4.627227783203125	-2.422332763671875	
238	0.9520000000000001	0.0	0.0	0.0	0.0	0.003	0.006	0.003	0.006	9.58339069519043	-0.412401235961914	0.6248866333007812	-1.918792724609375	-0.415802001953125	-0.827789306640625	9.64025298461914	0.5913678100585937	0.4537012145996093	0.362396240234375	-5.084991455078125	-2.98309326171875	10.101735354614258	0.09337386474609374	-0.1897404815673828	3.475189208984375	-4.901885986328125	-1.8463134765625	
239	0.9560000000000001	0.0	0.0	0.0	0.0	0.006	0.003	0.006	0.0	9.89523546142578	-0.016759411621093748	0.1867477294921875	-3.3416748046875	0.728607177734375	-0.423431396484375	9.949104998779296	0.45669396667480466	0.09038111267089843	1.003265380859375	-5.07354736328125	-3.07464599609375	10.337564218139647	-0.20769699401855468	-0.6039373687744141	3.337860107421875	-4.58526611328125	-2.23541259765625	
240	0.96	0.0	0.0	0.0	0.0	0.003	0.003	0.003	0.003	9.593566052246093	-0.12569558715820311	0.6751648681640625	-2.5634765625	0.354766845703125	-0.408172607421875	9.67137760620117	0.41359833679199215	0.517746109008789	0.4119873046875	-4.749298095703125	-3.27301025390625	10.141838232421874	0.01915361328125	-0.1771709228515625	3.734588623046875	-4.669189453125	-1.8310546875	
241	0.964	0.0	0.0	0.0	0.0	0.003	0.003	0.003	0.003	9.917381826782226	0.55545478515625	0.1849520782470703	-0.354766845703125	-1.220703125	-0.682830810546875	9.753977563476562	0.5153519073486328	0.2765302917480469	0.09918212890625	-4.878997802734375	-2.9754638671875	10.095151300048828	-0.05626373901367187	-0.5578489868164063	3.7841796875	-4.76837158203125	-2.506256103515625	
242	0.968	0.0	0.0	0.0	0.0	0.003	0.006	0.006	0.003	10.110713610839843	0.36571430358886714	-0.1879448303222656	5.11932373046875	-4.87518310546875	-0.995635986328125	9.717465988159178	0.3812766143798828	0.6296750366210937	0.3662109375	-4.741668701171875	-3.047943115234375	9.945513696289062	0.24480711975097655	-0.07721300354003906	3.643035888671875	-4.596710205078125	-1.97601318359375	
243	0.972	0.0	0.0	0.0	0.0	0.003	0.006	0.003	0.003	10.057442623901366	0.6883329772949218	-0.0143652099609375	0.45013427734375	-1.659393310546875	-0.446319580078125	9.910199221801758	0.35314474487304687	0.16699556579589842	0.030517578125	-4.817962646484375	-2.81524658203125	10.24718310546875	-0.258573779296875	-0.5722141967773438	3.6773681640625	-4.69970703125	-2.49481201171875	
244	0.976	0.0	0.0	0.0	0.0	-0.003	0.003	0.003	0.006	10.143633883666991	0.5285200164794922	-0.3142389678955078	8.514404296875	-7.40814208984375	-1.415252685546875	9.725247143554688	0.4064157318115234	0.09157821350097656	-0.030517578125	-4.604339599609375	-2.7008056640625	9.776123928833007	0.36810850524902344	-0.07122749938964844	3.673553466796875	-4.638671875	-2.025604248046875	
245	0.98	0.0	0.0	0.0	0.0	0.006	0.003	0.006	0.0	10.088567245483398	0.4112041351318359	-0.11611878051757812	2.86865234375	-3.475189208984375	-1.1444091796875	9.87727894897461	0.4273649963378906	0.1370680450439453	0.1220703125	-4.940032958984375	-2.567291259765625	9.81263550415039	-0.17357962036132812	-0.2980781066894531	3.414154052734375	-4.791259765625	-2.12860107421875	
246	0.984	0.0	0.0	0.0	0.0	0.006	0.003	0.003	0.0	10.172962854003906	0.10295067138671875	-0.42018239135742186	7.71331787109375	-7.205963134765625	-0.942230224609375	9.867103591918944	0.2753331909179687	0.0047884033203125	-0.156402587890625	-4.451751708984375	-2.8228759765625	9.995791931152343	0.16160861206054686	-0.13826514587402344	3.604888916015625	-4.8828125	-2.15911865234375	
247	0.988	0.0	0.0	0.0	0.0	0.003	0.006	0.003	0.006	9.80066449584961	-0.05626373901367187	-0.1304839904785156	8.762359619140625	-7.98797607421875	-1.636505126953125	9.726444244384766	0.36092590026855464	-0.16160861206054686	0.43487548828125	-5.275726318359375	-2.655029296875	9.859322436523437	-0.1274912384033203	-0.42317514343261714	3.780364990234375	-5.07354736328125	-2.44140625	
248	0.992	0.0	0.0	0.0	0.0	0.003	0.003	0.003	0.003	9.9981861328125	-0.1149216796875	-0.19093758239746092	9.326934814453125	-8.2550048828125	-1.7242431640625	9.712677584838866	0.45010991210937495	0.11432312927246092	0.171661376953125	-4.947662353515625	-2.368927001953125	9.789292037963866	0.3489548919677734	-0.023343466186523436	3.871917724609375	-4.3487548828125	-2.20489501953125	
249	0.996	0.0	0.0	0.0	0.0	0.003	0.003	0.003	0.006	9.706093530273437	-0.9127893829345702	0.16639701538085935	2.994537353515625	-4.428863525390625	-0.518798828125	9.739612353515625	0.2819172454833984	0.076614453125	0.3204345703125	-4.99725341796875	-3.131866455078125	10.026916552734374	-0.24959552307128904	-0.3010708587646484	3.66973876953125	-5.096435546875	-1.964569091796875	
250	1.0	0.0	0.0	0.0	0.0	0.006	0.006	0.003	0.003	9.964667309570311	-0.5195417602539062	-0.1657984649658203	4.055023193359375	-4.970550537109375	-0.713348388671875	9.719261639404296	0.3800795135498047	0.11851298217773437	0.644683837890625	-4.7760009765625	-3.337860107421875	9.93952819213867	0.06344634399414062	-0.09337386474609374	3.665924072265625	-4.5928955078125	-2.605438232421875	
251	1.004	0.0	0.0	0.0	0.0	0.003	0.003	0.003	0.003	9.630077627563477	0.1657984649658203	0.25318682556152344	3.612518310546875	-4.550933837890625	-1.079559326171875	9.620500820922851	0.48183308410644526	0.09157821350097656	0.545501708984375	-5.084991455078125	-3.30352783203125	9.815029705810547	-0.009576806640625	-0.35134909362792965	3.65447998046875	-5.096435546875	-2.11334228515625	
252	1.008	0.0	0.0	0.0	0.0	0.006	0.003	0.003	0.003	9.785102185058593	-0.8750807067871094	0.3226186737060547	-0.96893310546875	-0.90789794921875	-0.96893310546875	9.7162688873291	0.3890577697753906	0.35015199279785153	-0.00762939453125	-4.8065185546875	-2.9754638671875	9.858723886108399	0.04129997863769531	0.13407529296874998	3.498077392578125	-4.35638427734375	-2.28118896484375	
253	1.012	0.0	0.0	0.0	0.0	0.003	0.006	0.006	0.006	9.76235726928711	-0.968454571533203	0.14305354919433594	-1.068115234375	-1.434326171875	-0.621795654296875	9.775525378417969	0.4100070343017578	0.10115502014160156	-0.1373291015625	-4.848480224609375	-3.41033935546875	9.961076007080077	-0.08439560852050781	0.08379705810546874	3.681182861328125	-4.61578369140625	-2.044677734375	
254	1.016	0.0	0.0	0.0	0.0	0.003	0.003	0.003	0.006	10.000580334472655	0.08858546142578125	-0.05087678527832031	0.476837158203125	-1.903533935546875	0.0457763671875	9.679158761596678	0.38247371520996093	0.19692308654785154	0.179290771484375	-4.581451416015625	-3.08990478515625	9.72345149230957	0.11671733093261719	0.0053869537353515625	3.833770751953125	-4.39453125	-2.5177001953125	
255	1.02	0.0	0.0	0.0	0.0	0.003	0.003	0.006	0.009000000000000001	9.81862100830078	0.3016694091796875	-0.002992752075195312	7.099151611328125	-6.351470947265625	-1.346588134765625	9.765350021362304	0.2914940521240234	0.2705447875976562	0.141143798828125	-5.268096923828125	-2.57110595703125	9.727641345214844	0.1227028350830078	0.1945288848876953	3.8299560546875	-4.61578369140625	-2.0904541015625	
256	1.024	0.0	0.0	0.0	0.0	0.009000000000000001	0.003	0.003	0.006	10.032303506469725	-0.0526724365234375	-0.0053869537353515625	7.495880126953125	-6.679534912109375	-1.73187255859375	9.812036953735351	0.24839842224121092	0.16998831787109375	0.6103515625	-4.848480224609375	-2.826690673828125	10.398017810058594	-0.19213468322753904	-0.5315127685546874	3.826141357421875	-4.45556640625	-2.12860107421875	
257	1.028	0.0	0.0	0.0	0.0	0.006	0.006	0.003	0.006	9.88386300354004	-1.0468646759033202	0.14963760375976562	1.74713134765625	-3.19671630859375	-0.40435791015625	9.79348189086914	0.36152445068359373	0.10953472595214843	-0.011444091796875	-4.878997802734375	-2.960205078125	9.805452899169921	0.16639701538085935	0.086191259765625	3.871917724609375	-4.58526611328125	-2.170562744140625	
258	1.032	0.0	0.0	0.0	0.0	0.006	0.003	0.003	0.006	9.789890588378906	-0.7332242584228515	0.26815058593749996	1.6021728515625	-3.246307373046875	-0.133514404296875	9.721655841064452	0.603338818359375	0.12030863342285156	0.942230224609375	-4.550933837890625	-2.811431884765625	10.050858569335936	-0.029328970336914062	-0.3603273498535156	3.753662109375	-4.180908203125	-1.983642578125	
259	1.036	0.0	0.0	0.0	0.0	0.003	0.003	0.003	0.003	9.928754284667969	-0.06643909606933593	0.1927332336425781	2.64739990234375	-3.742218017578125	-0.720977783203125	9.879673150634765	0.2472013214111328	0.21188684692382811	0.61798095703125	-5.48553466796875	-2.841949462890625	9.957484704589843	0.07122749938964844	0.15203180541992187	3.681182861328125	-4.619598388671875	-1.88446044921875	
260	1.04	0.0	0.0	0.0	0.0	0.006	0.003	0.003	0.006	9.920374578857421	-0.03890577697753906	-0.11611878051757812	2.40325927734375	-3.24249267578125	-1.560211181640625	9.948506448364258	0.5051765502929687	0.09935936889648436	0.728607177734375	-4.695892333984375	-2.910614013671875	10.290278735351562	-0.14245499877929688	-0.4171896392822265	3.8299560546875	-4.337310791015625	-2.38800048828125	
261	1.044	0.0	0.0	0.0	0.0	0.006	0.003	0.003	0.006	9.753379013061522	-0.0430956298828125	0.4423287567138672	4.489898681640625	-4.791259765625	-1.407623291015625	9.64025298461914	0.43574470214843747	0.5746083984375	-0.29754638671875	-4.779815673828125	-3.002166748046875	9.988609326171874	0.3178302703857422	-0.22266075439453123	3.620147705078125	-4.573822021484375	-2.262115478515625	
262	1.048	0.0	0.0	0.0	0.0	0.006	0.003	0.003	0.003	9.781510882568359	-0.5315127685546874	0.029927520751953124	-2.532958984375	-0.457763671875	-0.54168701171875	9.849147079467773	0.5249287139892578	0.17298106994628906	0.476837158203125	-4.985809326171875	-2.521514892578125	10.196904870605469	-0.08200140686035155	-0.32022447204589843	3.726959228515625	-4.49371337890625	-2.025604248046875	
263	1.052	0.0	0.0	0.0	0.0	0.003	0.006	0.006	0.003	9.868899243164062	-0.6212953308105469	0.32142157287597656	-0.08392333984375	-1.522064208984375	-0.38909912109375	9.880870251464843	0.30346506042480464	0.4381389038085937	-0.35858154296875	-4.886627197265625	-2.99072265625	10.287884533691406	0.09935936889648436	-0.30466216125488277	3.70025634765625	-4.7760009765625	-2.208709716796875	
264	1.056	0.0	0.0	0.0	0.0	0.003	0.006	0.006	0.006	9.92755718383789	-0.07242460021972656	-0.17178396911621094	-1.224517822265625	-1.132965087890625	-0.865936279296875	9.930549935913085	0.5895721588134766	-0.13946224670410157	0.659942626953125	-4.611968994140625	-2.803802490234375	10.083180291748047	0.0005985504150390625	-0.47704468078613277	3.589630126953125	-4.413604736328125	-1.93023681640625	
265	1.06	0.0	0.0	0.0	0.0	0.003	0.003	0.006	0.003	9.763554370117188	0.2501940734863281	0.143652099609375	4.0740966796875	-4.33349609375	-1.0528564453125	9.724050042724608	0.4339490509033203	0.5434837768554687	-0.40435791015625	-5.035400390625	-2.81524658203125	10.019733947753906	0.2472013214111328	-0.21428104858398436	3.6773681640625	-4.756927490234375	-2.193450927734375	
266	1.064	0.0	0.0	0.0	0.0	0.006	0.003	0.003	0.003	9.975441217041014	-0.27293898925781246	-0.15322890625	1.12152099609375	-2.777099609375	-1.010894775390625	10.029310754394531	0.4417302062988281	-0.13347674255371092	0.8544921875	-4.878997802734375	-2.86865234375	10.234613546752929	-0.10474632263183593	-0.4896142395019531	3.681182861328125	-4.550933837890625	-2.025604248046875	
267	1.068	0.0	0.0	0.0	0.0	0.006	0.003	0.003	0.006	9.770736975097655	0.16519991455078123	0.11791443176269531	3.070831298828125	-3.89862060546875	-0.988006591796875	9.707290631103515	0.40761283264160153	0.2914940521240234	-0.00762939453125	-4.909515380859375	-3.01361083984375	10.028113653564452	0.004189852905273437	-0.2867056488037109	3.658294677734375	-4.67681884765625	-2.399444580078125	
268	1.072	0.0	0.0	0.0	0.0	0.009000000000000001	0.003	0.003	0.009000000000000001	9.77492682800293	0.1406593475341797	0.15322890625	1.6937255859375	-2.92205810546875	-1.026153564453125	9.833584768676758	0.5925649108886718	-0.002992752075195312	0.84686279296875	-4.67681884765625	-2.674102783203125	10.017938296508788	0.11911153259277343	-0.421978042602539	3.692626953125	-4.669189453125	-1.758575439453125	
269	1.076	0.0	0.0	0.0	0.0	0.009000000000000001	0.003	0.006	0.003	9.679757312011718	0.23523031311035156	0.2747346405029297	2.262115478515625	-3.269195556640625	-1.476287841796875	9.667786303710937	0.47884033203125	0.36092590026855464	-0.095367431640625	-4.886627197265625	-2.948760986328125	9.968857162475585	0.00239420166015625	-0.16460136413574217	3.53240966796875	-4.82940673828125	-2.15911865234375	
270	1.08	0.0	0.0	0.0	0.0	0.003	0.003	0.003	0.003	9.986813674926758	-0.15562310791015624	-0.07481880187988281	0.232696533203125	-2.262115478515625	-0.827789306640625	10.03050785522461	0.4333505004882812	-0.14185644836425781	0.2593994140625	-5.016326904296875	-3.170013427734375	10.275913525390624	-0.07003039855957031	-0.5470750793457031	3.681182861328125	-5.0201416015625	-2.071380615234375	
271	1.084	0.0	0.0	0.0	0.0	0.006	0.003	0.003	0.006	9.676764559936522	0.05386953735351562	0.19093758239746092	-0.194549560546875	-1.5411376953125	-1.18255615234375	9.566032733154296	0.5955576629638671	0.3699041564941406	-0.28228759765625	-4.688262939453125	-3.0364990234375	9.824007962036132	0.08379705810546874	-0.21308394775390624	3.482818603515625	-4.44793701171875	-2.407073974609375	
272	1.088	0.0	0.0	0.0	0.0	0.003	0.003	0.003	4.479	9.938929641723632	0.04129997863769531	-0.05327098693847656	0.423431396484375	-2.536773681640625	-0.213623046875	9.757568865966796	0.35015199279785153	0.0796072052001953	0.270843505859375	-5.084991455078125	-2.834320068359375	9.80066449584961	0.22565350646972654	-0.16819266662597654	3.757476806640625	-4.749298095703125	-1.88446044921875	
273	1.092	0.0	0.0	0.0	0.0	4.569	4.6290000000000004	4.632	4.581	9.96047745666504	-0.239420166015625	-0.05566518859863281	6.191253662109375	-5.748748779296875	-0.972747802734375	9.7683427734375	0.4686649749755859	0.2813186950683594	0.347137451171875	-4.69970703125	-3.131866455078125	10.051457119750976	-0.13587094421386717	-0.23104046020507812	3.574371337890625	-4.84466552734375	-2.437591552734375	
274	1.096	0.0	0.0	0.0	0.0	4.587	4.635	4.632	4.581	10.019733947753906	-0.07062894897460938	-0.1640028137207031	2.2430419921875	-3.31878662109375	-0.640869140625	9.81862100830078	0.26755203552246093	-0.002992752075195312	0.370025634765625	-4.741668701171875	-2.956390380859375	9.897629663085937	0.17776947326660156	-0.28431144714355466	3.509521484375	-4.726409912109375	-1.8768310546875	
275	1.1	0.0	0.0	0.0	0.0	4.578	4.6290000000000004	4.626	4.59	9.779715231323241	-0.05087678527832031	0.15203180541992187	5.74493408203125	-5.519866943359375	-0.652313232421875	9.472658868408203	0.5123591552734374	0.3184288208007812	0.377655029296875	-4.924774169921875	-3.147125244140625	9.670180505371093	-0.07003039855957031	-0.105344873046875	3.84521484375	-4.55474853515625	-2.11334228515625	
276	1.104	0.0	0.0	0.0	0.0	4.59	4.632	4.638	4.578	10.031704956054687	-0.047884033203124995	-0.17896657409667968	2.994537353515625	-4.199981689453125	-0.629425048828125	9.912593423461914	0.15562310791015624	0.002992752075195312	0.19073486328125	-4.863739013671875	-2.864837646484375	10.008361489868163	0.12868833923339842	-0.23523031311035156	3.509521484375	-4.810333251953125	-1.88446044921875	
277	1.108	0.0	0.0	0.0	0.0	4.587	4.632	4.638	4.563	9.886855755615233	-0.08678981018066406	-0.01915361328125	6.801605224609375	-6.214141845703125	-0.946044921875	9.649829791259766	0.4291606475830078	0.19991583862304688	0.530242919921875	-4.63104248046875	-3.2501220703125	9.970054263305663	-0.28012159423828126	-0.29568390502929687	4.08935546875	-4.421234130859375	-2.490997314453125	
278	1.112	0.0	0.0	0.0	0.0	4.593	4.6290000000000004	4.635	4.557	9.87668039855957	-0.2561795776367187	-0.006584054565429687	4.43267822265625	-5.153656005859375	-0.797271728515625	9.695319622802733	0.30346506042480464	0.09157821350097656	0.286102294921875	-4.924774169921875	-2.651214599609375	9.823409411621093	0.3124433166503906	-0.0652419952392578	3.5552978515625	-4.45556640625	-2.18963623046875	
279	1.116	0.0	0.0	0.0	0.0	4.59	4.623	4.632	4.581	9.788693487548828	-0.2292448089599609	0.12150573425292968	5.252838134765625	-5.367279052734375	-0.797271728515625	9.595960253906249	0.46208092041015625	0.24061726684570311	0.209808349609375	-4.93621826171875	-3.08990478515625	9.824007962036132	-0.19093758239746092	-0.1879448303222656	3.936767578125	-4.75311279296875	-2.35748291015625	
280	1.12	0.0	0.0	0.0	0.0	4.587	4.635	4.635	4.5840000000000005	10.025719451904296	-0.4369418029785156	-0.1771709228515625	3.72314453125	-4.4097900390625	-0.91552734375	9.91498762512207	0.14185644836425781	-0.002992752075195312	0.5035400390625	-5.14984130859375	-2.773284912109375	10.107720858764647	0.11731588134765625	-0.16519991455078123	3.520965576171875	-4.547119140625	-2.09808349609375	
281	1.124	0.0	0.0	0.0	0.0	4.587	4.635	4.632	4.5840000000000005	9.791686239624022	-0.17118541870117188	0.13587094421386717	3.021240234375	-3.47137451171875	-0.759124755859375	9.829394915771484	0.46627077331542965	0.09337386474609374	0.6103515625	-4.8828125	-3.147125244140625	9.771934075927733	-0.1466448516845703	-0.17836802368164062	3.7384033203125	-4.482269287109375	-1.964569091796875	
282	1.1280000000000001	0.0	0.0	0.0	0.0	4.572	4.632	4.6290000000000004	4.59	9.897031112670899	-0.31483751831054685	0.01975216369628906	3.12042236328125	-4.268646240234375	-0.80108642578125	9.715071786499022	0.3064578125	0.19333178405761717	0.255584716796875	-4.99725341796875	-2.73895263671875	9.801861596679688	0.2813186950683594	0.022744915771484374	3.71551513671875	-4.5318603515625	-2.117156982421875	
283	1.1320000000000001	0.0	0.0	0.0	0.0	4.59	4.632	4.635	4.575	9.919177478027343	-0.21308394775390624	-0.04249707946777344	3.795623779296875	-4.28009033203125	-0.72479248046875	9.929951385498047	0.32561142578124996	0.06584054565429687	0.484466552734375	-4.81414794921875	-2.773284912109375	10.328585961914062	-0.25258827514648435	-0.5668272430419922	3.6773681640625	-4.688262939453125	-1.96075439453125	
284	1.1360000000000001	0.0	0.0	0.0	0.0	4.59	4.635	4.638	4.563	10.036493359375	-0.2867056488037109	-0.12988544006347655	3.7078857421875	-4.38690185546875	-0.713348388671875	9.913191973876952	0.3447650390625	0.14245499877929688	0.110626220703125	-4.90570068359375	-2.597808837890625	9.944915145874022	0.14305354919433594	-0.05686228942871093	3.53240966796875	-4.638671875	-2.193450927734375	
285	1.1400000000000001	0.0	0.0	0.0	0.0	4.593	4.632	4.6290000000000004	4.566	9.875483297729492	-0.12808978881835936	-0.004189852905273437	4.40216064453125	-4.79888916015625	-0.675201416015625	9.769539874267577	0.47165772705078124	0.1592144104003906	0.629425048828125	-4.7760009765625	-2.96783447265625	10.122684619140625	-0.06823474731445311	-0.5105635040283203	3.673553466796875	-4.76837158203125	-1.8157958984375	
286	1.1440000000000001	0.0	0.0	0.0	0.0	4.593	4.623	4.635	0.006	9.694721072387695	-0.10175357055664062	0.3399766357421875	3.360748291015625	-4.337310791015625	-0.911712646484375	9.862315188598632	0.34835634155273437	0.13766659545898435	-0.041961669921875	-5.0201416015625	-2.44140625	10.131064324951172	0.05985504150390625	-0.3321954803466797	3.711700439453125	-4.749298095703125	-2.185821533203125	
287	1.1480000000000001	0.0	0.0	0.0	0.0	0.006	0.003	0.003	0.006	9.961674557495117	-0.3597287994384765	-0.16639701538085935	5.0201416015625	-5.0201416015625	-0.79345703125	10.052055670166014	0.354341845703125	-0.20530279235839843	0.96893310546875	-4.81414794921875	-2.89154052734375	10.339359869384765	-0.1945288848876953	-0.6787561706542968	3.643035888671875	-4.627227783203125	-1.827239990234375	
288	1.1520000000000001	0.0	0.0	0.0	0.0	0.003	0.003	0.003	0.003	9.636661682128906	-0.2328361114501953	0.36631285400390623	2.70843505859375	-3.7841796875	-0.90789794921875	9.782707983398437	0.4171896392822265	0.1562216583251953	0.270843505859375	-5.218505859375	-2.72369384765625	10.047267266845703	0.13407529296874998	-0.2346317626953125	3.589630126953125	-4.6234130859375	-2.43377685546875	
289	1.156	0.0	0.0	0.0	0.0	0.006	0.003	0.003	0.003	9.83837317199707	-0.3920505218505859	-0.0047884033203125	4.21142578125	-4.791259765625	-0.9002685546875	9.923965881347655	0.4465186096191406	-0.06883329772949218	0.804901123046875	-4.810333251953125	-2.87628173828125	10.079588989257813	0.09636661682128905	-0.30047230834960936	3.643035888671875	-4.894256591796875	-2.0904541015625	
290	1.16	0.0	0.0	0.0	0.0	0.003	0.003	0.003	0.006	9.654019644165038	-0.4339490509033203	0.3286041778564453	1.140594482421875	-2.880096435546875	-0.980377197265625	9.903615167236328	0.411802685546875	0.0718260498046875	0.1983642578125	-4.76837158203125	-2.964019775390625	10.256759912109374	-0.02693476867675781	-0.3968389251708984	3.589630126953125	-4.604339599609375	-2.02178955078125	
291	1.164	0.0	0.0	0.0	0.0	0.006	0.003	0.006	0.003	9.865307940673828	-0.23582886352539062	0.08080430603027343	-2.09808349609375	-0.484466552734375	-0.57220458984375	9.891644158935547	0.43035774841308594	-0.04249707946777344	0.78582763671875	-5.023956298828125	-2.99072265625	10.135254177856444	0.07302315063476562	-0.4171896392822265	3.459930419921875	-4.550933837890625	-2.044677734375	
292	1.168	0.0	0.0	0.0	0.0	0.003	0.003	0.006	0.003	9.580397943115234	-0.2346317626953125	0.4381389038085937	0.06103515625	-1.8768310546875	-0.804901123046875	9.620500820922851	0.6721721160888672	0.35793314819335936	0.54931640625	-4.89044189453125	-2.92205810546875	10.09335564880371	0.09516951599121093	-0.28969840087890625	3.498077392578125	-4.398345947265625	-2.1820068359375	
293	1.172	0.0	0.0	0.0	0.0	0.003	0.003	0.003	0.006	9.889249957275391	-0.19213468322753904	0.07841010437011718	-1.918792724609375	-0.69427490234375	-0.637054443359375	10.018536846923828	0.36152445068359373	-0.13766659545898435	0.22125244140625	-4.810333251953125	-3.101348876953125	10.217255584716796	0.028131869506835935	-0.45010991210937495	3.604888916015625	-4.886627197265625	-1.956939697265625	
294	1.176	0.0	0.0	0.0	0.0	0.006	0.003	0.003	0.003	9.584587796020507	-0.20649989318847656	0.4477157104492187	1.31988525390625	-2.716064453125	-1.0223388671875	9.701305126953125	0.6398503936767578	0.15861585998535155	0.347137451171875	-4.795074462890625	-3.0364990234375	9.920374578857421	-0.020949264526367185	-0.06464344482421874	3.719329833984375	-4.734039306640625	-2.227783203125	
295	1.18	0.0	0.0	0.0	0.0	0.003	0.006	0.006	0.003	9.80724855041504	0.12988544006347655	0.17058686828613281	-1.70135498046875	-0.80108642578125	-0.579833984375	9.673771807861328	0.4100070343017578	0.32022447204589843	0.00762939453125	-4.9896240234375	-3.18145751953125	10.108917959594725	0.11552023010253906	-0.4525041137695312	3.414154052734375	-4.634857177734375	-1.86920166015625	
296	1.184	0.0	0.0	0.0	0.0	0.003	0.006	0.006	0.003	9.97244846496582	0.17298106994628906	0.037708676147460936	1.880645751953125	-2.994537353515625	-0.9765625	9.715670336914062	0.622492431640625	0.3190273712158203	0.152587890625	-4.608154296875	-3.08990478515625	9.947907897949218	0.008978256225585938	-0.00718260498046875	3.47900390625	-4.791259765625	-2.41851806640625	
297	1.188	0.0	0.0	0.0	0.0	0.003	0.003	0.006	0.006	9.897031112670899	0.19153613281249998	0.08140285644531249	-0.23651123046875	-1.56402587890625	-1.04522705078125	9.782707983398437	0.2609679809570312	0.29448680419921874	-0.030517578125	-5.0048828125	-3.307342529296875	9.995791931152343	-0.017956512451171875	-0.29568390502929687	3.68499755859375	-4.764556884765625	-2.54058837890625	
298	1.192	0.0	0.0	0.0	0.0	0.003	0.006	0.006	0.003	9.96586441040039	0.21727380065917967	0.010175357055664061	2.593994140625	-3.2501220703125	-0.8544921875	9.613916766357422	0.5644330413818359	0.3016694091796875	0.2288818359375	-4.840850830078125	-3.10516357421875	9.779715231323241	0.16819266662597654	0.0	3.421783447265625	-4.505157470703125	-2.18963623046875	
299	1.196	0.0	0.0	0.0	0.0	0.003	0.003	0.003	0.006	9.962871658325195	0.38187516479492184	-0.14784195251464843	6.664276123046875	-6.496429443359375	-0.6103515625	9.787496386718749	0.33518823242187495	0.2765302917480469	0.0	-4.76837158203125	-2.964019775390625	9.874286196899414	0.05566518859863281	-0.23822306518554687	3.51715087890625	-4.75311279296875	-2.323150634765625	
300	1.2	0.0	0.0	0.0	0.0	0.0	0.003	0.006	0.006	10.081983190917969	0.10953472595214843	-0.1610100616455078	3.37982177734375	-4.1656494140625	-0.911712646484375	9.842563024902343	0.42377369384765623	0.11791443176269531	0.26702880859375	-4.543304443359375	-3.173828125	9.95987890625	0.02633621826171875	-0.11671733093261719	3.814697265625	-4.57763671875	-2.1209716796875	
301	1.204	0.0	0.0	0.0	0.0	0.003	0.006	0.006	0.006	9.96047745666504	0.11013327636718749	-0.24121581726074218	7.205963134765625	-6.832122802734375	-1.190185546875	9.668983404541015	0.2885013000488281	0.05626373901367187	0.240325927734375	-4.9591064453125	-2.9144287109375	9.781510882568359	-0.00718260498046875	-0.28969840087890625	3.570556640625	-4.6234130859375	-2.49481201171875	
302	1.208	0.0	0.0	0.0	0.0	0.009000000000000001	0.006	0.003	0.003	9.984419473266602	0.22206220397949217	-0.027533319091796873	4.61578369140625	-4.8675537109375	-0.659942626953125	9.708487731933593	0.5309142181396485	0.20350714111328125	-0.11444091796875	-4.756927490234375	-3.017425537109375	9.745597857666015	0.2645592834472656	-0.07481880187988281	3.620147705078125	-4.72259521484375	-2.002716064453125	
303	1.212	0.0	0.0	0.0	0.0	0.003	0.003	0.006	0.003	10.007164389038085	-0.00718260498046875	-0.25797522888183594	7.389068603515625	-7.137298583984375	-0.919342041015625	9.81263550415039	0.21487959899902342	-0.023942016601562498	0.102996826171875	-5.153656005859375	-2.55584716796875	10.04247886352539	-0.1753752716064453	-0.08559270935058594	3.59344482421875	-4.589080810546875	-2.063751220703125	
