	time	dac1	dac2	dac3	dac4	adc1.3	adc2.3	adc3.3	adc4.3	imu1accx	imu1accy	imu1accz	imu1gyrox	imu1gyroy	imu1gyroz	imu2accx	imu2accy	imu2accz	imu2gyrox	imu2gyroy	imu2gyroz	imu3accx	imu3accy	imu3accz	imu3gyrox	imu3gyroy	imu3gyroz	log
0	0.0	0.0	0.0	0.0	0.0	0.003	0.003	0.003	0.006	9.873687646484374	-0.12210428466796874	0.09337386474609374	2.63214111328125	-3.8299560546875	-0.850677490234375	9.785102185058593	0.4165910888671875	0.18614917907714842	0.41961669921875	-5.06591796875	-2.872467041015625	10.013748443603514	0.03591302490234375	-0.21607669982910155	3.68499755859375	-4.596710205078125	-2.277374267578125	Estabilizou em 8s, 1637 rpm
1	0.004	0.0	0.0	0.0	0.0	0.006	0.003	0.003	0.006	9.8694977935791	-0.11552023010253906	0.09576806640624999	2.536773681640625	-3.53240966796875	-0.762939453125	9.779116680908203	0.41898529052734373	0.18375497741699218	0.38909912109375	-4.85992431640625	-2.90679931640625	10.008960040283203	0.03651157531738281	-0.21308394775390624	3.681182861328125	-4.497528076171875	-2.323150634765625	Started
2	0.008	0.0	0.0	0.0	0.0	0.003	0.003	0.003	0.003	9.874286196899414	-0.1149216796875	0.09816226806640624	2.559661865234375	-3.570556640625	-0.6866455078125	9.773729727172851	0.41838674011230464	0.17477672119140625	0.408172607421875	-4.962921142578125	-2.910614013671875	10.005368737792969	0.033518823242187495	-0.21906945190429686	3.704071044921875	-4.795074462890625	-2.11334228515625	IMU1|LSM6DS3|0x6A|I2C-1|±2g (±19,6m/s²)|±125º/s|400Hz
3	0.012	0.0	0.0	0.0	0.0	0.009000000000000001	0.003	0.003	0.003	9.865307940673828	-0.11611878051757812	0.10474632263183593	2.73895263671875	-3.60107421875	-0.644683837890625	9.782707983398437	0.412401235961914	0.1849520782470703	0.40435791015625	-4.474639892578125	-2.8228759765625	10.00417163696289	0.034715924072265626	-0.22206220397949217	3.509521484375	-4.566192626953125	-2.40325927734375	IMU2|LSM6DS3|0x6B|I2C-1|±2g (±19,6m/s²)|±125º/s|400Hz
4	0.016	0.0	0.0	0.0	0.0	0.006	0.003	0.003	0.006	9.865307940673828	-0.12150573425292968	0.10773907470703124	2.620697021484375	-3.44085693359375	-0.919342041015625	9.779116680908203	0.4177881896972656	0.18734627990722655	0.48065185546875	-4.779815673828125	-3.10516357421875	10.00955859069824	0.03531447448730469	-0.22744915771484372	3.536224365234375	-4.58526611328125	-2.086639404296875	IMU3|LSM6DS3|0x6B|I2C-2|±2g (±19,6m/s²)|±125º/s|400Hz
5	0.02	0.0	0.0	0.0	0.0	0.006	0.003	0.003	0.006	9.858723886108399	-0.12629413757324218	0.09457096557617187	2.655029296875	-3.589630126953125	-0.759124755859375	9.777919580078125	0.40940848388671874	0.17657237243652343	0.5645751953125	-4.978179931640625	-2.99835205078125	10.008361489868163	0.029328970336914062	-0.20769699401855468	3.787994384765625	-4.669189453125	-2.06756591796875	ADC|ADS1015|0|0|1|0|±6,144 V|2400 SPS
6	0.024	0.0	0.0	0.0	0.0	0.003	0.003	0.006	0.003	9.873687646484374	-0.12030863342285156	0.09157821350097656	2.819061279296875	-3.7078857421875	-0.797271728515625	9.783905084228515	0.40761283264160153	0.17178396911621094	0.2593994140625	-5.016326904296875	-2.90679931640625	10.00955859069824	0.033518823242187495	-0.21906945190429686	3.41796875	-4.459381103515625	-1.949310302734375	Gen1|Disabled
7	0.028	0.0	0.0	0.0	0.0	0.003	0.003	0.003	0.003	9.86291373901367	-0.11791443176269531	0.07601590270996093	2.66265869140625	-3.795623779296875	-1.056671142578125	9.784503634643555	0.41060558471679687	0.1753752716064453	0.316619873046875	-4.913330078125	-3.047943115234375	10.006565838623047	0.02633621826171875	-0.22026655273437498	3.726959228515625	-4.650115966796875	-2.23541259765625	Gen2|Enabled|Noise|0.0|10.0|1668
8	0.032	0.0	0.0	0.0	0.0	0.003	0.003	0.003	0.003	9.860519537353515	-0.1304839904785156	0.08080430603027343	2.58636474609375	-3.7689208984375	-0.682830810546875	9.781510882568359	0.4064157318115234	0.1801636749267578	0.25177001953125	-4.75311279296875	-3.025054931640625	10.00417163696289	0.028131869506835935	-0.20949264526367187	3.44085693359375	-4.474639892578125	-2.269744873046875	Gen3|Enabled|Noise|0.0|10.0|128
9	0.036000000000000004	0.0	0.0	0.0	0.0	0.006	0.003	0.003	0.003	9.866505041503906	-0.14305354919433594	0.08439560852050781	2.532958984375	-3.66973876953125	-0.865936279296875	9.783905084228515	0.39923312683105466	0.19213468322753904	0.4119873046875	-4.955291748046875	-2.79998779296875	9.991003527832031	0.02633621826171875	-0.21188684692382811	3.6773681640625	-4.70733642578125	-2.132415771484375	Gen4|Enabled|Noise|0.0|10.0|128
10	0.04	0.0	0.0	0.0	0.0	0.003	0.003	0.003	0.006	9.86411083984375	-0.1304839904785156	0.0796072052001953	2.62451171875	-3.803253173828125	-0.904083251953125	9.785102185058593	0.3962403747558593	0.181959326171875	0.209808349609375	-4.940032958984375	-3.086090087890625	10.007762939453125	0.02633621826171875	-0.21308394775390624	3.70025634765625	-4.604339599609375	-2.166748046875	Ctrl|Disabled
11	0.044	0.0	0.0	0.0	0.0	0.003	0.003	0.003	0.003	9.867103591918944	-0.1388636962890625	0.08379705810546874	2.620697021484375	-3.330230712890625	-0.743865966796875	9.785102185058593	0.39264907226562495	0.18076222534179687	0.30517578125	-4.76837158203125	-2.918243408203125	10.012551342773437	0.01915361328125	-0.2232593048095703	3.65447998046875	-4.53948974609375	-2.117156982421875	
12	0.048	0.0	0.0	0.0	0.0	0.0	0.006	0.003	0.006	9.873687646484374	-0.13287819213867186	0.08738836059570312	2.704620361328125	-3.7689208984375	-0.7781982421875	9.788693487548828	0.38786066894531246	0.16699556579589842	0.2899169921875	-5.06591796875	-2.826690673828125	10.005368737792969	0.017357962036132813	-0.22505495605468748	3.772735595703125	-4.726409912109375	-2.12860107421875	
13	0.052000000000000005	0.0	0.0	0.0	0.0	0.003	0.003	0.003	0.003	9.873687646484374	-0.13287819213867186	0.06883329772949218	2.513885498046875	-3.42559814453125	-0.751495361328125	9.789292037963866	0.39743747558593745	0.17118541870117188	0.0762939453125	-4.802703857421875	-2.86865234375	10.00417163696289	0.020350714111328123	-0.21607669982910155	3.658294677734375	-4.665374755859375	-2.353668212890625	
14	0.056	0.0	0.0	0.0	0.0	0.006	0.003	0.003	0.003	9.87608184814453	-0.13168109130859373	0.05686228942871093	2.52532958984375	-3.7384033203125	-1.06048583984375	9.787496386718749	0.39923312683105466	0.16759411621093748	0.28228759765625	-5.008697509765625	-2.941131591796875	10.000580334472655	0.02454056701660156	-0.22206220397949217	3.673553466796875	-4.6539306640625	-2.124786376953125	
15	0.06	0.0	0.0	0.0	0.0	0.003	0.003	0.003	0.003	9.865906491088866	-0.1466448516845703	0.05386953735351562	2.704620361328125	-3.650665283203125	-0.84686279296875	9.792284790039062	0.39324762268066404	0.15682020874023436	0.034332275390625	-4.703521728515625	-2.899169921875	10.002974536132811	0.022744915771484374	-0.23223756103515625	3.5858154296875	-4.718780517578125	-2.292633056640625	
16	0.064	0.0	0.0	0.0	0.0	0.009000000000000001	0.003	0.003	0.006	9.871891995239258	-0.13168109130859373	0.06344634399414062	2.468109130859375	-3.818511962890625	-0.96893310546875	9.783306533813477	0.3938461730957031	0.16160861206054686	0.377655029296875	-5.016326904296875	-2.899169921875	9.998784683227539	0.022744915771484374	-0.23343466186523437	3.5400390625	-4.528045654296875	-2.063751220703125	
17	0.068	0.0	0.0	0.0	0.0	0.0	0.003	0.006	0.006	9.87608184814453	-0.12330138549804687	0.05626373901367187	2.72369384765625	-3.444671630859375	-0.911712646484375	9.785102185058593	0.40222587890625	0.1484405029296875	0.537872314453125	-4.871368408203125	-2.986907958984375	10.005368737792969	0.020350714111328123	-0.239420166015625	3.604888916015625	-4.5166015625	-2.22015380859375	
18	0.07200000000000001	0.0	0.0	0.0	0.0	0.003	0.003	0.003	0.003	9.872490545654296	-0.12389993591308593	0.051475335693359374	2.593994140625	-3.662109375	-0.751495361328125	9.785102185058593	0.40222587890625	0.15382745666503905	0.17547607421875	-4.9896240234375	-2.803802490234375	10.01015714111328	0.020350714111328123	-0.2454056701660156	3.6468505859375	-4.5928955078125	-2.071380615234375	
19	0.076	0.0	0.0	0.0	0.0	0.003	0.003	0.003	0.003	9.87668039855957	-0.12389993591308593	0.047285482788085934	2.73895263671875	-3.42559814453125	-0.92315673828125	9.785700735473633	0.39923312683105466	0.15382745666503905	0.0	-5.001068115234375	-2.899169921875	10.01015714111328	0.028131869506835935	-0.24779987182617186	3.978729248046875	-4.512786865234375	-2.140045166015625	
20	0.08	0.0	0.0	0.0	0.0	0.003	0.003	0.006	0.003	9.871293444824218	-0.12210428466796874	0.058657940673828124	2.6092529296875	-3.60870361328125	-0.67138671875	9.789292037963866	0.40402153015136716	0.14784195251464843	0.461578369140625	-4.802703857421875	-2.9144287109375	10.01015714111328	0.034715924072265626	-0.25258827514648435	3.77655029296875	-4.64630126953125	-2.08282470703125	
21	0.084	0.0	0.0	0.0	0.0	0.003	0.003	0.003	0.003	9.866505041503906	-0.1388636962890625	0.059256491088867186	2.552032470703125	-3.50189208984375	-0.7781982421875	9.787496386718749	0.4034229797363281	0.15263035583496093	0.278472900390625	-4.69970703125	-2.979278564453125	10.005368737792969	0.023343466186523436	-0.2507926239013672	3.59344482421875	-4.695892333984375	-2.536773681640625	
22	0.088	0.0	0.0	0.0	0.0	0.003	0.003	0.003	0.006	9.854534033203125	-0.13168109130859373	0.06045359191894531	2.49481201171875	-3.475189208984375	-0.858306884765625	9.785700735473633	0.40222587890625	0.15741875915527342	-0.02288818359375	-5.207061767578125	-2.79998779296875	10.005967288208007	0.029328970336914062	-0.2501940734863281	3.734588623046875	-4.69207763671875	-2.155303955078125	
23	0.092	0.0	0.0	0.0	0.0	0.006	0.006	0.003	0.003	9.868899243164062	-0.12988544006347655	0.05626373901367187	2.777099609375	-3.6468505859375	-0.92315673828125	9.782707983398437	0.40581718139648437	0.15981296081542967	0.064849853515625	-4.8828125	-2.89154052734375	10.007164389038085	0.022744915771484374	-0.24361001892089842	3.314971923828125	-4.444122314453125	-2.0904541015625	
24	0.096	0.0	0.0	0.0	0.0	0.0	0.003	0.003	0.003	9.86291373901367	-0.1304839904785156	0.061650692749023434	2.803802490234375	-3.757476806640625	-0.659942626953125	9.779116680908203	0.4100070343017578	0.16041151123046873	0.14495849609375	-5.229949951171875	-2.96783447265625	10.008960040283203	0.031124621582031248	-0.24001871643066405	3.76129150390625	-4.608154296875	-2.166748046875	
25	0.1	0.0	0.0	0.0	0.0	0.003	0.006	0.003	0.003	9.874286196899414	-0.1292868896484375	0.06643909606933593	2.62451171875	-3.82232666015625	-0.92315673828125	9.781510882568359	0.4004302276611328	0.1640028137207031	0.347137451171875	-4.66156005859375	-2.826690673828125	10.011952792358398	0.02454056701660156	-0.22565350646972654	3.612518310546875	-4.444122314453125	-2.2430419921875	
26	0.10400000000000001	0.0	0.0	0.0	0.0	0.006	0.003	0.003	0.006	9.873687646484374	-0.12629413757324218	0.07362170104980469	2.643585205078125	-3.665924072265625	-0.946044921875	9.78629928588867	0.39743747558593745	0.17357962036132812	0.621795654296875	-5.0811767578125	-2.964019775390625	9.999981784057617	0.020949264526367185	-0.2154781494140625	3.765106201171875	-4.82940673828125	-2.101898193359375	
27	0.108	0.0	0.0	0.0	0.0	0.003	0.003	0.003	0.003	9.86411083984375	-0.12868833923339842	0.06464344482421874	2.529144287109375	-3.353118896484375	-0.812530517578125	9.785102185058593	0.4064157318115234	0.1580173095703125	0.030517578125	-4.604339599609375	-2.880096435546875	9.999981784057617	0.030526071166992186	-0.2184709014892578	3.925323486328125	-4.573822021484375	-2.231597900390625	
28	0.112	0.0	0.0	0.0	0.0	0.003	0.003	0.003	0.006	9.871293444824218	-0.13287819213867186	0.07900865478515624	2.6092529296875	-3.60107421875	-0.93841552734375	9.78629928588867	0.39803602600097654	0.18076222534179687	0.46539306640625	-4.87518310546875	-3.139495849609375	9.998784683227539	0.025139117431640625	-0.21428104858398436	3.79180908203125	-4.718780517578125	-2.20489501953125	
29	0.116	0.0	0.0	0.0	0.0	0.006	0.006	0.003	0.006	9.865307940673828	-0.13108254089355467	0.08678981018066406	2.521514892578125	-3.8299560546875	-0.9002685546875	9.787496386718749	0.4010287780761719	0.18734627990722655	0.35858154296875	-4.917144775390625	-2.857208251953125	9.996390481567381	0.020350714111328123	-0.2059013427734375	3.56292724609375	-4.459381103515625	-2.197265625	
30	0.12	0.0	0.0	0.0	0.0	0.006	0.003	0.003	0.003	9.865307940673828	-0.12389993591308593	0.07302315063476562	2.5634765625	-3.5858154296875	-0.659942626953125	9.783306533813477	0.4070142822265625	0.17896657409667968	0.14495849609375	-4.978179931640625	-2.90679931640625	10.008361489868163	0.028730419921875	-0.21727380065917967	3.56292724609375	-4.7149658203125	-2.12860107421875	
31	0.124	0.0	0.0	0.0	0.0	0.003	0.003	0.006	0.006	9.8694977935791	-0.12330138549804687	0.08379705810546874	2.582550048828125	-3.48663330078125	-0.957489013671875	9.783905084228515	0.40462008056640625	0.18435352783203124	0.209808349609375	-4.75311279296875	-2.89154052734375	10.014945544433592	0.0383072265625	-0.20949264526367187	3.643035888671875	-4.58526611328125	-2.03704833984375	
32	0.128	0.0	0.0	0.0	0.0	0.006	0.003	0.003	0.006	9.86411083984375	-0.1227028350830078	0.0796072052001953	2.635955810546875	-3.566741943359375	-0.949859619140625	9.780912332153319	0.40940848388671874	0.16639701538085935	0.316619873046875	-4.84466552734375	-2.83050537109375	10.001777435302733	0.027533319091796873	-0.22206220397949217	3.73077392578125	-4.726409912109375	-2.162933349609375	
33	0.132	0.0	0.0	0.0	0.0	0.003	0.003	0.003	0.006	9.87009634399414	-0.10893617553710937	0.08259995727539061	2.63214111328125	-3.4637451171875	-1.007080078125	9.781510882568359	0.41419688720703124	0.18076222534179687	0.080108642578125	-4.89044189453125	-2.899169921875	10.002375985717773	0.047884033203124995	-0.2154781494140625	3.719329833984375	-4.505157470703125	-2.017974853515625	
34	0.136	0.0	0.0	0.0	0.0	0.006	0.003	0.003	0.006	9.861118087768554	-0.0987608184814453	0.0796072052001953	2.74658203125	-3.5552978515625	-1.018524169921875	9.777919580078125	0.43514615173339843	0.17477672119140625	0.316619873046875	-4.8370361328125	-3.070831298828125	10.007762939453125	0.052073886108398436	-0.21428104858398436	3.814697265625	-4.669189453125	-2.197265625	
35	0.14	0.0	0.0	0.0	0.0	0.006	0.003	0.003	0.006	9.861716638183593	-0.09576806640624999	0.07841010437011718	2.64739990234375	-3.63922119140625	-0.751495361328125	9.779715231323241	0.42437224426269526	0.1801636749267578	0.091552734375	-4.7454833984375	-2.8533935546875	10.00417163696289	0.04548983154296875	-0.2166752502441406	3.551483154296875	-4.390716552734375	-2.11334228515625	
36	0.14400000000000002	0.0	0.0	0.0	0.0	0.003	0.006	0.003	0.006	9.8694977935791	-0.09038111267089843	0.08738836059570312	2.5634765625	-3.795623779296875	-0.91552734375	9.781510882568359	0.4531026641845703	0.17298106994628906	0.453948974609375	-4.96673583984375	-3.154754638671875	10.008361489868163	0.07781155395507812	-0.22266075439453123	3.56292724609375	-4.6539306640625	-2.033233642578125	
37	0.148	0.0	0.0	0.0	0.0	0.006	0.006	0.006	0.003	9.885060104370117	-0.0987608184814453	0.09935936889648436	2.685546875	-3.79180908203125	-0.820159912109375	9.79348189086914	0.4495113616943359	0.1801636749267578	0.2593994140625	-4.802703857421875	-2.841949462890625	10.00955859069824	0.07242460021972656	-0.23223756103515625	3.665924072265625	-4.726409912109375	-2.185821533203125	
38	0.152	0.0	0.0	0.0	0.0	-0.006	0.003	0.003	0.0	9.894038360595703	-0.10773907470703124	0.12090718383789062	2.4871826171875	-3.543853759765625	-0.926971435546875	9.80066449584961	0.41419688720703124	0.19692308654785154	0.2899169921875	-5.176544189453125	-2.948760986328125	10.036493359375	0.025139117431640625	-0.21487959899902342	3.6163330078125	-4.67681884765625	-2.086639404296875	
39	0.156	0.0	0.0	0.0	0.0	0.003	0.003	0.003	0.003	9.872490545654296	-0.10773907470703124	0.09636661682128905	2.54058837890625	-3.45611572265625	-0.865936279296875	9.788693487548828	0.4267664459228515	0.1801636749267578	0.247955322265625	-4.779815673828125	-2.8839111328125	10.005368737792969	0.05985504150390625	-0.2041056915283203	3.71551513671875	-4.547119140625	-2.20489501953125	
40	0.16	0.0	0.0	0.0	0.0	0.0	0.003	0.003	0.003	9.864709390258788	-0.12090718383789062	0.08259995727539061	2.704620361328125	-3.910064697265625	-0.881195068359375	9.785102185058593	0.41838674011230464	0.16220716247558592	0.23651123046875	-5.107879638671875	-3.147125244140625	9.984419473266602	0.031124621582031248	-0.22385785522460935	3.414154052734375	-4.634857177734375	-1.9378662109375	
41	0.164	0.0	0.0	0.0	0.0	0.006	0.006	0.006	0.006	9.85094273071289	-0.16699556579589842	0.13108254089355467	2.51007080078125	-3.589630126953125	-0.804901123046875	9.767145672607422	0.3764882110595703	0.22864625854492185	0.38909912109375	-4.871368408203125	-2.96783447265625	9.974244116210937	-0.0053869537353515625	-0.15382745666503905	3.631591796875	-4.7760009765625	-2.05230712890625	
42	0.168	0.0	0.0	0.0	0.0	0.006	0.006	0.003	0.003	9.840168823242188	-0.19213468322753904	0.08798691101074219	2.52532958984375	-3.475189208984375	-0.896453857421875	9.777321029663085	0.33758243408203126	0.2059013427734375	0.46539306640625	-4.795074462890625	-2.864837646484375	9.995193380737303	-0.02454056701660156	-0.16819266662597654	3.742218017578125	-4.45556640625	-1.926422119140625	
43	0.17200000000000001	0.0	0.0	0.0	0.0	0.006	0.003	0.003	0.006	9.87727894897461	-0.15682020874023436	0.059256491088867186	2.513885498046875	-3.620147705078125	-0.946044921875	9.781510882568359	0.354940396118164	0.17776947326660156	0.240325927734375	-4.825592041015625	-2.910614013671875	9.990404977416992	-0.02154781494140625	-0.2059013427734375	3.387451171875	-4.49371337890625	-1.979827880859375	
44	0.176	0.0	0.0	0.0	0.0	0.003	0.003	0.003	0.003	9.866505041503906	-0.143652099609375	0.08738836059570312	2.590179443359375	-3.360748291015625	-0.988006591796875	9.785102185058593	0.40761283264160153	0.2136824981689453	0.41961669921875	-4.840850830078125	-2.666473388671875	10.016142645263672	0.03232172241210937	-0.1562216583251953	3.59344482421875	-4.581451416015625	-2.0904541015625	
45	0.18	0.0	0.0	0.0	0.0	0.003	0.006	0.006	0.003	9.842563024902343	-0.1867477294921875	0.08978256225585937	2.49481201171875	-3.814697265625	-0.896453857421875	9.779116680908203	0.3298012786865234	0.2041056915283203	0.171661376953125	-5.123138427734375	-2.895355224609375	10.002375985717773	-0.03950432739257812	-0.17058686828613281	3.9215087890625	-4.650115966796875	-2.06756591796875	
46	0.184	0.0	0.0	0.0	0.0	0.006	0.006	0.003	0.003	9.87608184814453	-0.13646949462890623	0.051475335693359374	2.58636474609375	-3.45611572265625	-0.732421875	9.792284790039062	0.40222587890625	0.15382745666503905	0.499725341796875	-5.04302978515625	-2.99835205078125	9.996390481567381	-0.02154781494140625	-0.23104046020507812	3.8299560546875	-4.638671875	-2.2430419921875	
47	0.188	0.0	0.0	0.0	0.0	0.003	0.003	0.003	0.003	9.87727894897461	-0.0987608184814453	0.06763619689941405	2.666473388671875	-3.48663330078125	-0.904083251953125	9.784503634643555	0.4560954162597656	0.16998831787109375	0.385284423828125	-4.817962646484375	-2.8839111328125	10.003573086547851	0.0987608184814453	-0.21727380065917967	3.7689208984375	-4.497528076171875	-2.11334228515625	
48	0.192	0.0	0.0	0.0	0.0	0.003	0.003	0.006	0.003	9.872490545654296	-0.13287819213867186	0.07422025146484375	2.597808837890625	-3.704071044921875	-0.7476806640625	9.785102185058593	0.37828386230468747	0.16519991455078123	0.457763671875	-4.779815673828125	-2.86865234375	10.007164389038085	0.00239420166015625	-0.2262520568847656	3.948211669921875	-4.566192626953125	-2.197265625	
49	0.196	0.0	0.0	0.0	0.0	0.003	0.003	0.003	0.006	9.909600671386718	-0.09756371765136718	0.014963760375976562	2.780914306640625	-3.6163330078125	-1.007080078125	9.810241302490233	0.44592005920410155	0.1005564697265625	0.64849853515625	-5.176544189453125	-2.96783447265625	10.025719451904296	0.011372457885742187	-0.27293898925781246	3.72314453125	-4.749298095703125	-2.307891845703125	
50	0.2	0.0	0.0	0.0	0.0	0.003	0.003	0.003	0.006	9.889249957275391	-0.04608838195800781	0.006584054565429687	2.666473388671875	-3.452301025390625	-0.865936279296875	9.784503634643555	0.49859249572753905	0.12090718383789062	0.270843505859375	-4.730224609375	-2.89154052734375	10.029310754394531	0.13646949462890623	-0.27952304382324217	3.803253173828125	-4.589080810546875	-2.03704833984375	
51	0.20400000000000001	0.0	0.0	0.0	0.0	0.003	0.003	0.006	0.006	9.842563024902343	-0.11731588134765625	0.047285482788085934	2.74658203125	-3.662109375	-0.652313232421875	9.758765966796874	0.4034229797363281	0.13946224670410157	0.286102294921875	-4.82940673828125	-3.017425537109375	9.986813674926758	0.033518823242187495	-0.2603694305419922	3.7689208984375	-4.4708251953125	-2.2125244140625	
52	0.20800000000000002	0.0	0.0	0.0	0.0	0.006	0.003	0.003	0.003	9.852139831542969	-0.09756371765136718	0.031124621582031248	2.54058837890625	-3.765106201171875	-0.942230224609375	9.777321029663085	0.4321533996582031	0.08439560852050781	0.202178955078125	-4.909515380859375	-2.7618408203125	9.993397729492187	0.05566518859863281	-0.2885013000488281	3.734588623046875	-4.741668701171875	-2.044677734375	
53	0.212	0.0	0.0	0.0	0.0	0.006	0.006	0.003	0.003	9.88386300354004	-0.059256491088867186	0.012569558715820313	2.513885498046875	-3.6773681640625	-0.835418701171875	9.788094937133788	0.49200844116210934	0.0987608184814453	0.26702880859375	-5.01251220703125	-2.96783447265625	10.025120901489258	0.13646949462890623	-0.297479556274414	3.398895263671875	-4.50897216796875	-2.02178955078125	
54	0.216	0.0	0.0	0.0	0.0	0.006	0.003	0.003	0.006	9.868899243164062	-0.11671733093261719	0.0383072265625	2.529144287109375	-3.513336181640625	-0.774383544921875	9.775525378417969	0.40282442932128903	0.11013327636718749	0.240325927734375	-4.802703857421875	-2.872467041015625	10.008960040283203	0.03531447448730469	-0.2932897033691406	3.803253173828125	-4.547119140625	-2.193450927734375	
55	0.22	0.0	0.0	0.0	0.0	0.003	0.003	0.003	0.003	9.880870251464843	-0.09696516723632811	0.00718260498046875	2.552032470703125	-3.353118896484375	-0.980377197265625	9.790489138793944	0.43514615173339843	0.08259995727539061	0.232696533203125	-5.039215087890625	-2.948760986328125	10.013149893188476	0.06105214233398437	-0.29568390502929687	3.597259521484375	-4.669189453125	-2.410888671875	
56	0.224	0.0	0.0	0.0	0.0	0.003	0.003	0.003	0.003	9.879673150634765	-0.08080430603027343	0.007781155395507812	2.5634765625	-3.54766845703125	-0.9002685546875	9.789890588378906	0.48183308410644526	0.09277531433105468	0.324249267578125	-4.840850830078125	-2.834320068359375	10.027515103149414	0.12090718383789062	-0.2902969512939453	3.5858154296875	-4.596710205078125	-2.06756591796875	
57	0.228	0.0	0.0	0.0	0.0	0.003	0.006	0.006	0.003	9.854534033203125	-0.11552023010253906	0.023343466186523436	2.567291259765625	-3.421783447265625	-0.885009765625	9.769539874267577	0.3962403747558593	0.13287819213867186	0.377655029296875	-5.21087646484375	-2.803802490234375	9.988609326171874	0.02454056701660156	-0.2597708801269531	3.734588623046875	-4.547119140625	-2.132415771484375	
58	0.232	0.0	0.0	0.0	0.0	0.006	0.003	0.003	0.006	9.867702142333984	-0.11552023010253906	0.029328970336914062	2.765655517578125	-3.437042236328125	-0.797271728515625	9.779116680908203	0.43514615173339843	0.1352723937988281	0.3509521484375	-4.99725341796875	-2.93731689453125	9.99160207824707	0.05386953735351562	-0.25797522888183594	3.597259521484375	-4.482269287109375	-2.048492431640625	
59	0.23600000000000002	0.0	0.0	0.0	0.0	0.003	0.003	0.006	0.006	9.887454306030273	-0.10893617553710937	0.013766659545898436	2.574920654296875	-3.582000732421875	-0.83160400390625	9.79408044128418	0.4626794708251953	0.12689268798828124	0.42724609375	-4.730224609375	-2.86865234375	10.020931048583984	0.09457096557617187	-0.24779987182617186	3.505706787109375	-4.611968994140625	-2.193450927734375	
60	0.24	0.0	0.0	0.0	0.0	0.003	0.003	0.006	0.006	9.880870251464843	-0.1514332550048828	0.03172317199707031	2.490997314453125	-3.41033935546875	-0.904083251953125	9.791087689208984	0.38247371520996093	0.1466448516845703	0.392913818359375	-4.756927490234375	-2.925872802734375	10.008361489868163	0.00239420166015625	-0.2214636535644531	3.71551513671875	-4.61578369140625	-2.1514892578125	
61	0.244	0.0	0.0	0.0	0.0	0.003	0.003	0.003	0.006	9.85632968444824	-0.13108254089355467	0.05386953735351562	2.643585205078125	-3.437042236328125	-0.96893310546875	9.779116680908203	0.41060558471679687	0.16220716247558592	0.29754638671875	-4.82177734375	-2.918243408203125	10.001777435302733	0.025139117431640625	-0.22266075439453123	3.940582275390625	-4.779815673828125	-1.9989013671875	
62	0.248	0.0	0.0	0.0	0.0	0.003	0.003	0.006	0.003	9.858125335693359	-0.11791443176269531	0.059256491088867186	2.51007080078125	-3.68499755859375	-0.888824462890625	9.776722479248047	0.44053310546874996	0.16340426330566404	0.308990478515625	-4.833221435546875	-2.895355224609375	10.000580334472655	0.06943184814453125	-0.23403321228027343	3.650665283203125	-4.4097900390625	-2.094268798828125	
63	0.252	0.0	0.0	0.0	0.0	0.003	0.006	0.003	0.003	9.852139831542969	-0.14963760375976562	0.0652419952392578	2.780914306640625	-3.627777099609375	-0.8544921875	9.782707983398437	0.3758896606445312	0.15741875915527342	0.484466552734375	-4.673004150390625	-2.81524658203125	9.993996279907225	0.003591302490234375	-0.24061726684570311	3.59344482421875	-4.512786865234375	-2.063751220703125	
64	0.256	0.0	0.0	0.0	0.0	0.003	0.006	0.003	0.003	9.866505041503906	-0.11671733093261719	0.10773907470703124	2.552032470703125	-3.330230712890625	-0.89263916015625	9.785700735473633	0.4052186309814453	0.1801636749267578	0.499725341796875	-5.11932373046875	-2.941131591796875	10.00955859069824	0.03411737365722656	-0.2154781494140625	3.66973876953125	-4.5166015625	-2.262115478515625	
65	0.26	0.0	0.0	0.0	0.0	0.003	0.006	0.003	0.003	9.892841259765625	-0.11073182678222655	0.09576806640624999	2.727508544921875	-3.604888916015625	-0.79345703125	9.795876092529296	0.42796354675292964	0.17657237243652343	0.46539306640625	-4.627227783203125	-2.79998779296875	10.013748443603514	0.07422025146484375	-0.2184709014892578	3.696441650390625	-4.543304443359375	-2.05230712890625	
66	0.264	0.0	0.0	0.0	0.0	0.006	0.003	0.003	0.006	9.892841259765625	-0.15023615417480468	0.09696516723632811	2.742767333984375	-3.57818603515625	-0.87738037109375	9.795876092529296	0.3699041564941406	0.20051438903808594	0.141143798828125	-4.73785400390625	-2.70843505859375	10.014945544433592	-0.00718260498046875	-0.21787235107421873	3.631591796875	-4.703521728515625	-2.29644775390625	
67	0.268	0.0	0.0	0.0	0.0	0.003	0.003	0.006	0.003	9.868899243164062	-0.14903905334472656	0.12868833923339842	2.38800048828125	-3.292083740234375	-0.84686279296875	9.780912332153319	0.3872621185302734	0.21308394775390624	0.293731689453125	-4.764556884765625	-2.89154052734375	10.011952792358398	0.010773907470703125	-0.18375497741699218	3.7384033203125	-4.70733642578125	-2.20489501953125	
68	0.272	0.0	0.0	0.0	0.0	0.003	0.003	0.006	0.006	9.85632968444824	-0.15682020874023436	0.14784195251464843	2.4261474609375	-3.612518310546875	-0.762939453125	9.782707983398437	0.3848679168701172	0.24061726684570311	0.0457763671875	-4.901885986328125	-2.849578857421875	9.994594830322265	0.01975216369628906	-0.17357962036132812	3.692626953125	-4.665374755859375	-2.201080322265625	
69	0.276	0.0	0.0	0.0	0.0	0.006	0.006	0.003	0.003	9.871293444824218	-0.19153613281249998	0.15083470458984374	2.6702880859375	-3.681182861328125	-0.995635986328125	9.79348189086914	0.34177228698730466	0.22744915771484372	0.240325927734375	-5.138397216796875	-2.9144287109375	9.999981784057617	-0.034715924072265626	-0.16759411621093748	3.704071044921875	-4.627227783203125	-1.97601318359375	
70	0.28	0.0	0.0	0.0	0.0	0.003	0.003	0.003	0.003	9.88266590270996	-0.17657237243652343	0.17357962036132812	2.29644775390625	-3.459930419921875	-0.7171630859375	9.788094937133788	0.3525461944580078	0.24839842224121092	0.274658203125	-4.810333251953125	-2.9449462890625	10.016142645263672	-0.02154781494140625	-0.14125789794921875	3.68499755859375	-4.619598388671875	-2.23541259765625	
71	0.28400000000000003	0.0	0.0	0.0	0.0	0.003	0.003	0.006	0.003	9.865307940673828	-0.1897404815673828	0.17357962036132812	2.349853515625	-3.72314453125	-0.885009765625	9.784503634643555	0.3381809844970703	0.27353753967285155	0.31280517578125	-4.486083984375	-2.971649169921875	10.012551342773437	-0.02633621826171875	-0.12150573425292968	3.650665283203125	-4.6234130859375	-2.109527587890625	
72	0.28800000000000003	0.0	0.0	0.0	0.0	0.006	0.003	0.003	0.006	9.866505041503906	-0.20949264526367187	0.1657984649658203	2.704620361328125	-3.662109375	-0.919342041015625	9.783306533813477	0.32022447204589843	0.2561795776367187	0.40435791015625	-5.031585693359375	-2.9144287109375	9.991003527832031	-0.052073886108398436	-0.12210428466796874	3.35693359375	-4.4097900390625	-2.17437744140625	
73	0.292	0.0	0.0	0.0	0.0	0.003	0.003	0.006	0.006	9.853935482788085	-0.19991583862304688	0.15981296081542967	2.63214111328125	-3.482818603515625	-0.934600830078125	9.776722479248047	0.35134909362792965	0.2651578338623047	0.080108642578125	-5.107879638671875	-2.872467041015625	9.991003527832031	-0.02454056701660156	-0.10115502014160156	3.665924072265625	-4.497528076171875	-2.285003662109375	
74	0.296	0.0	0.0	0.0	0.0	0.0	0.006	0.003	0.009000000000000001	9.85094273071289	-0.20829554443359374	0.17238251953125	2.54058837890625	-3.513336181640625	-0.79345703125	9.772532626342773	0.32082302246093747	0.277727392578125	0.057220458984375	-4.78363037109375	-2.7923583984375	9.996989031982421	-0.033518823242187495	-0.09816226806640624	3.566741943359375	-4.66156005859375	-2.2125244140625	
75	0.3	0.0	0.0	0.0	0.0	0.003	0.003	0.006	0.003	9.874884747314452	-0.1897404815673828	0.143652099609375	2.559661865234375	-3.612518310546875	-0.8697509765625	9.78629928588867	0.3399766357421875	0.25917232971191406	0.48828125	-4.93621826171875	-3.1890869140625	10.001777435302733	-0.030526071166992186	-0.12330138549804687	3.76129150390625	-4.6234130859375	-2.38037109375	
76	0.304	0.0	0.0	0.0	0.0	0.003	0.006	0.003	0.006	9.879074600219726	-0.15861585998535155	0.14604630126953125	2.696990966796875	-3.7078857421875	-0.774383544921875	9.789890588378906	0.3800795135498047	0.25258827514648435	0.14495849609375	-5.016326904296875	-3.040313720703125	10.011354241943359	0.010773907470703125	-0.1227028350830078	3.692626953125	-4.638671875	-2.101898193359375	
77	0.308	0.0	0.0	0.0	0.0	0.003	0.003	0.003	0.006	9.871293444824218	-0.1801636749267578	0.14425065002441406	2.666473388671875	-3.5400390625	-0.743865966796875	9.775525378417969	0.34536358947753903	0.24001871643066405	0.286102294921875	-4.764556884765625	-2.910614013671875	9.993996279907225	-0.034715924072265626	-0.13287819213867186	3.6773681640625	-4.657745361328125	-2.26593017578125	
78	0.312	0.0	0.0	0.0	0.0	0.003	0.003	0.003	0.003	9.866505041503906	-0.1580173095703125	0.12689268798828124	2.55584716796875	-3.437042236328125	-0.946044921875	9.773131176757811	0.37229835815429685	0.21308394775390624	0.08392333984375	-5.138397216796875	-2.96783447265625	10.006565838623047	-0.02154781494140625	-0.16998831787109375	3.688812255859375	-4.5166015625	-2.25830078125	
79	0.316	0.0	0.0	0.0	0.0	0.003	0.006	0.003	0.006	9.868899243164062	-0.11851298217773437	0.11372457885742186	2.490997314453125	-3.2958984375	-0.926971435546875	9.78629928588867	0.41958384094238277	0.20829554443359374	0.34332275390625	-4.913330078125	-3.055572509765625	10.012551342773437	0.051475335693359374	-0.18435352783203124	3.7078857421875	-4.390716552734375	-2.208709716796875	
80	0.32	0.0	0.0	0.0	0.0	0.003	0.003	0.003	0.003	9.8694977935791	-0.13347674255371092	0.08978256225585937	2.666473388671875	-3.76129150390625	-0.820159912109375	9.782707983398437	0.4004302276611328	0.18136077575683593	0.6256103515625	-4.87518310546875	-2.941131591796875	10.001178884887695	0.015562310791015624	-0.20530279235839843	3.513336181640625	-4.8980712890625	-2.22015380859375	
81	0.324	0.0	0.0	0.0	0.0	0.003	0.003	0.003	0.006	9.879673150634765	-0.11192892761230468	0.059256491088867186	2.7313232421875	-3.57818603515625	-0.789642333984375	9.78629928588867	0.421978042602539	0.1484405029296875	0.2593994140625	-4.673004150390625	-3.009796142578125	10.007762939453125	0.037110125732421874	-0.24301146850585936	3.787994384765625	-4.547119140625	-2.208709716796875	
82	0.328	0.0	0.0	0.0	0.0	0.006	0.003	0.003	0.003	9.8694977935791	-0.06823474731445311	0.047884033203124995	2.6702880859375	-3.559112548828125	-0.74005126953125	9.785102185058593	0.48183308410644526	0.14125789794921875	0.396728515625	-5.0201416015625	-2.899169921875	10.007762939453125	0.10953472595214843	-0.2561795776367187	3.665924072265625	-4.547119140625	-1.888275146484375	
83	0.332	0.0	0.0	0.0	0.0	0.003	0.003	0.006	0.003	9.861118087768554	-0.08559270935058594	0.029927520751953124	2.788543701171875	-3.582000732421875	-0.87738037109375	9.78031378173828	0.4584896179199218	0.1322796417236328	0.186920166015625	-4.94384765625	-2.750396728515625	9.986215124511718	0.07003039855957031	-0.27174188842773433	3.76129150390625	-4.718780517578125	-1.9378662109375	
84	0.336	0.0	0.0	0.0	0.0	0.003	0.006	0.003	0.003	9.864709390258788	-0.07422025146484375	0.0143652099609375	2.655029296875	-3.780364990234375	-0.7781982421875	9.783306533813477	0.479438882446289	0.09995791931152344	0.55694580078125	-5.054473876953125	-2.933502197265625	9.984419473266602	0.07481880187988281	-0.3124433166503906	3.7994384765625	-4.833221435546875	-2.490997314453125	
85	0.34	0.0	0.0	0.0	0.0	0.003	0.003	0.003	0.003	9.886855755615233	-0.030526071166992186	-0.013168109130859374	2.55584716796875	-3.543853759765625	-0.77056884765625	9.78629928588867	0.5267243652343749	0.07721300354003906	0.324249267578125	-5.016326904296875	-2.86102294921875	10.013149893188476	0.14724340209960937	-0.3226186737060547	3.509521484375	-4.49371337890625	-2.040863037109375	
86	0.34400000000000003	0.0	0.0	0.0	0.0	0.009000000000000001	0.003	0.003	0.003	9.884461553955077	-0.047884033203124995	-0.010175357055664061	2.460479736328125	-3.551483154296875	-0.782012939453125	9.78629928588867	0.4782417816162109	0.07900865478515624	0.17547607421875	-4.95147705078125	-2.90679931640625	10.011354241943359	0.11432312927246092	-0.32501287536621093	3.612518310546875	-4.7454833984375	-2.3193359375	
87	0.34800000000000003	0.0	0.0	0.0	0.0	0.003	0.003	0.003	0.003	9.882067352294921	-0.04369418029785156	-0.028131869506835935	2.51007080078125	-3.398895263671875	-0.751495361328125	9.783905084228515	0.49320554199218747	0.06584054565429687	0.48065185546875	-5.1727294921875	-3.025054931640625	10.01015714111328	0.10893617553710937	-0.3280056274414062	3.658294677734375	-4.60052490234375	-2.288818359375	
88	0.352	0.0	0.0	0.0	0.0	0.003	0.006	0.003	0.003	9.87668039855957	-0.01975216369628906	-0.03651157531738281	2.74658203125	-3.787994384765625	-0.80108642578125	9.784503634643555	0.5231330627441406	0.052073886108398436	0.396728515625	-5.0048828125	-3.0517578125	10.01733974609375	0.16220716247558592	-0.33399113159179683	3.5552978515625	-4.5013427734375	-2.193450927734375	
89	0.356	0.0	0.0	0.0	0.0	0.006	0.003	0.003	0.003	9.860519537353515	-0.0430956298828125	-0.03531447448730469	2.4871826171875	-3.314971923828125	-0.79345703125	9.77432827758789	0.4782417816162109	0.06763619689941405	0.18310546875	-4.7149658203125	-2.8533935546875	10.005368737792969	0.1131260284423828	-0.3184288208007812	3.7384033203125	-4.581451416015625	-1.861572265625	
90	0.36	0.0	0.0	0.0	0.0	0.003	0.003	0.006	0.003	9.866505041503906	-0.04369418029785156	-0.028131869506835935	2.3193359375	-3.72314453125	-0.850677490234375	9.785102185058593	0.48662148742675776	0.06584054565429687	0.530242919921875	-4.9896240234375	-3.093719482421875	10.001178884887695	0.09816226806640624	-0.31663316955566406	3.62396240234375	-4.46319580078125	-2.124786376953125	
91	0.364	0.0	0.0	0.0	0.0	0.003	0.006	0.003	0.003	9.882067352294921	-0.01975216369628906	-0.04249707946777344	2.61688232421875	-3.566741943359375	-0.80108642578125	9.788693487548828	0.5123591552734374	0.06344634399414062	0.40435791015625	-4.95147705078125	-2.880096435546875	10.015544094848632	0.14784195251464843	-0.3238157745361328	3.803253173828125	-4.589080810546875	-2.071380615234375	
92	0.368	0.0	0.0	0.0	0.0	0.003	0.003	0.006	0.006	9.879673150634765	-0.044891281127929686	-0.02454056701660156	2.658843994140625	-3.749847412109375	-0.865936279296875	9.782707983398437	0.47285482788085936	0.07841010437011718	0.60272216796875	-4.974365234375	-2.99072265625	10.006565838623047	0.0987608184814453	-0.30466216125488277	3.76129150390625	-4.734039306640625	-2.048492431640625	
93	0.372	0.0	0.0	0.0	0.0	0.003	0.003	0.003	0.003	9.874884747314452	-0.062249243164062495	-0.0143652099609375	2.777099609375	-3.47900390625	-1.13677978515625	9.779116680908203	0.4632780212402344	0.0796072052001953	0.286102294921875	-4.848480224609375	-2.780914306640625	10.001777435302733	0.08379705810546874	-0.3016694091796875	3.589630126953125	-4.70733642578125	-1.972198486328125	
94	0.376	0.0	0.0	0.0	0.0	0.003	0.003	0.006	0.006	9.874884747314452	-0.047884033203124995	-0.006584054565429687	2.78472900390625	-3.643035888671875	-0.782012939453125	9.784503634643555	0.49200844116210934	0.08259995727539061	0.2288818359375	-4.69207763671875	-2.933502197265625	10.00417163696289	0.11013327636718749	-0.29448680419921874	3.604888916015625	-4.70733642578125	-2.132415771484375	
95	0.38	0.0	0.0	0.0	0.0	0.006	0.003	0.006	0.003	9.878476049804688	-0.08379705810546874	-0.002992752075195312	2.681732177734375	-3.76129150390625	-0.690460205078125	9.788094937133788	0.4465186096191406	0.10414777221679687	0.30517578125	-4.84466552734375	-2.87628173828125	10.008361489868163	0.08678981018066406	-0.277727392578125	3.59344482421875	-4.589080810546875	-2.05230712890625	
96	0.384	0.0	0.0	0.0	0.0	0.003	0.003	0.006	0.006	9.880870251464843	-0.08319850769042968	0.016160861206054686	2.689361572265625	-3.66973876953125	-0.95367431640625	9.781510882568359	0.4387374542236328	0.1197100830078125	0.26702880859375	-4.69207763671875	-2.777099609375	10.01015714111328	0.05566518859863281	-0.2609679809570312	3.826141357421875	-4.474639892578125	-1.9378662109375	
97	0.388	0.0	0.0	0.0	0.0	0.006	0.003	0.003	0.003	9.880870251464843	-0.09516951599121093	0.028131869506835935	2.796173095703125	-3.7841796875	-0.91552734375	9.79408044128418	0.4531026641845703	0.1292868896484375	0.240325927734375	-4.497528076171875	-2.872467041015625	10.02332525024414	0.07122749938964844	-0.26874913635253905	3.643035888671875	-4.657745361328125	-2.285003662109375	
98	0.392	0.0	0.0	0.0	0.0	0.003	0.006	0.003	0.006	9.8694977935791	-0.1131260284423828	0.052073886108398436	2.437591552734375	-3.204345703125	-0.66375732421875	9.781510882568359	0.42018239135742186	0.14484920043945312	0.598907470703125	-4.98199462890625	-2.956390380859375	10.011354241943359	0.044891281127929686	-0.2549824768066406	3.551483154296875	-4.573822021484375	-2.2125244140625	
99	0.396	0.0	0.0	0.0	0.0	0.006	0.003	0.006	0.006	9.85752678527832	-0.13766659545898435	0.07541735229492187	2.7313232421875	-3.566741943359375	-0.957489013671875	9.77432827758789	0.3962403747558593	0.17058686828613281	0.545501708984375	-4.8370361328125	-3.116607666015625	10.001777435302733	0.016160861206054686	-0.22744915771484372	3.704071044921875	-4.50897216796875	-2.292633056640625	
100	0.4	0.0	0.0	0.0	0.0	0.003	0.003	0.003	0.006	9.867103591918944	-0.1406593475341797	0.09038111267089843	2.452850341796875	-3.71551513671875	-0.9765625	9.781510882568359	0.39983167724609375	0.17477672119140625	0.2593994140625	-4.9591064453125	-2.895355224609375	10.000580334472655	0.016160861206054686	-0.21607669982910155	3.749847412109375	-4.566192626953125	-2.277374267578125	
101	0.404	0.0	0.0	0.0	0.0	0.006	0.003	0.006	0.006	9.865307940673828	-0.1657984649658203	0.09576806640624999	2.590179443359375	-3.429412841796875	-0.61798095703125	9.787496386718749	0.36212300109863277	0.19033903198242186	0.324249267578125	-4.72259521484375	-2.7313232421875	10.013748443603514	0.00239420166015625	-0.21188684692382811	3.643035888671875	-4.604339599609375	-2.2125244140625	
102	0.40800000000000003	0.0	0.0	0.0	0.0	0.003	0.003	0.003	0.009000000000000001	9.874884747314452	-0.1849520782470703	0.12210428466796874	2.593994140625	-3.662109375	-0.74005126953125	9.78629928588867	0.33758243408203126	0.21787235107421873	0.232696533203125	-4.795074462890625	-3.116607666015625	10.012551342773437	-0.029328970336914062	-0.1867477294921875	3.704071044921875	-4.57763671875	-2.185821533203125	
103	0.41200000000000003	0.0	0.0	0.0	0.0	0.006	0.006	0.003	0.006	9.872490545654296	-0.19333178405761717	0.1406593475341797	2.521514892578125	-3.452301025390625	-0.820159912109375	9.78629928588867	0.3345896820068359	0.22445640563964842	0.3814697265625	-4.7607421875	-2.941131591796875	10.014945544433592	-0.029328970336914062	-0.16041151123046873	3.70025634765625	-4.55474853515625	-2.056121826171875	
104	0.41600000000000004	0.0	0.0	0.0	0.0	0.006	0.003	0.006	0.009000000000000001	9.859920986938477	-0.21906945190429686	0.14784195251464843	2.5787353515625	-4.0435791015625	-0.701904296875	9.783905084228515	0.3112462158203125	0.24839842224121092	0.110626220703125	-4.993438720703125	-2.986907958984375	10.008960040283203	-0.044292730712890624	-0.14484920043945312	3.276824951171875	-4.352569580078125	-2.08282470703125	
105	0.42	0.0	0.0	0.0	0.0	0.003	0.003	0.003	0.003	9.852139831542969	-0.23702596435546874	0.17477672119140625	2.410888671875	-3.4942626953125	-0.9613037109375	9.788693487548828	0.2825157958984375	0.2645592834472656	0.28228759765625	-4.974365234375	-3.04412841796875	10.005967288208007	-0.07841010437011718	-0.1322796417236328	3.45611572265625	-4.75311279296875	-2.002716064453125	
106	0.424	0.0	0.0	0.0	0.0	0.006	0.006	0.003	0.006	9.861716638183593	-0.23702596435546874	0.16998831787109375	2.597808837890625	-3.650665283203125	-0.8697509765625	9.78629928588867	0.2813186950683594	0.2825157958984375	0.2288818359375	-5.10406494140625	-2.819061279296875	10.005967288208007	-0.07541735229492187	-0.12150573425292968	3.665924072265625	-4.57763671875	-2.1209716796875	
107	0.428	0.0	0.0	0.0	0.0	0.003	0.006	0.003	0.006	9.865906491088866	-0.24660277099609373	0.16460136413574217	2.73895263671875	-3.475189208984375	-0.77056884765625	9.787496386718749	0.2765302917480469	0.2765302917480469	0.152587890625	-4.57763671875	-2.925872802734375	10.005967288208007	-0.09756371765136718	-0.11192892761230468	3.551483154296875	-4.70733642578125	-2.239227294921875	
108	0.432	0.0	0.0	0.0	0.0	0.006	0.003	0.003	0.006	9.867702142333984	-0.25737667846679685	0.18315642700195311	2.52532958984375	-3.80706787109375	-0.743865966796875	9.782707983398437	0.2663549346923828	0.2819172454833984	0.171661376953125	-4.955291748046875	-3.0059814453125	10.006565838623047	-0.10594342346191406	-0.1005564697265625	3.65447998046875	-4.73785400390625	-2.22015380859375	
109	0.436	0.0	0.0	0.0	0.0	0.006	0.003	0.006	0.006	9.852139831542969	-0.25318682556152344	0.1927332336425781	2.651214599609375	-3.627777099609375	-0.911712646484375	9.785102185058593	0.2693476867675781	0.27174188842773433	0.3814697265625	-5.126953125	-3.04412841796875	10.004770187377929	-0.09337386474609374	-0.08858546142578125	3.63922119140625	-4.44793701171875	-2.0599365234375	
110	0.44	0.0	0.0	0.0	0.0	0.006	0.003	0.006	0.006	9.86291373901367	-0.24899697265624998	0.181959326171875	2.414703369140625	-3.54766845703125	-0.84686279296875	9.779116680908203	0.27892449340820313	0.277727392578125	0.408172607421875	-4.99725341796875	-2.948760986328125	10.005368737792969	-0.09217676391601562	-0.09995791931152344	3.570556640625	-4.413604736328125	-1.953125	
111	0.444	0.0	0.0	0.0	0.0	0.006	0.003	0.003	0.003	9.864709390258788	-0.2507926239013672	0.16998831787109375	2.735137939453125	-3.65447998046875	-1.171112060546875	9.785102185058593	0.2825157958984375	0.26276363220214843	0.568389892578125	-5.0201416015625	-2.99835205078125	10.005368737792969	-0.08738836059570312	-0.11432312927246092	3.56292724609375	-4.642486572265625	-2.025604248046875	
112	0.448	0.0	0.0	0.0	0.0	0.006	0.003	0.006	0.006	9.874884747314452	-0.2280477081298828	0.14185644836425781	2.62451171875	-3.6163330078125	-0.64849853515625	9.791087689208984	0.297479556274414	0.2597708801269531	0.45013427734375	-4.871368408203125	-3.009796142578125	10.002974536132811	-0.06344634399414062	-0.12030863342285156	3.7841796875	-4.566192626953125	-1.983642578125	
113	0.452	0.0	0.0	0.0	0.0	0.006	0.003	0.003	0.006	9.868300692749022	-0.21308394775390624	0.13826514587402344	2.780914306640625	-3.704071044921875	-0.728607177734375	9.787496386718749	0.30406361083984373	0.23403321228027343	0.232696533203125	-4.802703857421875	-2.841949462890625	10.00417163696289	-0.05566518859863281	-0.1657984649658203	3.60870361328125	-4.6234130859375	-2.307891845703125	
114	0.456	0.0	0.0	0.0	0.0	0.003	0.003	0.003	0.006	9.865906491088866	-0.1849520782470703	0.12330138549804687	2.666473388671875	-3.559112548828125	-0.946044921875	9.78629928588867	0.3298012786865234	0.21068974609375	0.335693359375	-4.878997802734375	-3.139495849609375	10.001777435302733	-0.0383072265625	-0.181959326171875	3.7078857421875	-4.482269287109375	-2.193450927734375	
115	0.46	0.0	0.0	0.0	0.0	0.006	0.003	0.003	0.006	9.861716638183593	-0.1693897674560547	0.10235212097167969	2.6702880859375	-3.635406494140625	-0.629425048828125	9.783306533813477	0.3603273498535156	0.19393033447265623	0.682830810546875	-5.092620849609375	-3.093719482421875	10.005368737792969	-0.02154781494140625	-0.19632453613281248	3.643035888671875	-4.57763671875	-2.25067138671875	
116	0.464	0.0	0.0	0.0	0.0	0.006	0.003	0.003	0.003	9.86411083984375	-0.1562216583251953	0.086191259765625	2.803802490234375	-3.72314453125	-0.850677490234375	9.773729727172851	0.3848679168701172	0.16819266662597654	0.26702880859375	-4.87518310546875	-2.925872802734375	10.00417163696289	0.005985504150390624	-0.2232593048095703	3.757476806640625	-4.825592041015625	-2.23541259765625	
117	0.468	0.0	0.0	0.0	0.0	0.003	0.006	0.006	0.003	9.868899243164062	-0.12389993591308593	0.0718260498046875	2.658843994140625	-3.53240966796875	-0.720977783203125	9.784503634643555	0.4016273284912109	0.16460136413574217	0.25177001953125	-4.634857177734375	-2.895355224609375	10.016142645263672	0.04129997863769531	-0.23044190979003906	3.8909912109375	-4.611968994140625	-2.223968505859375	
118	0.47200000000000003	0.0	0.0	0.0	0.0	0.003	0.003	0.003	0.003	9.868899243164062	-0.10714052429199218	0.052073886108398436	2.55584716796875	-3.627777099609375	-0.881195068359375	9.779715231323241	0.43933600463867184	0.14604630126953125	0.560760498046875	-4.749298095703125	-2.941131591796875	10.012551342773437	0.06763619689941405	-0.25917232971191406	3.60107421875	-4.547119140625	-1.995086669921875	
119	0.47600000000000003	0.0	0.0	0.0	0.0	0.003	0.003	0.006	0.006	9.861716638183593	-0.08978256225585937	0.037110125732421874	2.63214111328125	-3.574371337890625	-0.7476806640625	9.784503634643555	0.4495113616943359	0.1197100830078125	0.339508056640625	-5.035400390625	-2.933502197265625	10.005368737792969	0.0796072052001953	-0.28431144714355466	3.658294677734375	-4.650115966796875	-2.086639404296875	
120	0.48	0.0	0.0	0.0	0.0	0.006	0.006	0.006	0.003	9.865307940673828	-0.06045359191894531	0.020949264526367185	2.521514892578125	-3.757476806640625	-0.84686279296875	9.783905084228515	0.4722562774658203	0.10115502014160156	0.301361083984375	-4.76837158203125	-3.032684326171875	10.000580334472655	0.08918401184082031	-0.29269115295410153	3.734588623046875	-4.5623779296875	-2.13623046875	
121	0.484	0.0	0.0	0.0	0.0	-0.003	0.003	0.003	0.006	9.874286196899414	-0.04369418029785156	0.012569558715820313	2.498626708984375	-3.76129150390625	-0.629425048828125	9.779715231323241	0.4961982940673828	0.09816226806640624	0.507354736328125	-4.688262939453125	-2.9754638671875	10.000580334472655	0.12150573425292968	-0.296881005859375	3.574371337890625	-4.6844482421875	-2.048492431640625	
122	0.488	0.0	0.0	0.0	0.0	0.006	0.003	0.006	0.0	9.880870251464843	-0.027533319091796873	-0.004189852905273437	2.475738525390625	-3.726959228515625	-0.896453857421875	9.790489138793944	0.4991910461425781	0.08858546142578125	-0.0152587890625	-4.90570068359375	-2.864837646484375	10.00417163696289	0.1227028350830078	-0.3058592620849609	3.780364990234375	-4.749298095703125	-2.410888671875	
123	0.492	0.0	0.0	0.0	0.0	0.003	0.003	0.006	0.003	9.882067352294921	-0.0143652099609375	-0.012569558715820313	2.429962158203125	-3.56292724609375	-0.8544921875	9.788693487548828	0.517746109008789	0.08559270935058594	0.377655029296875	-4.8980712890625	-3.086090087890625	10.012551342773437	0.14963760375976562	-0.3178302703857422	3.551483154296875	-4.64630126953125	-2.117156982421875	
124	0.496	0.0	0.0	0.0	0.0	0.003	0.006	0.003	0.003	9.873089096069336	-0.011971008300781249	-0.03890577697753906	2.658843994140625	-3.4637451171875	-0.946044921875	9.783905084228515	0.5303156677246094	0.08379705810546874	0.255584716796875	-4.974365234375	-2.857208251953125	10.00955859069824	0.1580173095703125	-0.3064578125	3.643035888671875	-4.520416259765625	-1.934051513671875	
125	0.5	0.0	0.0	0.0	0.0	0.003	0.006	0.003	0.003	9.867702142333984	-0.013168109130859374	-0.028131869506835935	2.57110595703125	-3.536224365234375	-0.782012939453125	9.776722479248047	0.5398924743652344	0.08020575561523437	0.270843505859375	-4.825592041015625	-2.964019775390625	10.00417163696289	0.15322890625	-0.3190273712158203	3.658294677734375	-4.85992431640625	-2.13623046875	
126	0.504	0.0	0.0	0.0	0.0	0.006	0.003	0.003	0.006	9.853935482788085	0.0053869537353515625	-0.029328970336914062	2.54058837890625	-3.803253173828125	-0.8087158203125	9.776722479248047	0.5452794281005859	0.07541735229492187	0.362396240234375	-4.924774169921875	-3.143310546875	10.014945544433592	0.1610100616455078	-0.32082302246093747	3.604888916015625	-4.70733642578125	-2.08282470703125	
127	0.508	0.0	0.0	0.0	0.0	0.009000000000000001	0.003	0.003	0.006	9.868300692749022	0.009576806640625	-0.022744915771484374	2.5787353515625	-3.513336181640625	-0.988006591796875	9.775525378417969	0.5422866760253906	0.07422025146484375	0.3814697265625	-5.096435546875	-3.13568115234375	10.008960040283203	0.17298106994628906	-0.31483751831054685	3.665924072265625	-4.44793701171875	-2.13623046875	
128	0.512	0.0	0.0	0.0	0.0	0.009000000000000001	0.003	0.003	0.003	9.871293444824218	0.00718260498046875	-0.025139117431640625	2.567291259765625	-3.4942626953125	-0.823974609375	9.785102185058593	0.535702621459961	0.08259995727539061	0.560760498046875	-5.035400390625	-2.994537353515625	10.006565838623047	0.1562216583251953	-0.31184476623535157	3.387451171875	-4.63104248046875	-2.0751953125	
129	0.516	0.0	0.0	0.0	0.0	0.003	0.003	0.003	0.003	9.873687646484374	-0.00239420166015625	-0.010773907470703125	2.681732177734375	-3.7078857421875	-0.858306884765625	9.78031378173828	0.5333084197998047	0.08379705810546874	0.316619873046875	-4.89044189453125	-2.899169921875	10.001178884887695	0.1592144104003906	-0.31004911499023435	3.589630126953125	-4.596710205078125	-2.20489501953125	
130	0.52	0.0	0.0	0.0	0.0	0.003	0.006	0.003	0.003	9.871891995239258	-0.011971008300781249	-0.017357962036132813	2.590179443359375	-3.742218017578125	-0.957489013671875	9.782707983398437	0.5315127685546874	0.09636661682128905	0.576019287109375	-4.985809326171875	-2.986907958984375	10.00417163696289	0.1514332550048828	-0.2980781066894531	3.50189208984375	-4.5013427734375	-2.05230712890625	
131	0.524	0.0	0.0	0.0	0.0	0.003	0.003	0.003	0.003	9.871293444824218	-0.017357962036132813	-0.0005985504150390625	2.674102783203125	-3.7078857421875	-0.782012939453125	9.775525378417969	0.5219359619140624	0.10115502014160156	0.148773193359375	-4.756927490234375	-2.95257568359375	10.016142645263672	0.14784195251464843	-0.30346506042480464	3.79180908203125	-4.45556640625	-2.353668212890625	
132	0.528	0.0	0.0	0.0	0.0	0.006	0.006	0.003	0.003	9.875483297729492	-0.030526071166992186	0.020350714111328123	2.498626708984375	-3.856658935546875	-0.8697509765625	9.783306533813477	0.5009866973876953	0.11432312927246092	0.23651123046875	-5.008697509765625	-2.9754638671875	10.007762939453125	0.12389993591308593	-0.2765302917480469	3.662109375	-4.39453125	-2.185821533203125	
133	0.532	0.0	0.0	0.0	0.0	0.006	0.003	0.003	0.003	9.881468801879882	-0.047884033203124995	0.034715924072265626	2.86102294921875	-3.757476806640625	-0.83160400390625	9.788094937133788	0.48063598327636714	0.1388636962890625	0.3204345703125	-4.96673583984375	-2.78472900390625	9.993397729492187	0.11252747802734374	-0.258573779296875	3.833770751953125	-4.566192626953125	-2.1820068359375	
134	0.536	0.0	0.0	0.0	0.0	0.003	0.006	0.003	0.003	9.872490545654296	-0.06883329772949218	0.05566518859863281	2.38037109375	-3.41033935546875	-0.782012939453125	9.785102185058593	0.4572925170898437	0.1514332550048828	0.179290771484375	-4.726409912109375	-2.8076171875	10.005368737792969	0.08319850769042968	-0.2519897247314453	3.574371337890625	-4.69207763671875	-2.086639404296875	
135	0.54	0.0	0.0	0.0	0.0	0.003	0.006	0.003	0.006	9.87069489440918	-0.086191259765625	0.06643909606933593	2.777099609375	-3.570556640625	-0.732421875	9.78629928588867	0.4285620971679687	0.16519991455078123	0.301361083984375	-4.940032958984375	-3.055572509765625	10.003573086547851	0.06464344482421874	-0.23223756103515625	3.47900390625	-4.49371337890625	-2.079010009765625	
136	0.544	0.0	0.0	0.0	0.0	0.006	0.006	0.006	0.003	9.867103591918944	-0.10414777221679687	0.0718260498046875	2.63214111328125	-3.63922119140625	-0.81634521484375	9.780912332153319	0.412401235961914	0.17896657409667968	0.3204345703125	-4.81414794921875	-2.93731689453125	10.008960040283203	0.040102877807617184	-0.22026655273437498	3.71551513671875	-4.87518310546875	-2.071380615234375	
137	0.548	0.0	0.0	0.0	0.0	0.003	0.003	0.003	0.003	9.87009634399414	-0.1388636962890625	0.10354922180175781	2.62451171875	-3.5247802734375	-0.8544921875	9.783905084228515	0.39923312683105466	0.18854338073730467	0.263214111328125	-4.917144775390625	-3.047943115234375	10.01075569152832	0.005985504150390624	-0.19871873779296872	3.818511962890625	-4.7149658203125	-2.11334228515625	
138	0.552	0.0	0.0	0.0	0.0	0.003	0.006	0.003	0.003	9.87608184814453	-0.1580173095703125	0.11432312927246092	2.567291259765625	-3.54766845703125	-0.701904296875	9.787496386718749	0.3651157531738281	0.2088940948486328	0.38909912109375	-4.78363037109375	-3.047943115234375	10.006565838623047	-0.01975216369628906	-0.1801636749267578	3.490447998046875	-4.428863525390625	-2.0599365234375	
139	0.556	0.0	0.0	0.0	0.0	0.006	0.003	0.003	0.003	9.873089096069336	-0.19153613281249998	0.1304839904785156	2.70843505859375	-3.7078857421875	-0.843048095703125	9.788094937133788	0.3387795349121094	0.2232593048095703	0.308990478515625	-4.779815673828125	-2.986907958984375	10.008960040283203	-0.023942016601562498	-0.16819266662597654	3.719329833984375	-4.5623779296875	-2.086639404296875	
140	0.56	0.0	0.0	0.0	0.0	0.006	0.003	0.003	0.006	9.867702142333984	-0.2041056915283203	0.1514332550048828	2.529144287109375	-3.35693359375	-0.8392333984375	9.785700735473633	0.31543606872558594	0.23582886352539062	0.316619873046875	-4.962921142578125	-2.933502197265625	10.002974536132811	-0.0526724365234375	-0.14604630126953125	3.631591796875	-4.444122314453125	-2.162933349609375	
141	0.5640000000000001	0.0	0.0	0.0	0.0	0.006	0.006	0.003	0.003	9.85094273071289	-0.22505495605468748	0.1562216583251953	2.605438232421875	-3.5247802734375	-0.8544921875	9.784503634643555	0.296881005859375	0.25139117431640623	0.339508056640625	-4.840850830078125	-2.819061279296875	9.999383233642577	-0.07422025146484375	-0.13287819213867186	3.635406494140625	-4.7454833984375	-2.1514892578125	
142	0.5680000000000001	0.0	0.0	0.0	0.0	0.006	0.006	0.003	0.006	9.860519537353515	-0.24361001892089842	0.15741875915527342	2.54058837890625	-3.76129150390625	-0.79345703125	9.777321029663085	0.2867056488037109	0.2472013214111328	0.316619873046875	-4.8065185546875	-2.941131591796875	10.007762939453125	-0.09217676391601562	-0.12210428466796874	3.5858154296875	-4.589080810546875	-2.20489501953125	
143	0.5720000000000001	0.0	0.0	0.0	0.0	0.003	0.006	0.003	0.003	9.861118087768554	-0.2567781280517578	0.1580173095703125	2.46429443359375	-3.467559814453125	-0.774383544921875	9.781510882568359	0.2819172454833984	0.2555810272216797	0.370025634765625	-4.985809326171875	-3.078460693359375	10.011354241943359	-0.10654197387695312	-0.12030863342285156	3.631591796875	-4.57763671875	-2.2430419921875	
144	0.5760000000000001	0.0	0.0	0.0	0.0	0.003	0.003	0.003	0.006	9.865307940673828	-0.26396073303222656	0.1592144104003906	2.72369384765625	-3.322601318359375	-0.9918212890625	9.791087689208984	0.25797522888183594	0.2657563842773437	0.274658203125	-5.0506591796875	-3.07464599609375	10.022128149414062	-0.11013327636718749	-0.11911153259277343	3.482818603515625	-4.7454833984375	-2.223968505859375	
145	0.58	0.0	0.0	0.0	0.0	0.006	0.006	0.006	0.003	9.87069489440918	-0.2711433380126953	0.16460136413574217	2.483367919921875	-3.4637451171875	-0.873565673828125	9.791686239624022	0.2645592834472656	0.2657563842773437	0.110626220703125	-4.795074462890625	-3.07464599609375	10.008960040283203	-0.10295067138671875	-0.12509703674316405	3.360748291015625	-4.642486572265625	-2.18963623046875	
146	0.584	0.0	0.0	0.0	0.0	0.006	0.003	0.003	0.003	9.86411083984375	-0.2753331909179687	0.16041151123046873	2.49481201171875	-3.681182861328125	-0.881195068359375	9.78629928588867	0.25737667846679685	0.25917232971191406	0.29754638671875	-4.44793701171875	-2.803802490234375	10.003573086547851	-0.11671733093261719	-0.13646949462890623	3.936767578125	-4.596710205078125	-2.26593017578125	
147	0.588	0.0	0.0	0.0	0.0	0.003	0.006	0.006	0.006	9.854534033203125	-0.27293898925781246	0.16041151123046873	2.62451171875	-3.429412841796875	-0.827789306640625	9.785700735473633	0.25797522888183594	0.2454056701660156	0.457763671875	-4.703521728515625	-2.89154052734375	9.993996279907225	-0.10235212097167969	-0.14425065002441406	3.72314453125	-4.6234130859375	-2.071380615234375	
148	0.592	0.0	0.0	0.0	0.0	0.009000000000000001	0.003	0.003	0.003	9.86411083984375	-0.258573779296875	0.143652099609375	2.46429443359375	-3.59344482421875	-0.858306884765625	9.785102185058593	0.27353753967285155	0.2316390106201172	0.415802001953125	-4.894256591796875	-3.0517578125	10.00417163696289	-0.10654197387695312	-0.15023615417480468	3.467559814453125	-4.604339599609375	-2.1820068359375	
149	0.596	0.0	0.0	0.0	0.0	0.003	0.006	0.003	0.003	9.858125335693359	-0.2501940734863281	0.1388636962890625	2.74658203125	-3.88336181640625	-0.911712646484375	9.785102185058593	0.2920926025390625	0.21428104858398436	0.25177001953125	-4.99725341796875	-2.780914306640625	10.008960040283203	-0.07781155395507812	-0.16340426330566404	3.63922119140625	-4.703521728515625	-2.376556396484375	
150	0.6	0.0	0.0	0.0	0.0	0.003	0.006	0.003	0.003	9.868300692749022	-0.22864625854492185	0.13168109130859373	2.5787353515625	-3.520965576171875	-0.75531005859375	9.785102185058593	0.2962824554443359	0.21188684692382811	0.400543212890625	-4.940032958984375	-2.796173095703125	10.007762939453125	-0.06763619689941405	-0.17956512451171874	3.60107421875	-4.642486572265625	-2.0904541015625	
151	0.604	0.0	0.0	0.0	0.0	0.003	0.003	0.003	0.009000000000000001	9.879673150634765	-0.21308394775390624	0.11073182678222655	2.44140625	-3.383636474609375	-0.80108642578125	9.788094937133788	0.3172317199707031	0.19991583862304688	0.370025634765625	-4.94384765625	-3.017425537109375	10.007762939453125	-0.04848258361816406	-0.19871873779296872	3.597259521484375	-4.57000732421875	-2.1514892578125	
152	0.608	0.0	0.0	0.0	0.0	0.009000000000000001	0.003	0.006	0.003	9.86411083984375	-0.18614917907714842	0.08259995727539061	2.552032470703125	-3.4027099609375	-0.89263916015625	9.785102185058593	0.34177228698730466	0.18315642700195311	0.1678466796875	-4.85992431640625	-2.8076171875	10.005368737792969	-0.028131869506835935	-0.21966800231933592	3.73077392578125	-4.787445068359375	-2.1820068359375	
153	0.612	0.0	0.0	0.0	0.0	0.006	0.003	0.003	0.006	9.865307940673828	-0.17776947326660156	0.06344634399414062	2.72369384765625	-3.513336181640625	-0.762939453125	9.784503634643555	0.3633201019287109	0.16460136413574217	0.23651123046875	-5.0811767578125	-3.025054931640625	10.014945544433592	-0.0143652099609375	-0.2328361114501953	3.33404541015625	-4.6234130859375	-2.28118896484375	
154	0.616	0.0	0.0	0.0	0.0	0.006	0.006	0.006	0.003	9.855731134033203	-0.15502455749511718	0.05327098693847656	2.597808837890625	-3.787994384765625	-0.7171630859375	9.785102185058593	0.38307226562499996	0.1484405029296875	0.518798828125	-5.100250244140625	-3.05938720703125	10.01075569152832	-0.00239420166015625	-0.23702596435546874	3.60870361328125	-4.38690185546875	-2.0599365234375	
155	0.62	0.0	0.0	0.0	0.0	0.003	0.006	0.003	0.009000000000000001	9.86351228942871	-0.12988544006347655	0.04189852905273437	2.47955322265625	-3.5552978515625	-0.77056884765625	9.788693487548828	0.4147954376220703	0.1304839904785156	0.5950927734375	-4.9285888671875	-3.139495849609375	10.00955859069824	0.03232172241210937	-0.2537853759765625	3.76129150390625	-4.82940673828125	-2.25830078125	
156	0.624	0.0	0.0	0.0	0.0	0.003	0.003	0.003	0.003	9.865906491088866	-0.11192892761230468	0.03531447448730469	2.57110595703125	-3.45611572265625	-0.70953369140625	9.78629928588867	0.43035774841308594	0.11133037719726561	0.19073486328125	-4.82177734375	-3.124237060546875	10.011952792358398	0.059256491088867186	-0.2657563842773437	3.643035888671875	-4.78363037109375	-2.315521240234375	
157	0.628	0.0	0.0	0.0	0.0	0.009000000000000001	0.003	0.003	0.006	9.86291373901367	-0.086191259765625	0.016759411621093748	2.5482177734375	-3.326416015625	-0.8087158203125	9.791686239624022	0.4465186096191406	0.105344873046875	0.3662109375	-4.749298095703125	-2.910614013671875	9.999383233642577	0.07122749938964844	-0.277727392578125	3.719329833984375	-4.73785400390625	-2.18963623046875	
158	0.632	0.0	0.0	0.0	0.0	0.006	0.003	0.006	0.006	9.873687646484374	-0.062249243164062495	0.007781155395507812	2.60162353515625	-3.734588623046875	-0.96893310546875	9.787496386718749	0.4626794708251953	0.10654197387695312	0.3509521484375	-4.85992431640625	-2.964019775390625	9.99220062866211	0.0909796630859375	-0.2753331909179687	3.6163330078125	-4.730224609375	-2.094268798828125	
159	0.636	0.0	0.0	0.0	0.0	0.003	0.006	0.003	0.003	9.879074600219726	-0.044891281127929686	-0.002992752075195312	2.64739990234375	-3.4637451171875	-0.957489013671875	9.784503634643555	0.4836287353515625	0.10354922180175781	0.247955322265625	-4.9591064453125	-2.7923583984375	10.004770187377929	0.10773907470703124	-0.2855085479736328	3.73077392578125	-4.734039306640625	-2.063751220703125	
160	0.64	0.0	0.0	0.0	0.0	0.006	0.003	0.006	0.003	9.86291373901367	-0.027533319091796873	-0.005985504150390624	2.811431884765625	-3.62396240234375	-1.007080078125	9.78629928588867	0.5015852478027344	0.09816226806640624	0.400543212890625	-5.31768798828125	-2.994537353515625	9.991003527832031	0.12509703674316405	-0.29089550170898437	3.398895263671875	-4.482269287109375	-2.12860107421875	
161	0.644	0.0	0.0	0.0	0.0	0.006	0.003	0.003	0.003	9.873687646484374	-0.016160861206054686	-0.008379705810546874	2.414703369140625	-3.4942626953125	-0.885009765625	9.78031378173828	0.5225345123291015	0.0987608184814453	0.385284423828125	-4.665374755859375	-3.10516357421875	9.998784683227539	0.1466448516845703	-0.29927520751953124	3.77655029296875	-4.726409912109375	-2.1820068359375	
162	0.648	0.0	0.0	0.0	0.0	0.0	0.003	0.006	0.006	9.865906491088866	-0.044292730712890624	0.01975216369628906	2.4261474609375	-3.673553466796875	-0.80108642578125	9.770736975097655	0.4908113403320312	0.08678981018066406	0.141143798828125	-4.802703857421875	-2.96783447265625	10.003573086547851	0.12150573425292968	-0.3058592620849609	3.719329833984375	-4.619598388671875	-2.193450927734375	
163	0.652	0.0	0.0	0.0	0.0	0.003	0.006	0.006	0.003	9.883264453125	0.010773907470703125	-0.022744915771484374	2.6092529296875	-3.643035888671875	-0.8392333984375	9.794678991699218	0.5853823059082031	0.06464344482421874	0.370025634765625	-4.962921142578125	-2.979278564453125	10.01015714111328	0.24779987182617186	-0.2914940521240234	3.841400146484375	-4.6844482421875	-2.2735595703125	
164	0.656	0.0	0.0	0.0	0.0	0.006	0.003	0.006	0.006	9.86351228942871	-0.017357962036132813	0.029328970336914062	2.506256103515625	-3.688812255859375	-0.682830810546875	9.764152920532226	0.5392939239501953	0.10235212097167969	0.34332275390625	-4.817962646484375	-2.960205078125	9.991003527832031	0.20949264526367187	-0.28431144714355466	3.910064697265625	-4.75311279296875	-2.033233642578125	
165	0.66	0.0	0.0	0.0	0.0	0.006	0.003	0.003	0.003	9.879074600219726	-0.08259995727539061	0.0005985504150390625	2.13623046875	-3.215789794921875	-0.92315673828125	9.801263046264648	0.4291606475830078	0.08319850769042968	0.339508056640625	-4.795074462890625	-3.08990478515625	10.045471615600585	-0.018555062866210937	-0.34177228698730466	3.658294677734375	-4.7149658203125	-2.37274169921875	
166	0.664	0.0	0.0	0.0	0.0	0.003	0.003	0.006	0.003	9.866505041503906	0.006584054565429687	0.05985504150390625	2.3956298828125	-3.47137451171875	-0.568389892578125	9.773729727172851	0.690128628540039	0.16819266662597654	0.179290771484375	-4.913330078125	-3.0517578125	10.034697708129881	0.3333925811767578	-0.2998737579345703	3.70025634765625	-4.547119140625	-1.91497802734375	
167	0.668	0.0	0.0	0.0	0.0	0.003	0.006	0.006	0.003	9.879673150634765	0.004189852905273437	-0.0017956512451171875	2.193450927734375	-3.2196044921875	-0.8392333984375	9.798868844604492	0.4914098907470703	0.08918401184082031	0.3662109375	-4.764556884765625	-2.777099609375	10.028712203979492	0.12629413757324218	-0.32920272827148434	3.635406494140625	-4.451751708984375	-2.15911865234375	
168	0.672	0.0	0.0	0.0	0.0	0.003	0.006	0.003	0.006	9.840767373657226	-0.10414777221679687	0.11192892761230468	2.18963623046875	-3.292083740234375	-0.698089599609375	9.733626849365233	0.4908113403320312	0.21607669982910155	0.385284423828125	-4.94384765625	-3.13568115234375	10.001777435302733	0.09935936889648436	-0.26695348510742184	4.63104248046875	-4.581451416015625	-2.4566650390625	
169	0.676	0.0	0.0	0.0	0.0	0.003	0.003	0.003	0.003	9.899425314331054	-0.011372457885742187	0.02154781494140625	2.216339111328125	-3.177642822265625	-0.911712646484375	9.827000714111328	0.4944026428222656	0.08259995727539061	0.415802001953125	-4.8370361328125	-2.994537353515625	10.116699114990233	0.09337386474609374	-0.3597287994384765	3.57818603515625	-4.70733642578125	-2.231597900390625	
170	0.68	0.0	0.0	0.0	0.0	0.0	0.006	0.003	0.003	9.874286196899414	0.20051438903808594	0.05087678527832031	3.002166748046875	-3.77655029296875	-0.759124755859375	9.71028338317871	0.6165069274902344	0.2663549346923828	0.194549560546875	-4.756927490234375	-2.651214599609375	10.008361489868163	0.34715924072265625	-0.23044190979003906	3.887176513671875	-4.69207763671875	-2.033233642578125	
171	0.684	0.0	0.0	0.0	0.0	0.006	0.006	0.003	0.003	9.886855755615233	-0.08918401184082031	0.04848258361816406	2.170562744140625	-3.31878662109375	-0.972747802734375	9.816226806640625	0.27892449340820313	0.10295067138671875	0.12969970703125	-4.871368408203125	-2.74658203125	10.062829577636718	-0.13407529296874998	-0.3142389678955078	3.6773681640625	-4.67681884765625	-2.353668212890625	
172	0.6880000000000001	0.0	0.0	0.0	0.0	0.003	0.003	0.003	0.003	9.896432562255859	0.11791443176269531	0.0718260498046875	3.11279296875	-3.894805908203125	-0.919342041015625	9.764751470947266	0.5548562347412109	0.28909985046386716	0.499725341796875	-4.87518310546875	-2.658843994140625	10.084377392578125	0.24181436767578124	-0.21009119567871093	3.44085693359375	-4.528045654296875	-2.20489501953125	
173	0.6920000000000001	0.0	0.0	0.0	0.0	0.003	0.003	0.003	0.003	9.910199221801758	-0.04668693237304687	0.03531447448730469	2.37274169921875	-3.376007080078125	-0.9765625	9.821613760375977	0.3327940307617187	0.11372457885742186	0.19073486328125	-4.871368408203125	-2.78472900390625	10.037091909790039	-0.009576806640625	-0.28730419921875	3.337860107421875	-4.619598388671875	-2.140045166015625	
174	0.6960000000000001	0.0	0.0	0.0	0.0	0.003	0.003	0.006	0.003	9.885658654785155	0.12629413757324218	0.086191259765625	3.30352783203125	-4.21142578125	-0.96893310546875	9.746794958496093	0.5345055206298828	0.21128829650878905	0.247955322265625	-4.711151123046875	-2.99835205078125	10.003573086547851	0.1897404815673828	-0.17058686828613281	3.6773681640625	-4.711151123046875	-2.109527587890625	
175	0.7000000000000001	0.0	0.0	0.0	0.0	0.006	0.003	0.003	0.006	9.896432562255859	-0.15981296081542967	0.0939724151611328	3.204345703125	-3.997802734375	-0.78582763671875	9.888052856445311	0.19033903198242186	0.13946224670410157	0.3662109375	-4.95147705078125	-2.79998779296875	10.065223779296874	-0.13407529296874998	-0.2555810272216797	3.76129150390625	-4.741668701171875	-1.89971923828125	
176	0.704	0.0	0.0	0.0	0.0	0.003	0.003	0.003	0.003	9.91558617553711	0.047285482788085934	0.0939724151611328	3.421783447265625	-3.971099853515625	-1.102447509765625	9.791686239624022	0.5321113189697265	0.23223756103515625	0.51116943359375	-4.96673583984375	-2.9754638671875	9.97783541870117	0.0987608184814453	-0.11851298217773437	3.650665283203125	-4.581451416015625	-2.29644775390625	
177	0.708	0.0	0.0	0.0	0.0	0.006	0.003	0.003	0.006	9.893439810180663	-0.16160861206054686	0.09756371765136718	3.131866455078125	-3.780364990234375	-0.751495361328125	9.765350021362304	0.30705636291503907	0.2328361114501953	0.247955322265625	-4.878997802734375	-2.78472900390625	10.014945544433592	-0.14724340209960937	-0.258573779296875	3.696441650390625	-4.69207763671875	-1.9073486328125	
178	0.712	0.0	0.0	0.0	0.0	0.003	0.003	0.006	0.006	9.900622415161132	0.0053869537353515625	0.11372457885742186	2.864837646484375	-3.84521484375	-0.91552734375	9.77432827758789	0.49320554199218747	0.2657563842773437	0.5035400390625	-4.791259765625	-2.895355224609375	9.93354268798828	0.07781155395507812	-0.07541735229492187	3.7078857421875	-4.611968994140625	-2.315521240234375	
179	0.716	0.0	0.0	0.0	0.0	0.006	0.003	0.003	0.003	9.87608184814453	-0.23223756103515625	0.08978256225585937	3.0364990234375	-3.9520263671875	-0.919342041015625	9.810241302490233	0.2232593048095703	0.21607669982910155	0.118255615234375	-5.115509033203125	-2.788543701171875	10.067617980957031	-0.25737667846679685	-0.24061726684570311	3.719329833984375	-4.82177734375	-1.8463134765625	
180	0.72	0.0	0.0	0.0	0.0	0.003	0.003	0.003	0.006	9.840767373657226	-0.32022447204589843	0.15442600708007811	2.666473388671875	-3.620147705078125	-0.86212158203125	9.725845693969726	0.3794809631347656	0.21068974609375	0.331878662109375	-4.886627197265625	-3.246307373046875	9.923965881347655	0.052073886108398436	-0.09157821350097656	3.658294677734375	-4.46319580078125	-2.44903564453125	
181	0.724	0.0	0.0	0.0	0.0	0.009000000000000001	0.006	0.006	0.003	9.853336932373047	-0.23104046020507812	0.12808978881835936	2.811431884765625	-3.96728515625	-0.728607177734375	9.777321029663085	0.24660277099609373	0.2645592834472656	0.209808349609375	-4.840850830078125	-2.838134765625	9.860519537353515	-0.023942016601562498	-0.09157821350097656	3.780364990234375	-4.94384765625	-1.94549560546875	
182	0.728	0.0	0.0	0.0	0.0	0.006	0.003	0.003	0.006	9.829993466186522	-0.36212300109863277	0.17417817077636719	2.78472900390625	-3.83758544921875	-0.988006591796875	9.734225399780273	0.36750995483398435	0.2214636535644531	0.32806396484375	-4.833221435546875	-3.448486328125	9.944915145874022	0.044292730712890624	-0.08858546142578125	3.6468505859375	-4.31060791015625	-2.4871826171875	
183	0.732	0.0	0.0	0.0	0.0	0.003	0.006	0.003	0.003	9.883264453125	-0.4339490509033203	0.028730419921875	1.628875732421875	-3.4332275390625	-0.58746337890625	9.752780462646484	0.37708676147460934	0.16041151123046873	0.60272216796875	-5.06591796875	-2.689361572265625	9.897629663085937	-0.09038111267089843	-0.143652099609375	3.498077392578125	-4.550933837890625	-1.8768310546875	
184	0.736	0.0	0.0	0.0	0.0	0.006	0.003	0.006	0.003	9.815628256225585	-0.31962592163085934	0.2059013427734375	3.078460693359375	-3.925323486328125	-0.949859619140625	9.706093530273437	0.42018239135742186	0.2232593048095703	0.232696533203125	-4.608154296875	-3.25775146484375	9.951499200439452	-0.14784195251464843	-0.13646949462890623	3.704071044921875	-4.642486572265625	-2.384185791015625	
185	0.74	0.0	0.0	0.0	0.0	0.003	0.006	0.003	0.003	9.843161575317382	-0.4064157318115234	0.05686228942871093	1.99127197265625	-3.261566162109375	-0.77056884765625	9.72345149230957	0.4213794921875	0.14185644836425781	0.431060791015625	-4.978179931640625	-2.8839111328125	9.879074600219726	-0.05686228942871093	-0.13946224670410157	3.345489501953125	-4.863739013671875	-1.89208984375	
186	0.744	0.0	0.0	0.0	0.0	0.003	0.003	0.003	0.003	9.84555577697754	-0.35015199279785153	0.16160861206054686	3.16619873046875	-3.74603271484375	-0.80108642578125	9.849147079467773	0.10414777221679687	0.13646949462890623	0.156402587890625	-4.764556884765625	-3.185272216796875	9.983820922851562	-0.19093758239746092	-0.18255787658691405	3.7994384765625	-4.512786865234375	-2.6702880859375	
187	0.748	0.0	0.0	0.0	0.0	0.003	0.003	0.003	0.003	9.854534033203125	-0.41539398803710936	0.027533319091796873	1.697540283203125	-3.215789794921875	-0.823974609375	9.709086282348633	0.47105917663574215	0.13407529296874998	0.278472900390625	-4.985809326171875	-2.8839111328125	9.993397729492187	0.07601590270996093	-0.12210428466796874	3.63922119140625	-4.383087158203125	-1.9073486328125	
188	0.752	0.0	0.0	0.0	0.0	0.006	0.003	0.003	0.003	9.880870251464843	-0.479438882446289	0.002992752075195312	2.28118896484375	-3.24249267578125	-1.007080078125	9.830592016601562	0.17597382202148437	0.13168109130859373	0.22125244140625	-4.791259765625	-3.1585693359375	9.955689053344726	-0.13587094421386717	-0.1771709228515625	3.62396240234375	-4.5166015625	-2.5177001953125	
189	0.756	0.0	0.0	0.0	0.0	0.003	0.006	0.006	0.006	9.882067352294921	-0.421978042602539	0.004189852905273437	1.773834228515625	-3.276824951171875	-0.762939453125	9.724050042724608	0.4961982940673828	0.09157821350097656	-0.11444091796875	-4.70733642578125	-2.67791748046875	9.9981861328125	0.09995791931152344	-0.12150573425292968	3.56292724609375	-4.718780517578125	-1.9378662109375	
190	0.76	0.0	0.0	0.0	0.0	0.003	0.003	0.003	0.003	9.89463691101074	-0.45968671875	-0.028131869506835935	2.52532958984375	-3.509521484375	-1.110076904296875	9.835380419921874	0.2232593048095703	0.11073182678222655	0.171661376953125	-4.7760009765625	-3.108978271484375	9.957484704589843	-0.12210428466796874	-0.19033903198242186	3.94439697265625	-4.61578369140625	-2.246856689453125	
191	0.764	0.0	0.0	0.0	0.0	0.003	0.003	0.003	0.003	9.854534033203125	-0.4147954376220703	0.025139117431640625	2.559661865234375	-3.665924072265625	-0.83160400390625	9.792284790039062	0.4632780212402344	0.32082302246093747	0.28228759765625	-4.7607421875	-2.75421142578125	9.983222372436522	0.14544775085449219	-0.11552023010253906	3.753662109375	-4.634857177734375	-1.743316650390625	
192	0.768	0.0	0.0	0.0	0.0	0.006	0.003	0.006	0.009000000000000001	9.889249957275391	-0.42975919799804685	-0.022744915771484374	2.017974853515625	-3.108978271484375	-0.827789306640625	9.839570272827148	0.29448680419921874	0.08200140686035155	0.347137451171875	-4.75311279296875	-3.31878662109375	10.199299072265624	-0.39324762268066404	-0.43514615173339843	3.82232666015625	-4.383087158203125	-2.231597900390625	
193	0.772	0.0	0.0	0.0	0.0	0.009000000000000001	0.003	0.006	0.003	9.764751470947266	0.20709844360351562	0.2962824554443359	2.95257568359375	-3.6163330078125	-0.637054443359375	9.805452899169921	0.5147533569335937	0.2914940521240234	0.232696533203125	-4.863739013671875	-2.9144287109375	10.020931048583984	0.17357962036132812	-0.1274912384033203	3.803253173828125	-4.619598388671875	-1.934051513671875	
194	0.776	0.0	0.0	0.0	0.0	0.006	0.003	0.003	0.006	9.868300692749022	-0.36152445068359373	-0.006584054565429687	2.25067138671875	-3.307342529296875	-0.8697509765625	9.91498762512207	0.08559270935058594	0.025139117431640625	0.3509521484375	-4.67681884765625	-2.819061279296875	10.216657034301758	-0.38666356811523434	-0.45070846252441404	3.662109375	-4.70733642578125	-2.300262451171875	
195	0.78	0.0	0.0	0.0	0.0	0.003	0.003	0.006	0.006	9.746196408081055	0.32920272827148434	0.2914940521240234	2.872467041015625	-3.231048583984375	-0.591278076171875	9.80665	0.5961562133789062	0.28431144714355466	-0.09918212890625	-4.665374755859375	-2.58636474609375	10.076596237182617	0.33399113159179683	-0.18854338073730467	3.814697265625	-4.81414794921875	-2.063751220703125	
196	0.784	0.0	0.0	0.0	0.0	0.006	0.003	0.003	0.003	9.912593423461914	0.047884033203124995	-0.008379705810546874	1.995086669921875	-3.231048583984375	-0.812530517578125	9.918578927612304	0.1406593475341797	0.025737667846679687	0.621795654296875	-4.85992431640625	-2.76947021484375	10.242993252563476	-0.3387795349121094	-0.4740519287109375	3.345489501953125	-4.55474853515625	-2.109527587890625	
197	0.788	0.0	0.0	0.0	0.0	0.003	0.006	0.006	0.006	9.750386260986328	0.44592005920410155	0.2699462371826172	3.28826904296875	-3.7689208984375	-0.759124755859375	9.76235726928711	0.5530605834960938	0.15981296081542967	0.19073486328125	-4.993438720703125	-2.925872802734375	10.083180291748047	0.3758896606445312	-0.18136077575683593	3.643035888671875	-4.6844482421875	-2.14385986328125	
198	0.792	0.0	0.0	0.0	0.0	0.009000000000000001	0.003	0.003	0.003	9.90840357055664	0.07900865478515624	-0.01975216369628906	2.216339111328125	-3.246307373046875	-0.904083251953125	9.903016616821288	0.15861585998535155	0.040102877807617184	0.354766845703125	-4.8980712890625	-2.899169921875	9.97783541870117	-0.1771709228515625	-0.37289690856933594	3.528594970703125	-4.6539306640625	-1.926422119140625	
199	0.796	0.0	0.0	0.0	0.0	0.003	0.003	0.006	0.003	9.756371765136718	0.5680243438720702	0.2597708801269531	3.559112548828125	-4.02069091796875	-0.89263916015625	9.757568865966796	0.6021417175292968	0.14784195251464843	0.423431396484375	-4.955291748046875	-2.979278564453125	10.092757098388672	0.43454760131835934	-0.20530279235839843	3.665924072265625	-4.730224609375	-2.002716064453125	
200	0.8	0.0	0.0	0.0	0.0	0.003	0.003	0.003	0.006	9.928155734252929	0.09935936889648436	-0.06584054565429687	2.01416015625	-3.509521484375	-0.934600830078125	9.792284790039062	0.14724340209960937	0.09038111267089843	0.03814697265625	-4.779815673828125	-2.4566650390625	9.995193380737303	-0.1370680450439453	-0.3908534210205078	3.62396240234375	-4.69207763671875	-1.895904541015625	
201	0.804	0.0	0.0	0.0	0.0	0.003	0.003	0.003	0.003	9.956287603759765	0.14425065002441406	-0.09995791931152344	3.47137451171875	-4.28009033203125	-1.2664794921875	9.740809454345703	0.5488707305908203	0.18076222534179687	0.31280517578125	-4.82177734375	-2.742767333984375	10.075997686767577	0.39743747558593745	-0.19931728820800781	3.753662109375	-4.657745361328125	-2.6702880859375	
202	0.808	0.0	0.0	0.0	0.0	0.006	0.003	0.003	0.006	9.943119494628906	0.10115502014160156	-0.09337386474609374	2.353668212890625	-3.528594970703125	-0.858306884765625	9.810241302490233	0.11671733093261719	0.08020575561523437	0.034332275390625	-4.734039306640625	-2.422332763671875	9.99220062866211	-0.11372457885742186	-0.4070142822265625	3.772735595703125	-4.72259521484375	-2.025604248046875	
203	0.812	0.0	0.0	0.0	0.0	0.009000000000000001	0.003	0.006	0.006	9.956886154174803	0.10115502014160156	-0.0909796630859375	3.368377685546875	-4.31060791015625	-1.19781494140625	9.725845693969726	0.5566518859863281	0.11252747802734374	0.32806396484375	-4.932403564453125	-3.082275390625	9.894038360595703	0.4291606475830078	-0.2232593048095703	3.59344482421875	-4.848480224609375	-2.613067626953125	
204	0.8160000000000001	0.0	0.0	0.0	0.0	0.003	0.003	0.003	0.009000000000000001	9.935936889648437	0.0526724365234375	-0.07900865478515624	2.231597900390625	-3.72314453125	-1.01470947265625	9.798270294189452	0.04189852905273437	0.08559270935058594	0.316619873046875	-5.035400390625	-2.552032470703125	9.962273107910155	-0.16639701538085935	-0.37229835815429685	3.73077392578125	-4.96673583984375	-1.861572265625	
205	0.8200000000000001	0.0	0.0	0.0	0.0	0.0	0.003	0.003	0.003	9.937732540893554	0.0430956298828125	-0.07122749938964844	3.173828125	-4.0130615234375	-1.300811767578125	9.733626849365233	0.4950011932373047	0.12629413757324218	0.66375732421875	-4.764556884765625	-3.3416748046875	9.897629663085937	0.3812766143798828	-0.19213468322753904	3.734588623046875	-4.543304443359375	-2.391815185546875	
206	0.8240000000000001	0.0	0.0	0.0	0.0	0.003	0.006	0.003	0.006	9.778518130493163	-0.105344873046875	0.05626373901367187	2.2430419921875	-3.753662109375	-0.652313232421875	9.625887774658203	0.6931213806152343	0.14125789794921875	0.457763671875	-5.084991455078125	-2.880096435546875	9.868899243164062	0.18555062866210936	-0.2184709014892578	3.7384033203125	-4.901885986328125	-1.956939697265625	
207	0.8280000000000001	0.0	0.0	0.0	0.0	0.006	0.006	0.006	0.003	9.909600671386718	0.0017956512451171875	-0.03232172241210937	2.93731689453125	-3.936767578125	-1.216888427734375	9.719261639404296	0.5093664031982421	0.1693897674560547	0.63323974609375	-4.894256591796875	-3.27301025390625	9.874286196899414	0.45070846252441404	-0.12509703674316405	3.84521484375	-4.96673583984375	-2.40325927734375	
208	0.8320000000000001	0.0	0.0	0.0	0.0	0.006	0.003	0.003	0.003	9.788693487548828	-0.13646949462890623	0.07302315063476562	1.89208984375	-3.50189208984375	-0.522613525390625	9.630676177978515	0.5823895538330078	0.17657237243652343	0.423431396484375	-5.02777099609375	-2.574920654296875	9.854534033203125	0.08439560852050781	-0.18076222534179687	3.53240966796875	-4.840850830078125	-1.895904541015625	
209	0.836	0.0	0.0	0.0	0.0	0.006	0.003	0.006	0.006	9.926360083007811	-0.46627077331542965	0.054468087768554684	2.26593017578125	-3.414154052734375	-0.8544921875	9.750386260986328	0.49200844116210934	0.20769699401855468	0.537872314453125	-4.833221435546875	-3.879547119140625	9.956287603759765	-0.07003039855957031	-0.1580173095703125	3.719329833984375	-4.35638427734375	-2.8228759765625	
210	0.84	0.0	0.0	0.0	0.0	0.0	0.003	0.003	0.006	9.817423907470703	-0.0909796630859375	0.08678981018066406	2.28118896484375	-3.12042236328125	-0.9307861328125	9.60194575805664	0.6721721160888672	0.20769699401855468	0.553131103515625	-4.924774169921875	-2.704620361328125	9.861118087768554	0.15981296081542967	-0.15442600708007811	3.45611572265625	-4.741668701171875	-1.918792724609375	
211	0.844	0.0	0.0	0.0	0.0	0.003	0.003	0.006	0.006	9.90840357055664	-0.4531026641845703	0.105344873046875	2.44903564453125	-3.51715087890625	-0.91552734375	9.809044201660155	0.5781997009277343	0.17058686828613281	0.51116943359375	-4.82940673828125	-3.421783447265625	9.910797772216796	-0.1197100830078125	-0.12509703674316405	3.620147705078125	-4.3792724609375	-2.58636474609375	
212	0.848	0.0	0.0	0.0	0.0	0.009000000000000001	0.006	0.003	0.006	9.82460651245117	-0.19333178405761717	0.08499415893554688	2.17437744140625	-3.60107421875	-0.61798095703125	9.648632690429688	0.4483142608642578	0.20829554443359374	0.03814697265625	-4.878997802734375	-2.9296875	9.890447058105469	-0.08140285644531249	-0.1514332550048828	3.60870361328125	-4.589080810546875	-1.556396484375	
213	0.852	0.0	0.0	0.0	0.0	0.006	0.003	0.003	0.003	9.926958633422851	-0.4213794921875	0.08978256225585937	2.872467041015625	-3.77655029296875	-1.155853271484375	9.810241302490233	0.6368576416015624	0.20709844360351562	0.46539306640625	-4.642486572265625	-3.711700439453125	9.944915145874022	-0.11611878051757812	-0.07781155395507812	3.70025634765625	-4.329681396484375	-2.75421142578125	
214	0.856	0.0	0.0	0.0	0.0	0.003	0.003	0.006	0.003	9.919177478027343	-0.2232593048095703	0.1849520782470703	2.445220947265625	-3.31878662109375	-0.58746337890625	9.783905084228515	0.8391676818847655	0.32441432495117184	0.091552734375	-5.306243896484375	-2.719879150390625	9.974842666625976	0.2424129180908203	0.0143652099609375	3.50189208984375	-4.63104248046875	-1.361846923828125	
215	0.86	0.0	0.0	0.0	0.0	0.009000000000000001	0.006	0.003	0.003	9.910199221801758	-0.5057751007080078	0.1083376251220703	2.887725830078125	-3.772735595703125	-1.068115234375	9.82460651245117	0.3716998077392578	0.22744915771484372	0.396728515625	-4.611968994140625	-3.574371337890625	9.917980377197265	-0.24480711975097655	-0.06464344482421874	3.482818603515625	-3.997802734375	-2.674102783203125	
216	0.864	0.0	0.0	0.0	0.0	0.003	0.003	0.006	0.006	9.903016616821288	-0.3274070770263672	0.21128829650878905	2.1820068359375	-3.261566162109375	-0.54931640625	9.836577520751952	0.34057518615722654	0.3172317199707031	-0.148773193359375	-4.9591064453125	-2.61688232421875	10.038887561035155	0.029328970336914062	0.025139117431640625	3.570556640625	-4.66156005859375	-1.6632080078125	
217	0.868	0.0	0.0	0.0	0.0	0.003	0.003	0.003	0.003	9.894038360595703	-0.3746925598144531	0.12808978881835936	1.407623291015625	-2.685546875	-1.735687255859375	9.892242709350585	0.42437224426269526	0.07062894897460938	0.537872314453125	-5.0506591796875	-3.070831298828125	10.266336718749999	-0.6081272216796875	-0.556053335571289	3.5400390625	-4.486083984375	-2.124786376953125	
218	0.872	0.0	0.0	0.0	0.0	0.003	0.003	0.006	0.003	9.87608184814453	-0.24660277099609373	0.25318682556152344	1.99127197265625	-3.414154052734375	-0.640869140625	9.794678991699218	0.11192892761230468	0.29269115295410153	-0.217437744140625	-4.82177734375	-2.410888671875	9.977236868286132	-0.025139117431640625	0.051475335693359374	3.658294677734375	-4.60052490234375	-1.338958740234375	
219	0.876	0.0	0.0	0.0	0.0	0.003	0.006	0.006	0.003	9.925162982177733	-0.6200982299804687	-0.011372457885742187	0.8544921875	-2.49481201171875	-0.80108642578125	9.904213717651366	0.5764040496826172	0.062249243164062495	0.438690185546875	-5.023956298828125	-2.964019775390625	10.280103378295898	-0.7248445526123046	-0.5069722015380859	3.681182861328125	-4.444122314453125	-1.8157958984375	
220	0.88	0.0	0.0	0.0	0.0	0.003	0.003	0.003	0.0	9.867702142333984	-0.26695348510742184	0.26815058593749996	2.025604248046875	-3.082275390625	-0.537872314453125	9.764751470947266	0.20231004028320312	0.3447650390625	0.06866455078125	-4.98199462890625	-2.78472900390625	10.1131078125	0.3184288208007812	-0.1867477294921875	3.597259521484375	-4.718780517578125	-1.8463134765625	
221	0.884	0.0	0.0	0.0	0.0	0.003	0.003	0.003	0.006	9.911396322631836	-0.5219359619140624	-0.03411737365722656	0.5035400390625	-2.37274169921875	-0.690460205078125	9.868899243164062	0.6488286499023437	0.03591302490234375	0.614166259765625	-4.848480224609375	-2.8839111328125	10.229226593017577	-0.48063598327636714	-0.5207388610839844	3.56292724609375	-4.35638427734375	-2.063751220703125	
222	0.888	0.0	0.0	0.0	0.0	0.003	0.003	0.003	0.006	9.816825357055663	0.12808978881835936	0.1197100830078125	2.99835205078125	-4.001617431640625	-0.90789794921875	9.739612353515625	0.15263035583496093	0.36930560607910157	-0.049591064453125	-4.85992431640625	-2.89154052734375	10.078391888427733	0.5386953735351562	-0.2059013427734375	3.48663330078125	-4.7760009765625	-1.80816650390625	
223	0.892	0.0	0.0	0.0	0.0	0.009000000000000001	0.003	0.003	0.006	9.937732540893554	-0.7637503295898437	-0.07302315063476562	0.255584716796875	-1.8463134765625	-0.67138671875	9.881468801879882	0.5051765502929687	0.029927520751953124	0.469207763671875	-4.894256591796875	-2.92205810546875	10.281300479125976	-0.7344213592529296	-0.5321113189697265	3.673553466796875	-4.78363037109375	-1.80816650390625	
224	0.896	0.0	0.0	0.0	0.0	-0.003	0.003	0.003	0.003	9.860519537353515	0.037708676147460936	0.05686228942871093	3.5247802734375	-4.085540771484375	-1.003265380859375	9.721655841064452	0.2424129180908203	0.3968389251708984	-0.423431396484375	-4.871368408203125	-2.758026123046875	10.090362896728514	0.5285200164794922	-0.20290859069824219	3.536224365234375	-4.791259765625	-2.269744873046875	
225	0.9	0.0	0.0	0.0	0.0	0.006	0.003	0.003	0.003	9.931747036743163	-0.5500678314208984	-0.10773907470703124	-0.2288818359375	-2.017974853515625	-0.530242919921875	9.83777462158203	0.48722003784179685	0.005985504150390624	0.96893310546875	-5.016326904296875	-2.9296875	9.975441217041014	-0.076614453125	-0.40402153015136716	3.528594970703125	-4.70733642578125	-1.953125	
226	0.904	0.0	0.0	0.0	0.0	0.009000000000000001	0.003	0.006	0.006	9.897031112670899	0.0005985504150390625	-0.027533319091796873	3.658294677734375	-4.18853759765625	-1.190185546875	9.747393508911133	0.28490999755859375	0.21607669982910155	0.3204345703125	-4.82940673828125	-2.887725830078125	10.101735354614258	0.34715924072265625	-0.21188684692382811	3.6773681640625	-4.650115966796875	-2.15911865234375	
227	0.908	0.0	0.0	0.0	0.0	0.006	0.006	0.003	0.003	9.867103591918944	-0.06284779357910156	0.09576806640624999	3.757476806640625	-4.627227783203125	-0.843048095703125	9.907206469726562	0.4531026641845703	-0.03172317199707031	0.51116943359375	-4.89044189453125	-3.162384033203125	10.062829577636718	-0.2454056701660156	-0.4339490509033203	3.54766845703125	-4.63104248046875	-2.17437744140625	
228	0.912	0.0	0.0	0.0	0.0	0.006	0.003	0.003	0.006	9.918578927612304	0.18614917907714842	-0.1083376251220703	3.803253173828125	-4.192352294921875	-1.02996826171875	9.737816702270507	0.31543606872558594	0.2280477081298828	0.23651123046875	-5.0048828125	-2.910614013671875	9.861716638183593	0.3842693664550781	-0.13347674255371092	3.7841796875	-4.79888916015625	-2.452850341796875	
229	0.916	0.0	0.0	0.0	0.0	0.006	0.006	0.003	0.003	9.836577520751952	0.059256491088867186	0.10474632263183593	4.46319580078125	-4.993438720703125	-0.370025634765625	9.860519537353515	0.4752490295410156	-0.017357962036132813	0.1983642578125	-5.107879638671875	-3.0364990234375	9.99160207824707	-0.4572925170898437	-0.4165910888671875	3.60107421875	-4.650115966796875	-1.71661376953125	
230	0.92	0.0	0.0	0.0	0.0	0.006	0.003	0.006	0.003	9.958681805419921	0.1322796417236328	-0.16340426330566404	4.69970703125	-4.016876220703125	-1.140594482421875	9.77432827758789	0.32022447204589843	0.2214636535644531	0.087738037109375	-4.787445068359375	-2.8228759765625	9.90900212097168	0.18614917907714842	-0.15442600708007811	3.62396240234375	-4.547119140625	-2.681732177734375	
231	0.924	0.0	0.0	0.0	0.0	0.003	0.006	0.003	0.003	9.83897172241211	-0.08559270935058594	0.09995791931152344	3.86810302734375	-4.604339599609375	-0.408172607421875	9.74859060974121	0.3315969299316406	0.11432312927246092	0.530242919921875	-5.184173583984375	-3.07464599609375	9.871891995239258	0.10714052429199218	-0.17597382202148437	3.719329833984375	-4.642486572265625	-1.65557861328125	
232	0.928	0.0	0.0	0.0	0.0	0.003	0.003	0.003	0.006	9.829394915771484	-0.11192892761230468	0.05087678527832031	3.89862060546875	-4.43267822265625	-0.835418701171875	9.70369932861328	0.39264907226562495	0.20350714111328125	0.66375732421875	-4.6539306640625	-3.0059814453125	9.82460651245117	0.18614917907714842	-0.16041151123046873	3.536224365234375	-4.932403564453125	-2.63214111328125	
233	0.932	0.0	0.0	0.0	0.0	0.003	0.003	0.006	0.006	9.8449572265625	0.14903905334472656	0.07841010437011718	4.4708251953125	-4.993438720703125	-1.06048583984375	9.740809454345703	0.40940848388671874	0.0909796630859375	0.18310546875	-5.04302978515625	-2.960205078125	9.85094273071289	0.21009119567871093	-0.17357962036132812	3.74603271484375	-4.970550537109375	-1.85394287109375	
234	0.936	0.0	0.0	0.0	0.0	0.006	0.003	0.003	0.003	9.83238766784668	-0.40940848388671874	0.08200140686035155	3.25775146484375	-4.177093505859375	-0.942230224609375	9.70968483276367	0.3890577697753906	0.1227028350830078	0.17547607421875	-4.634857177734375	-2.765655517578125	9.891644158935547	0.04608838195800781	-0.2759317413330078	3.818511962890625	-4.344940185546875	-2.437591552734375	
235	0.9400000000000001	0.0	0.0	0.0	0.0	0.006	0.003	0.003	0.003	9.97903251953125	-0.41419688720703124	-0.19572598571777342	1.5869140625	-2.925872802734375	-0.92315673828125	9.719860189819336	0.4836287353515625	0.059256491088867186	0.19073486328125	-5.184173583984375	-2.99072265625	9.812036953735351	0.2723404388427734	-0.1693897674560547	3.643035888671875	-4.60052490234375	-1.804351806640625	
236	0.9440000000000001	0.0	0.0	0.0	0.0	0.006	0.003	0.003	0.003	9.812036953735351	-0.11791443176269531	0.13467384338378904	3.894805908203125	-4.489898681640625	-0.789642333984375	9.647435589599608	0.4034229797363281	0.1484405029296875	0.446319580078125	-4.8980712890625	-3.0059814453125	9.90840357055664	-0.21607669982910155	-0.2280477081298828	3.711700439453125	-4.302978515625	-2.32696533203125	
237	0.9480000000000001	0.0	0.0	0.0	0.0	0.006	0.003	0.003	0.006	9.964667309570311	-0.46627077331542965	-0.15502455749511718	2.490997314453125	-3.631591796875	-1.0833740234375	9.835380419921874	0.35793314819335936	0.08200140686035155	0.4730224609375	-5.0201416015625	-2.9296875	9.875483297729492	0.2454056701660156	-0.14903905334472656	3.54766845703125	-4.703521728515625	-1.911163330078125	
238	0.9520000000000001	0.0	0.0	0.0	0.0	0.006	0.003	0.003	0.0	9.811438403320311	-0.2292448089599609	0.17776947326660156	4.169464111328125	-4.669189453125	-0.6866455078125	9.660603698730467	0.412401235961914	0.13347674255371092	0.049591064453125	-4.520416259765625	-3.0975341796875	9.981426721191406	-0.2166752502441406	-0.2555810272216797	3.749847412109375	-4.604339599609375	-2.262115478515625	
239	0.9560000000000001	0.0	0.0	0.0	0.0	0.003	0.003	0.003	0.006	9.930549935913085	-0.4375403533935547	-0.11911153259277343	1.827239990234375	-3.51715087890625	-0.606536865234375	9.76175871887207	0.3842693664550781	0.09457096557617187	0.469207763671875	-5.138397216796875	-2.834320068359375	9.96047745666504	0.30466216125488277	-0.06763619689941405	3.47900390625	-4.45556640625	-2.05230712890625	
240	0.96	0.0	0.0	0.0	0.0	0.006	0.003	0.003	0.003	9.903615167236328	-0.18315642700195311	-0.09157821350097656	1.73187255859375	-3.1280517578125	-0.79345703125	9.896432562255859	0.5045779998779296	0.05087678527832031	0.6561279296875	-4.863739013671875	-2.63214111328125	10.016142645263672	-0.21906945190429686	-0.2699462371826172	3.7384033203125	-4.55474853515625	-2.25067138671875	
241	0.964	0.0	0.0	0.0	0.0	0.003	0.006	0.003	0.003	9.96586441040039	-0.36930560607910157	-0.09516951599121093	2.529144287109375	-3.79180908203125	-0.911712646484375	9.828197814941406	0.3441664886474609	0.06344634399414062	0.54168701171875	-5.481719970703125	-3.04412841796875	10.071209283447265	0.19692308654785154	-0.11073182678222655	3.658294677734375	-4.695892333984375	-2.288818359375	
242	0.968	0.0	0.0	0.0	0.0	0.003	0.006	0.003	0.003	9.871891995239258	-0.27832594299316404	-0.08858546142578125	1.54876708984375	-2.98309326171875	-0.827789306640625	9.866505041503906	0.5392939239501953	0.05566518859863281	0.637054443359375	-4.840850830078125	-2.719879150390625	10.210072979736328	0.004189852905273437	-0.4608838195800781	3.7689208984375	-4.528045654296875	-1.953125	
243	0.972	0.0	0.0	0.0	0.0	0.003	0.003	0.003	0.003	9.89523546142578	-0.43993455505371093	0.0383072265625	2.44903564453125	-3.307342529296875	-0.87738037109375	9.73661960144043	0.45010991210937495	0.5333084197998047	-0.408172607421875	-4.810333251953125	-2.689361572265625	9.993996279907225	0.19931728820800781	-0.07302315063476562	3.41796875	-4.642486572265625	-2.170562744140625	
244	0.976	0.0	0.0	0.0	0.0	0.006	0.003	0.003	0.003	9.890447058105469	-0.30466216125488277	-0.105344873046875	0.675201416015625	-2.532958984375	-1.0528564453125	9.906009368896484	0.5195417602539062	0.07122749938964844	0.9002685546875	-4.76837158203125	-2.902984619140625	10.294468588256835	0.04548983154296875	-0.4991910461425781	3.48663330078125	-4.451751708984375	-1.86920166015625	
245	0.98	0.0	0.0	0.0	0.0	0.003	0.003	0.006	0.006	9.710881933593749	0.2549824768066406	0.4165910888671875	2.41851806640625	-3.27301025390625	-0.946044921875	9.777919580078125	0.44592005920410155	0.5195417602539062	-0.08392333984375	-5.176544189453125	-2.95257568359375	10.079588989257813	0.058657940673828124	-0.1562216583251953	3.7994384765625	-4.589080810546875	-2.246856689453125	
246	0.984	0.0	0.0	0.0	0.0	0.006	0.006	0.003	0.003	9.86351228942871	-0.26276363220214843	-0.08319850769042968	0.614166259765625	-2.506256103515625	-1.010894775390625	9.887454306030273	0.5668272430419922	-0.04967968444824218	0.7171630859375	-4.730224609375	-2.872467041015625	10.17056865234375	0.105344873046875	-0.3920505218505859	3.8604736328125	-4.49371337890625	-1.79290771484375	
247	0.988	0.0	0.0	0.0	0.0	0.003	0.003	0.003	0.006	9.7162688873291	0.09157821350097656	0.38845921936035155	1.76239013671875	-3.11279296875	-0.690460205078125	9.788693487548828	0.41898529052734373	0.5213374114990235	-0.408172607421875	-5.039215087890625	-2.765655517578125	10.032902056884765	0.055066638183593745	-0.10594342346191406	3.574371337890625	-4.5623779296875	-2.101898193359375	
248	0.992	0.0	0.0	0.0	0.0	0.003	0.003	0.003	0.003	9.8694977935791	0.20350714111328125	0.24301146850585936	0.873565673828125	-2.471923828125	-0.946044921875	9.992799179077148	0.5009866973876953	-0.09636661682128905	0.8087158203125	-4.7454833984375	-3.078460693359375	10.29865844116211	0.047285482788085934	-0.42497079467773435	3.734588623046875	-4.5318603515625	-2.025604248046875	
249	0.996	0.0	0.0	0.0	0.0	0.003	0.003	0.006	0.006	9.685742816162108	0.0939724151611328	0.3890577697753906	1.5869140625	-2.742767333984375	-0.530242919921875	9.657012396240233	0.5255272644042969	0.36571430358886714	-0.22125244140625	-4.795074462890625	-3.009796142578125	10.015544094848632	0.034715924072265626	-0.09337386474609374	3.44085693359375	-4.665374755859375	-2.269744873046875	
250	1.0	0.0	0.0	0.0	0.0	0.003	0.006	0.003	0.006	9.835380419921874	0.23702596435546874	0.32082302246093747	0.64849853515625	-2.31170654296875	-0.621795654296875	9.909600671386718	0.5189432098388671	-0.020949264526367185	0.579833984375	-4.573822021484375	-2.857208251953125	10.013748443603514	0.20350714111328125	-0.3507505432128906	3.620147705078125	-4.749298095703125	-1.941680908203125	
251	1.004	0.0	0.0	0.0	0.0	0.006	0.006	0.006	0.003	9.69771382446289	0.00239420166015625	0.3381809844970703	1.4801025390625	-2.735137939453125	-0.873565673828125	9.688735568237304	0.5057751007080078	0.36930560607910157	-0.09918212890625	-4.730224609375	-3.192901611328125	10.071209283447265	0.0047884033203125	-0.07841010437011718	3.635406494140625	-4.756927490234375	-2.41851806640625	
252	1.008	0.0	0.0	0.0	0.0	0.006	0.003	0.006	0.006	9.903016616821288	0.23044190979003906	0.2328361114501953	0.728607177734375	-2.2430419921875	-0.789642333984375	9.962871658325195	0.4339490509033203	-0.06883329772949218	0.030517578125	-4.72259521484375	-2.956390380859375	10.082581741333007	0.09157821350097656	-0.32561142578124996	3.54766845703125	-4.81414794921875	-2.094268798828125	
253	1.012	0.0	0.0	0.0	0.0	0.006	0.003	0.003	0.003	9.913191973876952	-0.011971008300781249	0.008978256225585938	3.753662109375	-4.39453125	-1.194000244140625	9.616909518432617	0.5458779785156249	0.3854664672851562	-0.171661376953125	-4.772186279296875	-2.964019775390625	9.77432827758789	-0.06823474731445311	-0.07900865478515624	3.692626953125	-4.57763671875	-2.307891845703125	
254	1.016	0.0	0.0	0.0	0.0	0.003	0.003	0.003	0.003	9.90122096557617	0.09576806640624999	0.21068974609375	0.80108642578125	-2.368927001953125	-0.507354736328125	9.798270294189452	0.2549824768066406	0.15562310791015624	-0.064849853515625	-4.924774169921875	-2.895355224609375	10.032303506469725	0.08379705810546874	-0.2699462371826172	3.66973876953125	-4.795074462890625	-1.8310546875	
255	1.02	0.0	0.0	0.0	0.0	0.006	0.003	0.003	0.006	9.950302099609374	-0.04129997863769531	0.02454056701660156	4.131317138671875	-4.634857177734375	-0.965118408203125	9.706093530273437	0.4339490509033203	0.3896563201904297	-0.0152587890625	-4.84466552734375	-2.925872802734375	9.859322436523437	-0.12509703674316405	-0.04369418029785156	3.658294677734375	-4.425048828125	-2.2430419921875	
256	1.024	0.0	0.0	0.0	0.0	0.006	0.003	0.003	0.006	9.907206469726562	-0.016160861206054686	0.1352723937988281	0.751495361328125	-2.0599365234375	-0.865936279296875	9.805452899169921	0.3178302703857422	0.1562216583251953	0.1068115234375	-4.9591064453125	-3.063201904296875	9.87727894897461	0.10354922180175781	-0.14185644836425781	3.60107421875	-4.60052490234375	-2.41851806640625	
257	1.028	0.0	0.0	0.0	0.0	0.006	0.003	0.003	4.548	9.894038360595703	0.19033903198242186	0.0796072052001953	4.11224365234375	-4.5318603515625	-0.881195068359375	9.575609539794922	0.411802685546875	0.3274070770263672	0.255584716796875	-4.711151123046875	-3.139495849609375	9.70968483276367	-0.03411737365722656	0.028730419921875	3.814697265625	-4.52423095703125	-2.201080322265625	
258	1.032	0.0	0.0	0.0	0.0	4.587	4.644	4.647	4.605	9.925162982177733	-0.12330138549804687	-0.05566518859863281	5.016326904296875	-5.60760498046875	-1.18255615234375	9.868899243164062	0.25438392639160157	0.05087678527832031	0.28228759765625	-4.913330078125	-3.1585693359375	9.888651406860351	0.12988544006347655	-0.1352723937988281	3.696441650390625	-4.863739013671875	-2.124786376953125	
259	1.036	0.0	0.0	0.0	0.0	4.6080000000000005	4.647	4.647	4.6080000000000005	9.925162982177733	-0.105344873046875	0.0383072265625	4.322052001953125	-4.669189453125	-0.6866455078125	9.648034140014648	0.4112041351318359	0.31543606872558594	0.26702880859375	-4.459381103515625	-3.4027099609375	9.791686239624022	-0.13407529296874998	0.022146365356445312	3.56292724609375	-4.5013427734375	-2.3956298828125	
260	1.04	0.0	0.0	0.0	0.0	4.602	4.647	4.644	4.614	9.889249957275391	0.06464344482421874	0.03232172241210937	4.9896240234375	-5.462646484375	-0.90789794921875	9.777321029663085	0.2328361114501953	0.047884033203124995	0.225067138671875	-4.8980712890625	-2.3651123046875	9.79348189086914	0.1640028137207031	-0.11432312927246092	3.696441650390625	-4.581451416015625	-2.44903564453125	
261	1.044	0.0	0.0	0.0	0.0	4.614	4.65	4.6530000000000005	4.602	9.896432562255859	-0.1131260284423828	0.017357962036132813	4.505157470703125	-4.467010498046875	-0.652313232421875	9.634267480468749	0.507570751953125	0.258573779296875	0.156402587890625	-4.444122314453125	-2.872467041015625	9.974244116210937	-0.08738836059570312	-0.3962403747558593	3.528594970703125	-4.43267822265625	-2.086639404296875	
262	1.048	0.0	0.0	0.0	0.0	4.614	4.65	4.6530000000000005	4.593	9.964667309570311	-0.0652419952392578	-0.07003039855957031	4.207611083984375	-5.0048828125	-0.720977783203125	9.826402163696288	0.14544775085449219	0.06763619689941405	0.217437744140625	-5.069732666015625	-2.613067626953125	9.987412225341796	0.0796072052001953	-0.22505495605468748	3.60870361328125	-4.69970703125	-2.254486083984375	
263	1.052	0.0	0.0	0.0	0.0	4.62	4.647	4.647	4.59	9.91438907470703	-0.3112462158203125	-0.06344634399414062	4.89044189453125	-4.87518310546875	-1.16729736328125	9.834183319091796	0.4423287567138672	0.040701428222656245	0.431060791015625	-4.7454833984375	-2.99072265625	10.008960040283203	-0.15322890625	-0.39863457641601563	3.803253173828125	-4.367828369140625	-2.071380615234375	
264	1.056	0.0	0.0	0.0	0.0	4.617	4.641	4.65	4.605	9.89583401184082	-0.14724340209960937	0.033518823242187495	4.665374755859375	-4.93621826171875	-0.89263916015625	9.686939916992188	0.2885013000488281	0.17417817077636719	0.446319580078125	-5.11932373046875	-2.8533935546875	9.896432562255859	0.12330138549804687	-0.058657940673828124	3.48663330078125	-4.581451416015625	-1.956939697265625	
265	1.06	0.0	0.0	0.0	0.0	4.6080000000000005	4.6530000000000005	4.65	4.611	9.926360083007811	-0.20769699401855468	-0.06344634399414062	4.352569580078125	-4.6234130859375	-0.74005126953125	9.853336932373047	0.3705027069091797	0.07541735229492187	0.545501708984375	-4.73785400390625	-2.83050537109375	10.095151300048828	-0.20530279235839843	-0.4423287567138672	3.79180908203125	-4.52423095703125	-2.246856689453125	
266	1.064	0.0	0.0	0.0	0.0	4.6080000000000005	4.65	4.647	4.605	9.861118087768554	-0.2693476867675781	0.1801636749267578	4.558563232421875	-4.8980712890625	-1.16729736328125	9.879673150634765	0.2765302917480469	0.21727380065917967	0.0762939453125	-5.153656005859375	-2.689361572265625	10.096348400878906	0.002992752075195312	-0.16639701538085935	3.604888916015625	-4.67681884765625	-2.208709716796875	
267	1.068	0.0	0.0	0.0	0.0	4.602	4.647	4.644	4.614	9.890447058105469	-0.2914940521240234	-0.018555062866210937	5.352020263671875	-5.14984130859375	-0.919342041015625	9.737218151855469	0.46208092041015625	0.13168109130859373	0.45013427734375	-4.734039306640625	-3.009796142578125	10.189722265624999	-0.037708676147460936	-0.5416881256103515	3.620147705078125	-4.5318603515625	-1.972198486328125	
268	1.072	0.0	0.0	0.0	0.0	4.614	4.65	4.6530000000000005	4.596	9.798868844604492	-0.13646949462890623	0.2693476867675781	3.986358642578125	-4.405975341796875	-0.293731689453125	9.814431155395507	0.33758243408203126	0.239420166015625	-0.041961669921875	-4.856109619140625	-2.4566650390625	10.020332498168944	0.0909796630859375	-0.14784195251464843	3.6468505859375	-4.749298095703125	-1.8310546875	
269	1.076	0.0	0.0	0.0	0.0	4.614	4.65	4.6530000000000005	4.587	9.93952819213867	0.037708676147460936	-0.11013327636718749	5.374908447265625	-5.451202392578125	-0.96893310546875	10.078391888427733	0.3591302490234375	-0.2316390106201172	0.6561279296875	-4.974365234375	-2.8533935546875	10.413580120849609	-0.18435352783203124	-0.6183025787353515	3.8299560546875	-4.5623779296875	-1.972198486328125	
270	1.08	0.0	0.0	0.0	0.0	4.614	4.644	4.65	4.593	9.79348189086914	-0.3537432952880859	0.21607669982910155	4.726409912109375	-4.657745361328125	-1.03759765625	9.801861596679688	0.35613749694824215	0.15263035583496093	0.408172607421875	-5.05828857421875	-2.52532958984375	9.983820922851562	0.16998831787109375	-0.24480711975097655	3.658294677734375	-4.642486572265625	-2.52532958984375	
271	1.084	0.0	0.0	0.0	0.0	4.614	4.641	4.65	4.599	9.918578927612304	-0.36691140441894526	-0.14544775085449219	-0.38909912109375	-1.9989013671875	-0.339508056640625	9.860519537353515	0.5063736511230469	-0.07003039855957031	0.598907470703125	-4.4708251953125	-2.719879150390625	10.189722265624999	-0.022744915771484374	-0.5662286926269531	3.6163330078125	-4.451751708984375	-1.773834228515625	
272	1.088	0.0	0.0	0.0	0.0	4.611	4.65	4.65	4.6080000000000005	9.835380419921874	0.06105214233398437	0.1927332336425781	4.791259765625	-5.1422119140625	-0.896453857421875	9.911396322631836	0.297479556274414	0.11372457885742186	0.270843505859375	-5.207061767578125	-2.819061279296875	10.102333905029296	0.016759411621093748	-0.17477672119140625	3.826141357421875	-4.779815673828125	-2.26593017578125	
273	1.092	0.0	0.0	0.0	0.0	4.6080000000000005	4.65	4.65	4.611	9.944316595458984	-0.51714755859375	-0.15502455749511718	0.942230224609375	-2.44903564453125	-1.201629638671875	10.011952792358398	0.42018239135742186	-0.2328361114501953	0.728607177734375	-4.901885986328125	-2.73895263671875	10.306439596557617	-0.062249243164062495	-0.6021417175292968	3.849029541015625	-4.596710205078125	-1.80816650390625	
274	1.096	0.0	0.0	0.0	0.0	4.605	4.65	4.644	4.614	9.682151513671874	-0.48063598327636714	0.33099837951660155	-1.9989013671875	-0.720977783203125	-0.453948974609375	9.547477670288085	0.6266822845458984	0.35134909362792965	-0.118255615234375	-5.008697509765625	-3.185272216796875	9.912593423461914	0.1484405029296875	-0.14724340209960937	3.543853759765625	-4.50897216796875	-2.399444580078125	
275	1.1	0.0	0.0	0.0	0.0	4.614	4.65	4.6530000000000005	4.593	9.949104998779296	-0.4171896392822265	-0.14125789794921875	-2.227783203125	-0.514984130859375	-0.255584716796875	9.947907897949218	0.4590881683349609	-0.07242460021972656	0.606536865234375	-4.8828125	-2.742767333984375	10.086173043823242	0.17058686828613281	-0.33698388366699217	3.4942626953125	-4.7149658203125	-1.522064208984375	
276	1.104	0.0	0.0	0.0	0.0	4.614	4.647	4.6530000000000005	4.5840000000000005	9.813832604980469	0.15682020874023436	0.14604630126953125	1.674652099609375	-2.826690673828125	-1.239776611328125	9.715071786499022	0.517746109008789	0.2519897247314453	0.18310546875	-4.695892333984375	-3.0670166015625	10.132859976196288	-0.005985504150390624	-0.19153613281249998	3.734588623046875	-4.67681884765625	-2.246856689453125	
277	1.108	0.0	0.0	0.0	0.0	4.62	4.647	2.331	0.003	9.84555577697754	-0.2454056701660156	0.004189852905273437	0.66375732421875	-2.1820068359375	-1.5869140625	9.74799205932617	0.43035774841308594	0.15981296081542967	0.377655029296875	-4.779815673828125	-3.276824951171875	10.016142645263672	0.22385785522460935	-0.33399113159179683	3.5400390625	-4.772186279296875	-1.842498779296875	
278	1.112	0.0	0.0	0.0	0.0	0.006	0.003	0.006	0.006	9.760561618041992	-0.7092822418212891	0.18734627990722655	-3.326416015625	0.110626220703125	-0.38909912109375	9.592368951416015	0.622492431640625	0.41359833679199215	-0.05340576171875	-5.11932373046875	-2.8839111328125	9.688137017822266	-0.031124621582031248	0.02154781494140625	3.65447998046875	-4.657745361328125	-2.117156982421875	
279	1.116	0.0	0.0	0.0	0.0	0.003	0.003	0.003	0.003	10.011354241943359	0.7230489013671875	-0.05566518859863281	2.277374267578125	-3.177642822265625	-0.42724609375	9.846154327392577	0.30406361083984373	0.20769699401855468	0.324249267578125	-4.871368408203125	-3.25775146484375	10.204686026000976	0.08259995727539061	-0.3962403747558593	3.6773681640625	-4.787445068359375	-2.010345458984375	
280	1.12	0.0	0.0	0.0	0.0	0.003	0.006	0.003	0.003	9.9078050201416	0.6524199523925781	-0.0053869537353515625	1.895904541015625	-2.86102294921875	-1.53350830078125	9.747393508911133	0.43574470214843747	0.2041056915283203	0.507354736328125	-4.451751708984375	-3.345489501953125	9.809642752075195	-0.09516951599121093	-0.03890577697753906	3.482818603515625	-4.299163818359375	-2.307891845703125	
281	1.124	0.0	0.0	0.0	0.0	0.003	0.003	0.006	0.006	9.868300692749022	0.003591302490234375	0.10773907470703124	3.528594970703125	-4.291534423828125	-1.422882080078125	9.702502227783203	0.4147954376220703	0.2753331909179687	0.30517578125	-4.970550537109375	-2.956390380859375	9.95987890625	0.24121581726074218	-0.2747346405029297	3.688812255859375	-4.520416259765625	-2.506256103515625	
282	1.1280000000000001	0.0	0.0	0.0	0.0	0.006	0.003	0.006	0.003	9.82520506286621	-0.7535749725341796	0.14484920043945312	-1.125335693359375	-1.064300537109375	-0.980377197265625	9.717465988159178	0.4896142395019531	0.28790274963378903	0.17547607421875	-4.978179931640625	-3.292083740234375	9.84555577697754	-0.08439560852050781	-0.013766659545898436	3.749847412109375	-4.84466552734375	-2.315521240234375	
283	1.1320000000000001	0.0	0.0	0.0	0.0	0.003	0.006	0.003	0.006	10.06881508178711	0.21068974609375	-0.16759411621093748	1.308441162109375	-2.777099609375	-0.1068115234375	9.790489138793944	0.2561795776367187	0.15442600708007811	0.156402587890625	-4.734039306640625	-2.716064453125	9.905410818481444	0.07781155395507812	-0.04908113403320312	3.70025634765625	-4.566192626953125	-2.37274169921875	
284	1.1360000000000001	0.0	0.0	0.0	0.0	0.003	0.006	0.003	0.003	9.923965881347655	0.8080430603027343	0.11851298217773437	9.349822998046875	-7.781982421875	-1.529693603515625	9.635464581298828	0.5380968231201172	0.2753331909179687	0.83160400390625	-4.535675048828125	-3.292083740234375	9.70369932861328	0.05626373901367187	0.04129997863769531	3.604888916015625	-4.20379638671875	-2.12860107421875	
285	1.1400000000000001	0.0	0.0	0.0	0.0	0.009000000000000001	0.006	0.003	0.003	9.95987890625	0.8008604553222656	-0.005985504150390624	7.6446533203125	-6.8359375	-1.743316650390625	9.655815295410155	0.3591302490234375	0.2819172454833984	0.392913818359375	-4.9591064453125	-2.50244140625	9.76116016845703	0.16759411621093748	0.03531447448730469	3.498077392578125	-4.543304443359375	-2.288818359375	
286	1.1440000000000001	0.0	0.0	0.0	0.0	0.003	0.003	0.003	0.0	9.855731134033203	-0.6290764862060546	0.28730419921875	4.60052490234375	-4.825592041015625	-0.77056884765625	9.879673150634765	0.35314474487304687	0.1083376251220703	-0.133514404296875	-4.63104248046875	-3.0670166015625	10.04846436767578	-0.029328970336914062	-0.23223756103515625	3.7841796875	-4.425048828125	-2.109527587890625	
287	1.1480000000000001	0.0	0.0	0.0	0.0	0.006	0.006	0.003	0.003	9.90122096557617	-0.33578678283691404	0.0526724365234375	2.00653076171875	-3.314971923828125	-0.331878662109375	9.670180505371093	0.3333925811767578	0.20709844360351562	0.17547607421875	-5.05828857421875	-3.082275390625	9.791087689208984	0.076614453125	-0.04369418029785156	3.59344482421875	-4.52423095703125	-2.559661865234375	
288	1.1520000000000001	0.0	0.0	0.0	0.0	0.003	0.006	0.003	0.003	9.951499200439452	0.1867477294921875	0.12629413757324218	4.215240478515625	-4.734039306640625	0.011444091796875	9.759963067626952	0.46686932373046874	0.14245499877929688	0.537872314453125	-4.726409912109375	-3.108978271484375	9.855731134033203	0.143652099609375	-0.16280571289062498	3.6163330078125	-4.436492919921875	-1.9683837890625	
289	1.156	0.0	0.0	0.0	0.0	0.003	0.006	0.003	0.006	9.963470208740233	0.10714052429199218	0.031124621582031248	8.380889892578125	-7.472991943359375	-1.285552978515625	9.827000714111328	0.3938461730957031	0.20649989318847656	-0.095367431640625	-4.909515380859375	-2.368927001953125	10.097545501708984	-0.04249707946777344	-0.1753752716064453	3.787994384765625	-4.734039306640625	-1.861572265625	
290	1.16	0.0	0.0	0.0	0.0	0.003	0.003	0.003	0.006	10.026318002319336	0.23582886352539062	0.0005985504150390625	9.8419189453125	-8.159637451171875	-1.31988525390625	9.865307940673828	0.3525461944580078	0.06284779357910156	0.35858154296875	-4.75311279296875	-3.078460693359375	10.046070166015625	0.05686228942871093	-0.27174188842773433	3.772735595703125	-4.37164306640625	-2.3040771484375	
291	1.164	0.0	0.0	0.0	0.0	0.006	0.006	0.006	0.003	9.769539874267577	-0.6548141540527344	0.28012159423828126	4.261016845703125	-4.917144775390625	-1.1444091796875	9.707889181518555	0.4584896179199218	0.2657563842773437	-0.072479248046875	-4.6539306640625	-2.64739990234375	9.97244846496582	0.016160861206054686	-0.16879121704101563	3.60870361328125	-4.79888916015625	-1.834869384765625	
292	1.168	0.0	0.0	0.0	0.0	0.006	0.003	0.003	0.003	9.752780462646484	-0.5943605621337891	0.08439560852050781	-2.29644775390625	-0.484466552734375	-0.453948974609375	9.836577520751952	0.3363853332519531	0.029927520751953124	0.766754150390625	-4.924774169921875	-2.9144287109375	9.992799179077148	0.14125789794921875	-0.2501940734863281	3.66973876953125	-4.566192626953125	-2.13623046875	
293	1.172	0.0	0.0	0.0	0.0	0.006	0.003	0.003	0.003	9.85692823486328	-0.6171054779052734	0.15382745666503905	2.49481201171875	-3.51715087890625	-0.96893310546875	9.87608184814453	0.39444472351074217	0.12210428466796874	0.141143798828125	-5.1422119140625	-2.40325927734375	10.200496173095702	-0.11851298217773437	-0.22864625854492185	3.753662109375	-4.695892333984375	-2.048492431640625	
294	1.176	0.0	0.0	0.0	0.0	0.003	0.003	0.003	0.006	9.880870251464843	-0.5811924530029297	-0.09935936889648436	-1.087188720703125	-1.300811767578125	-0.782012939453125	9.892841259765625	0.4423287567138672	0.012569558715820313	0.621795654296875	-4.924774169921875	-2.857208251953125	10.251971508789062	0.07242460021972656	-0.4961982940673828	3.74603271484375	-4.37164306640625	-2.368927001953125	
295	1.18	0.0	0.0	0.0	0.0	0.006	0.003	0.003	0.003	9.853336932373047	-0.7996633544921875	0.08858546142578125	1.979827880859375	-3.314971923828125	-0.732421875	9.7162688873291	0.43634325256347656	0.24061726684570311	0.20599365234375	-4.9591064453125	-2.719879150390625	9.97903251953125	-0.020350714111328123	-0.10474632263183593	3.89862060546875	-4.75311279296875	-1.88446044921875	
296	1.184	0.0	0.0	0.0	0.0	0.003	0.003	0.003	0.003	9.865307940673828	-0.6015431671142578	-0.011971008300781249	-0.49591064453125	-1.5716552734375	-0.415802001953125	9.969455712890625	0.39743747558593745	-0.004189852905273437	1.049041748046875	-5.168914794921875	-2.941131591796875	10.309432348632813	0.0053869537353515625	-0.4578910675048828	3.482818603515625	-4.451751708984375	-2.155303955078125	
297	1.188	0.0	0.0	0.0	0.0	0.006	0.006	0.006	0.003	9.578003741455078	0.23882161560058593	0.6218938812255859	0.6561279296875	-1.7242431640625	-0.820159912109375	9.721057290649414	0.5297171173095703	0.3920505218505859	0.5035400390625	-5.035400390625	-3.017425537109375	10.159794744873047	0.05805939025878906	-0.08259995727539061	3.437042236328125	-4.306793212890625	-2.002716064453125	
298	1.192	0.0	0.0	0.0	0.0	0.003	0.003	0.006	0.006	9.713276135253906	-0.20470424194335937	0.25737667846679685	-0.46539306640625	-1.476287841796875	-1.125335693359375	9.85094273071289	0.5147533569335937	0.09457096557617187	1.09100341796875	-5.176544189453125	-2.81524658203125	10.152612139892577	0.1274912384033203	-0.41419688720703124	3.673553466796875	-4.3792724609375	-2.147674560546875	
299	1.196	0.0	0.0	0.0	0.0	0.003	0.006	0.003	0.003	9.557653027343749	0.17956512451171874	0.6057330200195312	-1.007080078125	-0.873565673828125	-0.86212158203125	9.668983404541015	0.5285200164794922	0.4584896179199218	0.408172607421875	-4.901885986328125	-3.021240234375	10.078990438842773	0.13646949462890623	-0.07900865478515624	3.597259521484375	-4.848480224609375	-1.86920166015625	
300	1.2	0.0	0.0	0.0	0.0	0.006	0.003	0.003	0.006	9.76116016845703	-0.36691140441894526	0.1693897674560547	0.640869140625	-2.277374267578125	-0.858306884765625	9.85692823486328	0.34057518615722654	0.23702596435546874	0.0152587890625	-4.9285888671875	-3.326416015625	10.165780249023436	-0.16340426330566404	-0.5428852264404297	3.7078857421875	-4.680633544921875	-2.185821533203125	
301	1.204	0.0	0.0	0.0	0.0	0.003	0.003	0.006	0.006	9.64623848876953	0.5147533569335937	0.5123591552734374	-0.77056884765625	-1.255035400390625	-0.67901611328125	9.60793126220703	0.5925649108886718	0.5363011718749999	0.26702880859375	-4.787445068359375	-2.99072265625	10.043675964355469	0.19213468322753904	-0.0909796630859375	3.337860107421875	-4.43267822265625	-1.941680908203125	
302	1.208	0.0	0.0	0.0	0.0	0.006	0.003	0.003	0.006	10.005368737792969	0.5291185668945312	-0.10714052429199218	3.0670166015625	-3.88336181640625	-1.003265380859375	9.804255798339844	0.3860650177001953	0.22086510314941404	-0.19073486328125	-4.852294921875	-3.116607666015625	9.980828170776366	-0.0718260498046875	-0.4896142395019531	3.51715087890625	-4.913330078125	-2.197265625	
303	1.212	0.0	0.0	0.0	0.0	0.003	0.003	0.003	0.003	9.788693487548828	0.4381389038085937	0.2980781066894531	0.4119873046875	-1.96075439453125	-1.148223876953125	9.833584768676758	0.3746925598144531	0.05626373901367187	-0.08392333984375	-4.779815673828125	-2.6702880859375	10.156203442382813	0.07900865478515624	-0.14484920043945312	3.772735595703125	-4.650115966796875	-2.124786376953125	
304	1.216	0.0	0.0	0.0	0.0	0.006	0.006	0.003	0.003	10.115502014160155	0.4004302276611328	-0.3495534423828125	4.75311279296875	-4.974365234375	-0.90789794921875	9.82520506286621	0.3274070770263672	0.239420166015625	-0.3204345703125	-4.871368408203125	-3.101348876953125	9.950302099609374	-0.1466448516845703	-0.4483142608642578	3.345489501953125	-4.486083984375	-2.361297607421875	
305	1.22	0.0	0.0	0.0	0.0	0.006	0.006	0.006	0.006	9.97843396911621	-0.1801636749267578	-0.24480711975097655	8.6212158203125	-7.610321044921875	-0.885009765625	9.720458740234374	0.4495113616943359	0.13467384338378904	0.40435791015625	-4.787445068359375	-2.8076171875	9.700706576538085	0.2693476867675781	-0.037708676147460936	3.82232666015625	-4.703521728515625	-2.25067138671875	
306	1.224	0.0	0.0	0.0	0.0	0.003	0.003	0.003	0.009000000000000001	10.117297665405273	0.3399766357421875	-0.37768531188964843	7.381439208984375	-7.05718994140625	-0.946044921875	9.724648593139648	0.18614917907714842	-0.08499415893554688	0.339508056640625	-4.79888916015625	-2.61688232421875	10.03050785522461	-0.24001871643066405	-0.5051765502929687	3.570556640625	-4.955291748046875	-2.288818359375	
