	time	dac1	dac2	dac3	dac4	adc1.3	adc2.3	adc3.3	adc4.3	imu1accx	imu1accy	imu1accz	imu1gyrox	imu1gyroy	imu1gyroz	imu2accx	imu2accy	imu2accz	imu2gyrox	imu2gyroy	imu2gyroz	imu3accx	imu3accy	imu3accz	imu3gyrox	imu3gyroy	imu3gyroz	log
0	0.0	0.0	0.0	0.0	0.0	4.605	4.641	4.641	4.578	9.871293444824218	0.14125789794921875	0.09157821350097656	2.727508544921875	-3.818511962890625	-0.8544921875	9.782707983398437	0.17836802368164062	0.1801636749267578	0.339508056640625	-4.8980712890625	-2.849578857421875	10.002375985717773	-0.03232172241210937	-0.20290859069824219	3.673553466796875	-4.558563232421875	-2.1209716796875	Estabilizou em 10s, 2320 rpm
1	0.004	0.0	0.0	0.0	0.0	4.602	4.638	4.638	4.572	9.88386300354004	0.06943184814453125	0.054468087768554684	2.5634765625	-3.810882568359375	-0.827789306640625	9.784503634643555	0.2615665313720703	0.14903905334472656	0.579833984375	-4.9285888671875	-3.063201904296875	9.9981861328125	0.031124621582031248	-0.25139117431640623	3.833770751953125	-4.5928955078125	-2.25067138671875	Started
2	0.008	0.0	0.0	0.0	0.0	4.602	4.635	4.638	4.587	9.888052856445311	0.10773907470703124	0.06284779357910156	2.765655517578125	-3.70025634765625	-0.7476806640625	9.787496386718749	0.2825157958984375	0.1610100616455078	0.37384033203125	-4.8370361328125	-2.8076171875	9.9981861328125	0.07900865478515624	-0.2549824768066406	3.780364990234375	-4.69207763671875	-2.193450927734375	IMU1|LSM6DS3|0x6A|I2C-1|±2g (±19,6m/s²)|±125º/s|400Hz
3	0.012	0.0	0.0	0.0	0.0	4.599	4.641	4.641	4.602	9.910199221801758	0.07841010437011718	0.058657940673828124	2.4871826171875	-3.467559814453125	-0.90789794921875	9.803058697509766	0.2555810272216797	0.15023615417480468	0.316619873046875	-4.726409912109375	-2.742767333984375	10.03050785522461	0.047285482788085934	-0.26276363220214843	3.765106201171875	-4.60052490234375	-2.0599365234375	IMU2|LSM6DS3|0x6B|I2C-1|±2g (±19,6m/s²)|±125º/s|400Hz
4	0.016	0.0	0.0	0.0	0.0	4.599	4.641	4.641	4.593	9.935936889648437	0.10414777221679687	0.03172317199707031	2.666473388671875	-3.57818603515625	-0.7171630859375	9.822212310791015	0.3010708587646484	0.10594342346191406	0.392913818359375	-4.76837158203125	-2.948760986328125	10.053252770996092	0.0796072052001953	-0.29927520751953124	3.871917724609375	-4.756927490234375	-2.05230712890625	IMU3|LSM6DS3|0x6B|I2C-2|±2g (±19,6m/s²)|±125º/s|400Hz
5	0.02	0.0	0.0	0.0	0.0	4.59	4.638	4.638	4.602	9.900023864746093	0.11133037719726561	0.03232172241210937	2.5787353515625	-3.7841796875	-0.74005126953125	9.785700735473633	0.29568390502929687	0.1227028350830078	0.301361083984375	-4.53948974609375	-2.902984619140625	10.008361489868163	0.10175357055664062	-0.2962824554443359	3.803253173828125	-4.7149658203125	-2.05230712890625	ADC|ADS1015|0|0|1|0|±6,144 V|2400 SPS
6	0.024	0.0	0.0	0.0	0.0	4.602	4.638	4.641	4.5840000000000005	9.836577520751952	0.07541735229492187	0.061650692749023434	2.811431884765625	-3.54766845703125	-0.77056884765625	9.744999307250977	0.2424129180908203	0.13467384338378904	0.087738037109375	-4.993438720703125	-2.880096435546875	9.968857162475585	0.04369418029785156	-0.2771288421630859	3.7384033203125	-4.665374755859375	-2.002716064453125	Gen1|Disabled
7	0.028	0.0	0.0	0.0	0.0	4.599	4.641	4.641	4.566	9.841365924072266	0.09756371765136718	0.03890577697753906	2.74658203125	-3.566741943359375	-0.766754150390625	9.758765966796874	0.29448680419921874	0.1131260284423828	0.32806396484375	-4.886627197265625	-2.925872802734375	9.973047015380859	0.05805939025878906	-0.30346506042480464	3.56292724609375	-4.505157470703125	-2.32696533203125	Gen2|Enabled|Noise|0.0|10.0|1668
8	0.032	0.0	0.0	0.0	0.0	4.605	4.638	4.638	4.575	9.890447058105469	0.11791443176269531	0.017357962036132813	2.674102783203125	-3.681182861328125	-0.87738037109375	9.791686239624022	0.29448680419921874	0.11731588134765625	0.2593994140625	-4.726409912109375	-2.605438232421875	10.022128149414062	0.0909796630859375	-0.30705636291503907	3.658294677734375	-4.680633544921875	-2.269744873046875	Gen3|Enabled|Noise|0.0|10.0|128
9	0.036000000000000004	0.0	0.0	0.0	0.0	4.605	4.635	4.641	4.59	9.903615167236328	0.08918401184082031	0.05087678527832031	2.574920654296875	-3.662109375	-1.010894775390625	9.791686239624022	0.2561795776367187	0.1227028350830078	0.278472900390625	-4.852294921875	-2.92205810546875	10.017938296508788	0.052073886108398436	-0.2855085479736328	3.589630126953125	-4.4097900390625	-2.25067138671875	Gen4|Enabled|Noise|0.0|10.0|128
10	0.04	0.0	0.0	0.0	0.0	4.596	4.641	4.641	4.599	9.903016616821288	0.09995791931152344	0.047884033203124995	2.536773681640625	-3.513336181640625	-0.896453857421875	9.801861596679688	0.2962824554443359	0.12808978881835936	0.28228759765625	-4.764556884765625	-2.918243408203125	10.016142645263672	0.08319850769042968	-0.27293898925781246	3.60107421875	-4.82177734375	-2.14385986328125	Ctrl|Disabled
11	0.044	0.0	0.0	0.0	0.0	4.599	4.641	4.638	4.593	9.878476049804688	0.09816226806640624	0.047285482788085934	2.437591552734375	-3.7384033203125	-0.6256103515625	9.783905084228515	0.2819172454833984	0.143652099609375	0.34332275390625	-5.02777099609375	-2.819061279296875	10.001178884887695	0.07841010437011718	-0.2645592834472656	3.77655029296875	-4.73785400390625	-2.040863037109375	
12	0.048	0.0	0.0	0.0	0.0	4.587	4.638	4.638	4.602	9.862315188598632	0.06763619689941405	0.0652419952392578	2.597808837890625	-3.376007080078125	-0.736236572265625	9.78031378173828	0.23642741394042968	0.1693897674560547	0.293731689453125	-5.0048828125	-2.811431884765625	9.98501802368164	0.033518823242187495	-0.23403321228027343	3.406524658203125	-4.52423095703125	-2.094268798828125	
13	0.052000000000000005	0.0	0.0	0.0	0.0	4.602	4.638	4.641	4.587	9.893439810180663	0.08918401184082031	0.07003039855957031	2.5177001953125	-3.92913818359375	-0.885009765625	9.791686239624022	0.27293898925781246	0.16340426330566404	0.3509521484375	-4.703521728515625	-2.86865234375	10.019733947753906	0.06464344482421874	-0.20530279235839843	3.559112548828125	-4.547119140625	-1.987457275390625	
14	0.056	0.0	0.0	0.0	0.0	4.602	4.641	4.641	4.572	9.91438907470703	0.06883329772949218	0.07422025146484375	2.66265869140625	-3.604888916015625	-0.77056884765625	9.815029705810547	0.2567781280517578	0.16280571289062498	0.431060791015625	-5.092620849609375	-2.826690673828125	10.037690460205077	0.05027823486328125	-0.21487959899902342	3.696441650390625	-4.55474853515625	-2.376556396484375	
15	0.06	0.0	0.0	0.0	0.0	4.602	4.638	4.641	4.575	9.91438907470703	0.0430956298828125	0.07302315063476562	2.490997314453125	-3.45611572265625	-0.827789306640625	9.79946739501953	0.22206220397949217	0.17477672119140625	0.52642822265625	-4.730224609375	-2.81524658203125	10.02332525024414	-0.002992752075195312	-0.20231004028320312	3.5400390625	-4.46319580078125	-2.017974853515625	
16	0.064	0.0	0.0	0.0	0.0	4.605	4.635	4.641	4.59	9.865906491088866	0.04668693237304687	0.08858546142578125	2.750396728515625	-3.406524658203125	-0.84686279296875	9.770736975097655	0.22744915771484372	0.18914193115234373	0.3814697265625	-4.878997802734375	-2.73895263671875	9.98561657409668	0.02633621826171875	-0.18555062866210936	3.948211669921875	-4.764556884765625	-2.2430419921875	
17	0.068	0.0	0.0	0.0	0.0	4.602	4.641	4.641	4.596	9.854534033203125	0.04189852905273437	0.07541735229492187	2.483367919921875	-3.4637451171875	-0.77056884765625	9.763554370117188	0.22565350646972654	0.17836802368164062	0.255584716796875	-4.863739013671875	-2.849578857421875	9.982623822021484	0.0143652099609375	-0.2059013427734375	3.856658935546875	-4.619598388671875	-2.0904541015625	
18	0.07200000000000001	0.0	0.0	0.0	0.0	4.599	4.638	4.638	4.596	9.871891995239258	0.02454056701660156	0.09157821350097656	2.712249755859375	-3.54766845703125	-0.77056884765625	9.783905084228515	0.19931728820800781	0.18255787658691405	0.629425048828125	-4.726409912109375	-2.8076171875	9.995791931152343	-0.008978256225585938	-0.21009119567871093	3.696441650390625	-4.604339599609375	-2.063751220703125	
19	0.076	0.0	0.0	0.0	0.0	4.5840000000000005	4.638	4.635	4.602	9.90122096557617	0.0430956298828125	0.11073182678222655	2.933502197265625	-3.71551513671875	-0.797271728515625	9.79946739501953	0.2262520568847656	0.19393033447265623	0.186920166015625	-4.92095947265625	-2.72369384765625	10.027515103149414	0.02154781494140625	-0.20231004028320312	3.7994384765625	-4.72259521484375	-2.09808349609375	
20	0.08	0.0	0.0	0.0	0.0	4.602	4.638	4.641	4.578	9.903615167236328	0.037708676147460936	0.1005564697265625	2.758026123046875	-3.30352783203125	-0.78582763671875	9.80006594543457	0.229843359375	0.1879448303222656	0.40435791015625	-4.85992431640625	-2.872467041015625	10.028113653564452	0.025139117431640625	-0.22565350646972654	3.85284423828125	-4.894256591796875	-2.193450927734375	
21	0.084	0.0	0.0	0.0	0.0	4.605	4.638	4.641	4.569	9.886855755615233	0.04129997863769531	0.10414777221679687	2.681732177734375	-3.54766845703125	-0.8087158203125	9.787496386718749	0.2328361114501953	0.1753752716064453	0.370025634765625	-4.84466552734375	-2.72369384765625	10.01733974609375	0.009576806640625	-0.24181436767578124	3.94439697265625	-4.871368408203125	-2.155303955078125	
22	0.088	0.0	0.0	0.0	0.0	4.605	4.638	4.641	4.578	9.865307940673828	0.040701428222656245	0.10474632263183593	2.69317626953125	-3.387451171875	-0.80108642578125	9.781510882568359	0.22086510314941404	0.18375497741699218	0.286102294921875	-4.878997802734375	-2.819061279296875	9.995193380737303	0.010175357055664061	-0.2292448089599609	3.688812255859375	-4.82940673828125	-2.20489501953125	
23	0.092	0.0	0.0	0.0	0.0	4.602	4.632	4.641	4.587	9.873687646484374	0.04249707946777344	0.09576806640624999	2.58636474609375	-3.34930419921875	-0.74005126953125	9.781510882568359	0.21428104858398436	0.17238251953125	0.396728515625	-4.955291748046875	-3.040313720703125	10.00417163696289	0.0005985504150390625	-0.21787235107421873	3.7078857421875	-4.657745361328125	-2.28118896484375	
24	0.096	0.0	0.0	0.0	0.0	4.599	4.641	4.641	4.593	9.906009368896484	0.040701428222656245	0.08559270935058594	2.376556396484375	-3.66973876953125	-0.823974609375	9.803058697509766	0.2214636535644531	0.1753752716064453	0.1373291015625	-4.852294921875	-2.70843505859375	10.022128149414062	0.00718260498046875	-0.21487959899902342	3.50189208984375	-4.486083984375	-2.147674560546875	
25	0.1	0.0	0.0	0.0	0.0	4.593	4.638	4.638	4.599	9.906009368896484	0.03232172241210937	0.11133037719726561	2.582550048828125	-3.482818603515625	-0.690460205078125	9.802460147094726	0.20769699401855468	0.19213468322753904	0.186920166015625	-4.932403564453125	-2.819061279296875	10.025120901489258	-0.008978256225585938	-0.21009119567871093	3.60870361328125	-4.535675048828125	-2.140045166015625	
26	0.10400000000000001	0.0	0.0	0.0	0.0	4.587	4.641	4.635	4.596	9.873687646484374	0.016759411621093748	0.10714052429199218	2.60162353515625	-3.742218017578125	-0.751495361328125	9.787496386718749	0.1867477294921875	0.20709844360351562	0.247955322265625	-4.901885986328125	-3.032684326171875	10.016142645263672	-0.02154781494140625	-0.21248539733886718	3.86810302734375	-4.817962646484375	-2.29644775390625	
27	0.108	0.0	0.0	0.0	0.0	4.596	4.641	4.641	4.575	9.86291373901367	0.020350714111328123	0.1005564697265625	2.57110595703125	-3.30352783203125	-0.95367431640625	9.776722479248047	0.20530279235839843	0.17776947326660156	0.316619873046875	-4.6844482421875	-2.819061279296875	9.986813674926758	-0.005985504150390624	-0.21727380065917967	3.833770751953125	-4.89044189453125	-2.010345458984375	
28	0.112	0.0	0.0	0.0	0.0	4.602	4.638	4.638	4.569	9.85752678527832	0.010175357055664061	0.10773907470703124	2.64739990234375	-3.59344482421875	-0.762939453125	9.769539874267577	0.19093758239746092	0.19333178405761717	0.32806396484375	-4.840850830078125	-2.90679931640625	9.995791931152343	-0.02154781494140625	-0.21128829650878905	3.757476806640625	-4.425048828125	-2.117156982421875	
29	0.116	0.0	0.0	0.0	0.0	4.602	4.635	4.641	4.587	9.883264453125	0.0017956512451171875	0.09995791931152344	2.567291259765625	-3.536224365234375	-0.98419189453125	9.78689783630371	0.17657237243652343	0.1927332336425781	0.19073486328125	-5.001068115234375	-2.750396728515625	10.01733974609375	-0.027533319091796873	-0.19153613281249998	3.566741943359375	-4.7149658203125	-2.231597900390625	
30	0.12	0.0	0.0	0.0	0.0	4.602	4.641	4.641	4.593	9.906009368896484	0.02633621826171875	0.08439560852050781	2.460479736328125	-3.833770751953125	-0.682830810546875	9.805452899169921	0.21727380065917967	0.18614917907714842	0.026702880859375	-4.69207763671875	-2.758026123046875	10.017938296508788	0.0047884033203125	-0.19692308654785154	3.8299560546875	-4.73785400390625	-2.223968505859375	
31	0.124	0.0	0.0	0.0	0.0	4.599	4.641	4.641	4.59	9.894038360595703	0.03411737365722656	0.09935936889648436	2.6397705078125	-3.63922119140625	-0.797271728515625	9.809044201660155	0.20530279235839843	0.19033903198242186	0.408172607421875	-4.92095947265625	-2.849578857421875	10.01075569152832	-0.0005985504150390625	-0.19692308654785154	3.673553466796875	-4.46319580078125	-2.08282470703125	
32	0.128	0.0	0.0	0.0	0.0	4.593	4.638	4.641	4.599	9.871891995239258	0.020949264526367185	0.08559270935058594	2.498626708984375	-3.620147705078125	-0.736236572265625	9.783905084228515	0.1975216369628906	0.1801636749267578	0.560760498046875	-4.962921142578125	-2.86102294921875	9.996390481567381	-0.022146365356445312	-0.20470424194335937	3.65447998046875	-4.619598388671875	-1.9989013671875	
33	0.132	0.0	0.0	0.0	0.0	4.599	4.641	4.632	4.587	9.871293444824218	0.03890577697753906	0.0652419952392578	2.67791748046875	-3.490447998046875	-1.033782958984375	9.785102185058593	0.22026655273437498	0.16340426330566404	0.60272216796875	-5.062103271484375	-2.92205810546875	9.995791931152343	0.009576806640625	-0.21787235107421873	3.681182861328125	-4.5928955078125	-2.25830078125	
34	0.136	0.0	0.0	0.0	0.0	4.596	4.641	4.641	4.572	9.878476049804688	0.04848258361816406	0.054468087768554684	2.811431884765625	-3.742218017578125	-0.762939453125	9.785102185058593	0.2262520568847656	0.1610100616455078	0.4425048828125	-4.6234130859375	-2.872467041015625	10.002974536132811	0.025737667846679687	-0.2292448089599609	3.673553466796875	-4.608154296875	-2.2125244140625	
35	0.14	0.0	0.0	0.0	0.0	4.6080000000000005	4.635	4.638	4.572	9.885658654785155	0.04848258361816406	0.04848258361816406	2.643585205078125	-3.35693359375	-0.743865966796875	9.789890588378906	0.22086510314941404	0.15203180541992187	0.518798828125	-4.8370361328125	-2.93731689453125	10.022128149414062	0.022744915771484374	-0.24121581726074218	3.711700439453125	-4.7149658203125	-2.0294189453125	
36	0.14400000000000002	0.0	0.0	0.0	0.0	4.602	4.635	4.641	4.587	9.897629663085937	0.06883329772949218	0.047884033203124995	2.941131591796875	-3.7689208984375	-0.858306884765625	9.791087689208984	0.2609679809570312	0.13347674255371092	0.51116943359375	-4.82940673828125	-2.838134765625	10.022726699829102	0.0430956298828125	-0.26815058593749996	3.88336181640625	-4.650115966796875	-2.338409423828125	
37	0.148	0.0	0.0	0.0	0.0	4.602	4.641	4.641	4.593	9.875483297729492	0.08559270935058594	0.020949264526367185	2.716064453125	-3.4332275390625	-0.79345703125	9.785102185058593	0.27353753967285155	0.1197100830078125	0.492095947265625	-5.016326904296875	-2.7923583984375	10.01733974609375	0.05805939025878906	-0.2807201446533203	3.803253173828125	-4.749298095703125	-2.2125244140625	
38	0.152	0.0	0.0	0.0	0.0	4.599	4.641	4.638	4.593	9.87727894897461	0.08200140686035155	0.02633621826171875	2.6702880859375	-3.5247802734375	-0.766754150390625	9.782707983398437	0.2723404388427734	0.11133037719726561	0.431060791015625	-5.035400390625	-2.8228759765625	10.011354241943359	0.06584054565429687	-0.29568390502929687	3.7078857421875	-4.6844482421875	-2.26593017578125	
39	0.156	0.0	0.0	0.0	0.0	4.5840000000000005	4.638	4.638	4.602	9.882067352294921	0.10893617553710937	0.033518823242187495	2.54058837890625	-3.498077392578125	-0.87738037109375	9.78629928588867	0.28431144714355466	0.10175357055664062	0.32806396484375	-4.650115966796875	-2.95257568359375	10.01733974609375	0.08319850769042968	-0.31663316955566406	3.79180908203125	-4.67681884765625	-2.017974853515625	
40	0.16	0.0	0.0	0.0	0.0	4.602	4.638	4.638	4.587	9.89523546142578	0.11671733093261719	0.017357962036132813	2.635955810546875	-3.734588623046875	-0.69427490234375	9.795876092529296	0.3022679595947265	0.08798691101074219	0.171661376953125	-4.833221435546875	-2.628326416015625	10.019733947753906	0.09636661682128905	-0.32561142578124996	3.864288330078125	-4.970550537109375	-2.132415771484375	
41	0.164	0.0	0.0	0.0	0.0	4.599	4.641	4.641	4.575	9.897629663085937	0.11851298217773437	0.016160861206054686	2.5787353515625	-3.60870361328125	-0.7476806640625	9.80006594543457	0.2950853546142578	0.0987608184814453	0.213623046875	-4.840850830078125	-2.895355224609375	10.020931048583984	0.08200140686035155	-0.32082302246093747	3.505706787109375	-4.45556640625	-1.86920166015625	
42	0.168	0.0	0.0	0.0	0.0	4.605	4.638	4.641	4.572	9.890447058105469	0.1131260284423828	0.01915361328125	2.3651123046875	-3.429412841796875	-0.934600830078125	9.787496386718749	0.2980781066894531	0.10893617553710937	0.3204345703125	-4.848480224609375	-2.90679931640625	10.015544094848632	0.08858546142578125	-0.2998737579345703	3.83758544921875	-4.7149658203125	-2.2125244140625	
43	0.17200000000000001	0.0	0.0	0.0	0.0	4.605	4.635	4.641	4.593	9.878476049804688	0.09816226806640624	0.025139117431640625	2.5634765625	-3.2806396484375	-0.720977783203125	9.785102185058593	0.28730419921875	0.08738836059570312	0.23651123046875	-4.85992431640625	-2.712249755859375	10.005368737792969	0.08200140686035155	-0.28909985046386716	3.452301025390625	-4.848480224609375	-2.223968505859375	
44	0.176	0.0	0.0	0.0	0.0	4.599	4.641	4.641	4.596	9.87668039855957	0.0909796630859375	0.031124621582031248	2.437591552734375	-3.604888916015625	-0.873565673828125	9.782707983398437	0.28730419921875	0.12569558715820311	0.213623046875	-4.638671875	-2.681732177734375	10.001178884887695	0.06943184814453125	-0.2813186950683594	3.627777099609375	-4.61578369140625	-2.105712890625	
45	0.18	0.0	0.0	0.0	0.0	4.596	4.641	4.638	4.599	9.882067352294921	0.09337386474609374	0.054468087768554684	2.437591552734375	-3.68499755859375	-0.873565673828125	9.782707983398437	0.2855085479736328	0.13347674255371092	0.32806396484375	-4.871368408203125	-2.849578857421875	10.012551342773437	0.06464344482421874	-0.26216508178710934	3.589630126953125	-4.63104248046875	-2.353668212890625	
46	0.184	0.0	0.0	0.0	0.0	4.59	4.638	4.638	4.605	9.889249957275391	0.08978256225585937	0.04608838195800781	2.44903564453125	-3.4637451171875	-0.7171630859375	9.805452899169921	0.2711433380126953	0.1406593475341797	0.225067138671875	-5.02777099609375	-2.826690673828125	10.016142645263672	0.06105214233398437	-0.2346317626953125	3.6163330078125	-4.4708251953125	-2.2430419921875	
47	0.188	0.0	0.0	0.0	0.0	4.605	4.638	4.641	4.5840000000000005	9.888052856445311	0.0939724151611328	0.0652419952392578	2.399444580078125	-3.635406494140625	-0.873565673828125	9.80066449584961	0.2753331909179687	0.14305354919433594	-0.00762939453125	-4.8370361328125	-2.84576416015625	10.018536846923828	0.06045359191894531	-0.23044190979003906	3.574371337890625	-4.669189453125	-2.147674560546875	
48	0.192	0.0	0.0	0.0	0.0	4.599	4.641	4.641	4.575	9.880870251464843	0.07481880187988281	0.07841010437011718	2.574920654296875	-3.582000732421875	-0.7171630859375	9.78629928588867	0.2567781280517578	0.17238251953125	0.308990478515625	-4.852294921875	-2.643585205078125	9.995791931152343	0.055066638183593745	-0.21428104858398436	3.66973876953125	-4.5623779296875	-2.338409423828125	
49	0.196	0.0	0.0	0.0	0.0	4.605	4.638	4.638	4.578	9.880870251464843	0.07362170104980469	0.0718260498046875	2.513885498046875	-3.60870361328125	-0.78582763671875	9.787496386718749	0.24301146850585936	0.18076222534179687	0.518798828125	-5.069732666015625	-2.92205810546875	10.004770187377929	0.04129997863769531	-0.2154781494140625	3.376007080078125	-4.46319580078125	-2.1209716796875	
50	0.2	0.0	0.0	0.0	0.0	4.605	4.632	4.641	4.593	9.886257205200195	0.06344634399414062	0.08439560852050781	2.826690673828125	-3.631591796875	-0.81634521484375	9.78689783630371	0.24660277099609373	0.18614917907714842	0.0152587890625	-5.0506591796875	-2.73895263671875	10.00955859069824	0.04369418029785156	-0.19153613281249998	3.570556640625	-4.66156005859375	-2.31170654296875	
51	0.20400000000000001	0.0	0.0	0.0	0.0	4.599	4.641	4.641	4.593	9.886257205200195	0.06284779357910156	0.0987608184814453	2.429962158203125	-3.513336181640625	-0.728607177734375	9.789292037963866	0.2442085693359375	0.19931728820800781	0.40435791015625	-4.657745361328125	-2.780914306640625	10.008361489868163	0.04608838195800781	-0.18315642700195311	3.673553466796875	-4.66156005859375	-2.197265625	
52	0.20800000000000002	0.0	0.0	0.0	0.0	4.599	4.638	4.641	4.596	9.885658654785155	0.044292730712890624	0.09516951599121093	2.765655517578125	-3.7384033203125	-0.8697509765625	9.789890588378906	0.23582886352539062	0.19213468322753904	0.217437744140625	-4.924774169921875	-2.89154052734375	10.008361489868163	0.04189852905273437	-0.19632453613281248	3.787994384765625	-4.787445068359375	-2.201080322265625	
53	0.212	0.0	0.0	0.0	0.0	4.59	4.641	4.638	4.599	9.87727894897461	0.05027823486328125	0.11552023010253906	2.8076171875	-3.490447998046875	-0.835418701171875	9.776123928833007	0.23582886352539062	0.19393033447265623	-0.057220458984375	-4.7149658203125	-2.81524658203125	10.000580334472655	0.03531447448730469	-0.20290859069824219	3.711700439453125	-4.688262939453125	-2.0904541015625	
54	0.216	0.0	0.0	0.0	0.0	4.599	4.641	4.641	4.578	9.871293444824218	0.059256491088867186	0.1131260284423828	2.498626708984375	-3.559112548828125	-0.545501708984375	9.779116680908203	0.23523031311035156	0.19871873779296872	0.499725341796875	-4.94384765625	-2.716064453125	9.998784683227539	0.03411737365722656	-0.20709844360351562	3.387451171875	-4.482269287109375	-2.02178955078125	
55	0.22	0.0	0.0	0.0	0.0	4.605	4.641	4.641	4.572	9.878476049804688	0.05985504150390625	0.11851298217773437	2.7313232421875	-3.4332275390625	-0.812530517578125	9.783905084228515	0.22744915771484372	0.20290859069824219	0.240325927734375	-4.703521728515625	-2.75421142578125	9.9981861328125	0.027533319091796873	-0.21248539733886718	3.5400390625	-4.543304443359375	-2.292633056640625	
56	0.224	0.0	0.0	0.0	0.0	4.602	4.635	4.638	4.581	9.892841259765625	0.05686228942871093	0.10474632263183593	2.58636474609375	-3.631591796875	-0.850677490234375	9.789292037963866	0.2316390106201172	0.19572598571777342	0.316619873046875	-4.894256591796875	-2.67791748046875	10.01075569152832	0.030526071166992186	-0.21009119567871093	3.635406494140625	-4.688262939453125	-2.185821533203125	
57	0.228	0.0	0.0	0.0	0.0	4.602	4.635	4.641	4.587	9.891045608520507	0.054468087768554684	0.12210428466796874	2.54058837890625	-3.74603271484375	-0.728607177734375	9.801861596679688	0.22445640563964842	0.19033903198242186	0.55694580078125	-5.092620849609375	-2.83050537109375	10.01733974609375	0.020350714111328123	-0.20829554443359374	3.833770751953125	-4.69970703125	-2.2430419921875	
58	0.232	0.0	0.0	0.0	0.0	4.599	4.641	4.641	4.596	9.885060104370117	0.044292730712890624	0.12030863342285156	2.597808837890625	-3.753662109375	-0.6561279296875	9.791087689208984	0.21966800231933592	0.18914193115234373	0.141143798828125	-4.993438720703125	-2.8839111328125	10.001777435302733	0.013766659545898436	-0.2154781494140625	3.41796875	-4.73785400390625	-2.0599365234375	
59	0.23600000000000002	0.0	0.0	0.0	0.0	4.593	4.638	4.641	4.599	9.879673150634765	0.04189852905273437	0.11133037719726561	2.681732177734375	-3.566741943359375	-0.96893310546875	9.787496386718749	0.21428104858398436	0.19033903198242186	0.362396240234375	-4.7607421875	-2.742767333984375	10.01015714111328	0.013766659545898436	-0.2154781494140625	3.780364990234375	-4.64630126953125	-2.193450927734375	
60	0.24	0.0	0.0	0.0	0.0	4.59	4.638	4.635	4.599	9.885658654785155	0.03172317199707031	0.12629413757324218	2.674102783203125	-3.4332275390625	-0.823974609375	9.785102185058593	0.20350714111328125	0.19931728820800781	0.255584716796875	-5.107879638671875	-2.902984619140625	10.01015714111328	0.0017956512451171875	-0.2041056915283203	3.505706787109375	-4.608154296875	-2.1820068359375	
61	0.244	0.0	0.0	0.0	0.0	4.599	4.644	4.641	4.581	9.891045608520507	0.03172317199707031	0.11372457885742186	2.429962158203125	-3.631591796875	-0.759124755859375	9.791087689208984	0.1945288848876953	0.20709844360351562	-0.1068115234375	-4.90570068359375	-2.84576416015625	10.00417163696289	-0.007781155395507812	-0.19871873779296872	3.54766845703125	-4.73785400390625	-2.06756591796875	
62	0.248	0.0	0.0	0.0	0.0	4.605	4.638	4.641	4.569	9.892841259765625	0.022744915771484374	0.0939724151611328	2.777099609375	-3.47137451171875	-0.812530517578125	9.796474642944336	0.19632453613281248	0.20290859069824219	0.255584716796875	-5.0201416015625	-2.918243408203125	10.01733974609375	-0.006584054565429687	-0.2041056915283203	3.7994384765625	-4.5318603515625	-2.208709716796875	
63	0.252	0.0	0.0	0.0	0.0	4.605	4.635	4.641	4.5840000000000005	9.885658654785155	0.013168109130859374	0.08858546142578125	2.719879150390625	-3.84521484375	-0.80108642578125	9.78629928588867	0.18914193115234373	0.18914193115234373	0.244140625	-4.8065185546875	-2.93731689453125	10.01015714111328	-0.01915361328125	-0.1927332336425781	3.421783447265625	-4.299163818359375	-2.18963623046875	
64	0.256	0.0	0.0	0.0	0.0	4.602	4.641	4.641	4.59	9.880271701049804	0.003591302490234375	0.08259995727539061	2.52532958984375	-3.429412841796875	-0.728607177734375	9.782707983398437	0.17896657409667968	0.19692308654785154	0.20599365234375	-4.72259521484375	-2.8839111328125	10.008960040283203	-0.02154781494140625	-0.1867477294921875	3.742218017578125	-4.61578369140625	-2.1820068359375	
65	0.26	0.0	0.0	0.0	0.0	4.599	4.641	4.641	4.596	9.874286196899414	0.0017956512451171875	0.08499415893554688	2.62451171875	-3.65447998046875	-0.7476806640625	9.777919580078125	0.18555062866210936	0.18854338073730467	0.3509521484375	-4.8065185546875	-2.841949462890625	9.996390481567381	-0.027533319091796873	-0.1927332336425781	3.963470458984375	-4.87518310546875	-2.22015380859375	
66	0.264	0.0	0.0	0.0	0.0	4.593	4.638	4.641	4.602	9.880870251464843	0.010175357055664061	0.08918401184082031	2.841949462890625	-3.826141357421875	-0.90789794921875	9.784503634643555	0.18555062866210936	0.17417817077636719	0.347137451171875	-4.791259765625	-3.021240234375	10.019733947753906	-0.020350714111328123	-0.2088940948486328	3.673553466796875	-4.795074462890625	-2.28118896484375	
67	0.268	0.0	0.0	0.0	0.0	4.602	4.641	4.632	4.593	9.87668039855957	0.0143652099609375	0.07003039855957031	2.6092529296875	-3.543853759765625	-0.6866455078125	9.788693487548828	0.18914193115234373	0.15562310791015624	0.392913818359375	-5.123138427734375	-2.925872802734375	10.005368737792969	-0.014963760375976562	-0.21607669982910155	3.68499755859375	-4.634857177734375	-2.155303955078125	
68	0.272	0.0	0.0	0.0	0.0	4.599	4.641	4.641	4.575	9.888052856445311	0.022146365356445312	0.06464344482421874	2.658843994140625	-3.631591796875	-0.67901611328125	9.791087689208984	0.20350714111328125	0.1580173095703125	0.35858154296875	-4.940032958984375	-2.666473388671875	10.011354241943359	-0.0005985504150390625	-0.24001871643066405	3.673553466796875	-4.67681884765625	-2.292633056640625	
69	0.276	0.0	0.0	0.0	0.0	4.605	4.638	4.641	4.569	9.879074600219726	0.032920272827148434	0.0526724365234375	2.658843994140625	-3.57818603515625	-0.949859619140625	9.78629928588867	0.2154781494140625	0.14484920043945312	0.324249267578125	-4.840850830078125	-2.895355224609375	10.01015714111328	0.012569558715820313	-0.24779987182617186	3.780364990234375	-4.474639892578125	-2.208709716796875	
70	0.28	0.0	0.0	0.0	0.0	4.599	4.632	4.641	4.59	9.878476049804688	0.03890577697753906	0.0526724365234375	2.513885498046875	-3.5400390625	-0.6256103515625	9.787496386718749	0.22026655273437498	0.12988544006347655	0.560760498046875	-4.802703857421875	-2.719879150390625	9.999383233642577	0.018555062866210937	-0.2567781280517578	4.00543212890625	-4.85992431640625	-2.101898193359375	
71	0.28400000000000003	0.0	0.0	0.0	0.0	4.599	4.641	4.641	4.593	9.880870251464843	0.04608838195800781	0.040102877807617184	2.86865234375	-3.765106201171875	-0.74005126953125	9.789890588378906	0.2280477081298828	0.12330138549804687	0.164031982421875	-4.6539306640625	-2.9144287109375	10.01015714111328	0.022744915771484374	-0.2771288421630859	3.482818603515625	-4.505157470703125	-2.05230712890625	
72	0.28800000000000003	0.0	0.0	0.0	0.0	4.602	4.641	4.641	4.593	9.894038360595703	0.06344634399414062	0.028131869506835935	2.765655517578125	-3.570556640625	-0.873565673828125	9.7928833404541	0.239420166015625	0.11552023010253906	0.385284423828125	-4.642486572265625	-2.63214111328125	10.011952792358398	0.03890577697753906	-0.2932897033691406	3.589630126953125	-4.85992431640625	-2.25067138671875	
73	0.292	0.0	0.0	0.0	0.0	4.59	4.638	4.638	4.605	9.884461553955077	0.0718260498046875	0.0430956298828125	2.559661865234375	-3.406524658203125	-0.591278076171875	9.794678991699218	0.25318682556152344	0.09816226806640624	0.12969970703125	-4.573822021484375	-2.9449462890625	10.01075569152832	0.047285482788085934	-0.28909985046386716	3.871917724609375	-4.58526611328125	-2.178192138671875	
74	0.296	0.0	0.0	0.0	0.0	4.605	4.641	4.641	4.59	9.890447058105469	0.08379705810546874	0.034715924072265626	2.58636474609375	-3.56292724609375	-0.804901123046875	9.798270294189452	0.2567781280517578	0.10714052429199218	0.2288818359375	-4.779815673828125	-2.899169921875	10.008960040283203	0.044891281127929686	-0.29927520751953124	3.82232666015625	-4.63104248046875	-2.277374267578125	
75	0.3	0.0	0.0	0.0	0.0	4.602	4.641	4.641	4.575	9.888052856445311	0.0939724151611328	0.028730419921875	2.468109130859375	-3.452301025390625	-0.911712646484375	9.794678991699218	0.2699462371826172	0.10175357055664062	0.4730224609375	-5.176544189453125	-2.58636474609375	10.006565838623047	0.05386953735351562	-0.31064766540527344	3.45611572265625	-4.55474853515625	-2.34222412109375	
76	0.304	0.0	0.0	0.0	0.0	4.605	4.638	4.638	4.572	9.875483297729492	0.09516951599121093	0.033518823242187495	2.613067626953125	-3.387451171875	-0.74005126953125	9.787496386718749	0.25797522888183594	0.10594342346191406	0.232696533203125	-4.81414794921875	-2.90679931640625	10.000580334472655	0.061650692749023434	-0.3010708587646484	3.86810302734375	-4.75311279296875	-2.15911865234375	
77	0.308	0.0	0.0	0.0	0.0	4.605	4.635	4.641	4.587	9.880870251464843	0.0909796630859375	0.0430956298828125	2.5482177734375	-3.482818603515625	-0.83160400390625	9.79946739501953	0.2699462371826172	0.11252747802734374	0.20599365234375	-4.76837158203125	-2.777099609375	10.011354241943359	0.05686228942871093	-0.2855085479736328	3.513336181640625	-4.5318603515625	-2.079010009765625	
78	0.312	0.0	0.0	0.0	0.0	4.599	4.644	4.644	4.596	9.889249957275391	0.09457096557617187	0.044292730712890624	2.685546875	-3.63922119140625	-0.81634521484375	9.791087689208984	0.2705447875976562	0.11611878051757812	0.072479248046875	-4.7760009765625	-2.9296875	10.022128149414062	0.0526724365234375	-0.2765302917480469	3.444671630859375	-4.459381103515625	-2.2430419921875	
79	0.316	0.0	0.0	0.0	0.0	4.599	4.641	4.641	4.593	9.889249957275391	0.08678981018066406	0.044292730712890624	2.437591552734375	-3.620147705078125	-0.9002685546875	9.785102185058593	0.26396073303222656	0.13467384338378904	0.110626220703125	-4.741668701171875	-2.674102783203125	10.007762939453125	0.05327098693847656	-0.2693476867675781	3.53240966796875	-4.82177734375	-2.23541259765625	
80	0.32	0.0	0.0	0.0	0.0	4.587	4.638	4.638	4.602	9.884461553955077	0.08140285644531249	0.040102877807617184	2.468109130859375	-3.5858154296875	-0.7476806640625	9.785102185058593	0.25797522888183594	0.1514332550048828	0.133514404296875	-4.89044189453125	-2.8076171875	9.998784683227539	0.054468087768554684	-0.25139117431640623	3.787994384765625	-4.764556884765625	-2.12860107421875	
81	0.324	0.0	0.0	0.0	0.0	4.602	4.638	4.641	4.587	9.880870251464843	0.08140285644531249	0.052073886108398436	2.513885498046875	-3.6163330078125	-0.86212158203125	9.783905084228515	0.2603694305419922	0.1514332550048828	0.270843505859375	-4.657745361328125	-2.87628173828125	10.002974536132811	0.05746083984375	-0.2454056701660156	3.62396240234375	-4.5623779296875	-2.0599365234375	
82	0.328	0.0	0.0	0.0	0.0	4.602	4.641	4.641	4.569	9.890447058105469	0.08379705810546874	0.04908113403320312	2.5482177734375	-3.505706787109375	-0.820159912109375	9.787496386718749	0.2537853759765625	0.1562216583251953	0.08392333984375	-4.795074462890625	-2.96783447265625	9.996989031982421	0.05686228942871093	-0.23223756103515625	3.444671630859375	-4.596710205078125	-1.972198486328125	
83	0.332	0.0	0.0	0.0	0.0	4.605	4.638	4.638	4.575	9.889848507690429	0.08678981018066406	0.06045359191894531	2.61688232421875	-3.467559814453125	-0.522613525390625	9.789890588378906	0.25797522888183594	0.15981296081542967	0.286102294921875	-5.046844482421875	-2.895355224609375	10.005967288208007	0.052073886108398436	-0.21128829650878905	3.60107421875	-4.69970703125	-2.12860107421875	
84	0.336	0.0	0.0	0.0	0.0	4.605	4.632	4.641	4.59	9.884461553955077	0.08140285644531249	0.0652419952392578	2.7008056640625	-3.437042236328125	-0.579833984375	9.79408044128418	0.25917232971191406	0.16220716247558592	0.3814697265625	-3.948211669921875	-2.96783447265625	10.008960040283203	0.05386953735351562	-0.2316390106201172	3.88336181640625	-4.817962646484375	-2.06756591796875	
85	0.34	0.0	0.0	0.0	0.0	4.602	4.644	4.641	4.596	9.884461553955077	0.07721300354003906	0.06883329772949218	2.674102783203125	-3.65447998046875	-0.736236572265625	9.789292037963866	0.2567781280517578	0.16759411621093748	0.545501708984375	-4.940032958984375	-2.811431884765625	9.999383233642577	0.04548983154296875	-0.2166752502441406	3.841400146484375	-4.66156005859375	-2.2430419921875	
86	0.34400000000000003	0.0	0.0	0.0	0.0	4.596	4.638	4.638	4.596	9.885060104370117	0.0718260498046875	0.08559270935058594	2.90679931640625	-3.566741943359375	-0.637054443359375	9.785102185058593	0.2519897247314453	0.17178396911621094	0.3204345703125	-4.657745361328125	-2.513885498046875	10.001777435302733	0.054468087768554684	-0.21487959899902342	3.917694091796875	-4.734039306640625	-2.3345947265625	
87	0.34800000000000003	0.0	0.0	0.0	0.0	4.59	4.638	4.635	4.602	9.881468801879882	0.07781155395507812	0.08858546142578125	2.498626708984375	-3.726959228515625	-0.751495361328125	9.78629928588867	0.25258827514648435	0.17357962036132812	0.324249267578125	-4.878997802734375	-2.87628173828125	9.996989031982421	0.05386953735351562	-0.2232593048095703	3.803253173828125	-4.528045654296875	-2.09808349609375	
88	0.352	0.0	0.0	0.0	0.0	4.602	4.641	4.641	4.5840000000000005	9.88386300354004	0.07601590270996093	0.10953472595214843	2.521514892578125	-3.612518310546875	-0.7476806640625	9.785102185058593	0.25438392639160157	0.17178396911621094	0.244140625	-4.75311279296875	-2.841949462890625	9.9981861328125	0.05087678527832031	-0.2214636535644531	3.73077392578125	-4.802703857421875	-2.1514892578125	
89	0.356	0.0	0.0	0.0	0.0	4.602	4.641	4.641	4.572	9.884461553955077	0.07302315063476562	0.09995791931152344	2.803802490234375	-3.8909912109375	-0.946044921875	9.779116680908203	0.25438392639160157	0.17417817077636719	-0.0152587890625	-4.970550537109375	-2.72369384765625	10.005967288208007	0.05087678527832031	-0.22385785522460935	3.68499755859375	-4.66156005859375	-2.185821533203125	
90	0.36	0.0	0.0	0.0	0.0	4.602	4.638	4.638	4.581	9.878476049804688	0.07242460021972656	0.11013327636718749	2.597808837890625	-3.620147705078125	-0.64849853515625	9.781510882568359	0.25318682556152344	0.1693897674560547	0.23651123046875	-5.1727294921875	-2.857208251953125	9.999981784057617	0.03890577697753906	-0.2184709014892578	3.742218017578125	-4.61578369140625	-2.223968505859375	
91	0.364	0.0	0.0	0.0	0.0	4.602	4.632	4.641	4.587	9.880870251464843	0.062249243164062495	0.10594342346191406	2.567291259765625	-3.70025634765625	-0.705718994140625	9.784503634643555	0.25318682556152344	0.16759411621093748	0.396728515625	-4.749298095703125	-2.8228759765625	9.999981784057617	0.04608838195800781	-0.22266075439453123	3.47137451171875	-4.405975341796875	-2.117156982421875	
92	0.368	0.0	0.0	0.0	0.0	4.599	4.641	4.644	4.593	9.874884747314452	0.06284779357910156	0.09816226806640624	2.47955322265625	-3.60107421875	-0.766754150390625	9.783306533813477	0.2472013214111328	0.181959326171875	0.537872314453125	-4.7760009765625	-2.78472900390625	10.00417163696289	0.033518823242187495	-0.22086510314941404	3.635406494140625	-4.680633544921875	-2.1209716796875	
93	0.372	0.0	0.0	0.0	0.0	4.599	4.638	4.641	4.599	9.874884747314452	0.061650692749023434	0.09696516723632811	2.696990966796875	-3.620147705078125	-0.7476806640625	9.781510882568359	0.23403321228027343	0.17657237243652343	0.0457763671875	-5.10406494140625	-2.9144287109375	10.005967288208007	0.01915361328125	-0.20530279235839843	3.60870361328125	-4.364013671875	-2.109527587890625	
94	0.376	0.0	0.0	0.0	0.0	4.59	4.641	4.635	4.599	9.879074600219726	0.051475335693359374	0.10654197387695312	2.521514892578125	-3.696441650390625	-0.74005126953125	9.78629928588867	0.2262520568847656	0.18136077575683593	0.35858154296875	-4.955291748046875	-2.933502197265625	10.00417163696289	0.020949264526367185	-0.2088940948486328	3.459930419921875	-4.70733642578125	-2.26593017578125	
95	0.38	0.0	0.0	0.0	0.0	4.599	4.641	4.641	4.581	9.888052856445311	0.0430956298828125	0.10175357055664062	2.452850341796875	-3.76129150390625	-0.797271728515625	9.784503634643555	0.2136824981689453	0.19093758239746092	0.247955322265625	-4.64630126953125	-2.727508544921875	10.011354241943359	0.010773907470703125	-0.21068974609375	3.631591796875	-4.66156005859375	-2.166748046875	
96	0.384	0.0	0.0	0.0	0.0	4.605	4.641	4.638	4.572	9.879074600219726	0.03950432739257812	0.09337386474609374	2.44140625	-3.528594970703125	-0.774383544921875	9.77432827758789	0.20709844360351562	0.19632453613281248	0.54168701171875	-4.924774169921875	-2.86865234375	9.9981861328125	0.005985504150390624	-0.19692308654785154	3.643035888671875	-4.657745361328125	-2.231597900390625	
97	0.388	0.0	0.0	0.0	0.0	4.602	4.638	4.641	4.5840000000000005	9.875483297729492	0.02693476867675781	0.10474632263183593	2.452850341796875	-3.612518310546875	-0.881195068359375	9.78629928588867	0.2041056915283203	0.20530279235839843	0.217437744140625	-4.8980712890625	-2.838134765625	10.001777435302733	0.0017956512451171875	-0.18914193115234373	3.704071044921875	-4.69970703125	-2.178192138671875	
98	0.392	0.0	0.0	0.0	0.0	4.602	4.644	4.641	4.593	9.880870251464843	0.017956512451171875	0.09457096557617187	2.628326416015625	-3.74603271484375	-0.81634521484375	9.78689783630371	0.20051438903808594	0.19512743530273435	0.1068115234375	-4.856109619140625	-2.7313232421875	10.008361489868163	0.0	-0.19033903198242186	3.482818603515625	-4.608154296875	-1.9989013671875	
99	0.396	0.0	0.0	0.0	0.0	4.593	4.641	4.641	4.596	9.885658654785155	0.01915361328125	0.08439560852050781	2.590179443359375	-3.5400390625	-0.72479248046875	9.788693487548828	0.1945288848876953	0.18255787658691405	0.476837158203125	-4.8065185546875	-2.84576416015625	10.013748443603514	-0.010773907470703125	-0.19512743530273435	3.91387939453125	-4.6844482421875	-2.246856689453125	
100	0.4	0.0	0.0	0.0	0.0	4.593	4.638	4.641	4.602	9.889249957275391	0.017357962036132813	0.09696516723632811	2.582550048828125	-3.44085693359375	-0.6561279296875	9.784503634643555	0.19812018737792966	0.17477672119140625	0.38909912109375	-5.0201416015625	-2.788543701171875	10.013748443603514	-0.0143652099609375	-0.20530279235839843	3.70025634765625	-4.7149658203125	-2.26593017578125	
101	0.404	0.0	0.0	0.0	0.0	4.602	4.638	4.632	4.593	9.885658654785155	0.027533319091796873	0.08319850769042968	2.742767333984375	-3.864288330078125	-0.873565673828125	9.78629928588867	0.2041056915283203	0.1693897674560547	0.213623046875	-4.66156005859375	-2.872467041015625	10.013149893188476	0.15083470458984374	-0.21787235107421873	3.66973876953125	-4.6844482421875	-2.25830078125	
102	0.40800000000000003	0.0	0.0	0.0	0.0	4.602	4.641	4.641	4.575	9.887454306030273	0.027533319091796873	0.06883329772949218	2.559661865234375	-3.528594970703125	-0.835418701171875	9.787496386718749	0.20470424194335937	0.16220716247558592	0.263214111328125	-4.848480224609375	-2.712249755859375	10.004770187377929	-0.001197100830078125	-0.21906945190429686	3.726959228515625	-4.886627197265625	-2.13623046875	
103	0.41200000000000003	0.0	0.0	0.0	0.0	4.605	4.638	4.638	4.569	9.893439810180663	0.02633621826171875	0.07242460021972656	2.529144287109375	-3.421783447265625	-0.804901123046875	9.785102185058593	0.20171148986816406	0.15741875915527342	0.713348388671875	-5.039215087890625	-2.735137939453125	10.01015714111328	0.007781155395507812	-0.22744915771484372	3.742218017578125	-4.53948974609375	-2.223968505859375	
104	0.41600000000000004	0.0	0.0	0.0	0.0	4.599	4.635	4.641	4.59	9.886855755615233	0.034715924072265626	0.05746083984375	2.658843994140625	-3.559112548828125	-0.881195068359375	9.789890588378906	0.20290859069824219	0.1514332550048828	0.3662109375	-5.039215087890625	-2.132415771484375	10.011354241943359	0.017357962036132813	-0.2501940734863281	3.612518310546875	-4.55474853515625	-2.025604248046875	
105	0.42	0.0	0.0	0.0	0.0	4.602	4.641	4.641	4.596	9.894038360595703	0.044292730712890624	0.051475335693359374	2.8839111328125	-3.528594970703125	-0.8697509765625	9.791087689208984	0.2214636535644531	0.14604630126953125	0.217437744140625	-4.89044189453125	-2.872467041015625	10.011354241943359	0.020350714111328123	-0.25318682556152344	3.65447998046875	-4.5013427734375	-1.949310302734375	
106	0.424	0.0	0.0	0.0	0.0	4.605	4.641	4.641	4.593	9.892242709350585	0.04548983154296875	0.04848258361816406	2.460479736328125	-3.66973876953125	-0.74005126953125	9.787496386718749	0.22744915771484372	0.14484920043945312	-0.003814697265625	-4.787445068359375	-2.796173095703125	10.008361489868163	0.02633621826171875	-0.26755203552246093	3.597259521484375	-4.657745361328125	-2.29644775390625	
107	0.428	0.0	0.0	0.0	0.0	4.593	4.638	4.638	4.602	9.880870251464843	0.06105214233398437	0.055066638183593745	2.54058837890625	-3.59344482421875	-1.010894775390625	9.782109432983399	0.2346317626953125	0.1274912384033203	0.17547607421875	-4.92095947265625	-2.803802490234375	9.9981861328125	0.02454056701660156	-0.2807201446533203	3.5247802734375	-4.589080810546875	-2.056121826171875	
108	0.432	0.0	0.0	0.0	0.0	4.602	4.638	4.641	4.593	9.888052856445311	0.05566518859863281	0.05087678527832031	2.643585205078125	-3.490447998046875	-0.682830810546875	9.780912332153319	0.2376245147705078	0.12210428466796874	0.32806396484375	-5.054473876953125	-2.933502197265625	10.007762939453125	0.02693476867675781	-0.2855085479736328	3.48663330078125	-4.47845458984375	-2.06756591796875	
109	0.436	0.0	0.0	0.0	0.0	4.602	4.641	4.641	4.575	9.885658654785155	0.06105214233398437	0.04848258361816406	2.742767333984375	-3.73077392578125	-0.949859619140625	9.791087689208984	0.2376245147705078	0.12210428466796874	0.2593994140625	-4.95147705078125	-2.971649169921875	10.014945544433592	0.03232172241210937	-0.2747346405029297	3.814697265625	-4.711151123046875	-2.00653076171875	
110	0.44	0.0	0.0	0.0	0.0	4.605	4.638	4.638	4.572	9.884461553955077	0.058657940673828124	0.044292730712890624	2.41851806640625	-3.59344482421875	-0.797271728515625	9.795876092529296	0.24061726684570311	0.13826514587402344	0.354766845703125	-5.1422119140625	-2.819061279296875	10.008361489868163	0.031124621582031248	-0.2771288421630859	3.574371337890625	-4.589080810546875	-2.285003662109375	
111	0.444	0.0	0.0	0.0	0.0	4.599	4.635	4.641	4.593	9.888052856445311	0.06344634399414062	0.0383072265625	2.62451171875	-3.25775146484375	-0.865936279296875	9.78629928588867	0.24660277099609373	0.11851298217773437	0.415802001953125	-4.90570068359375	-2.7008056640625	10.011354241943359	0.04249707946777344	-0.2741360900878906	3.536224365234375	-4.55474853515625	-2.166748046875	
112	0.448	0.0	0.0	0.0	0.0	4.599	4.641	4.641	4.59	9.88386300354004	0.06464344482421874	0.033518823242187495	2.5482177734375	-3.6773681640625	-0.659942626953125	9.791686239624022	0.2472013214111328	0.1227028350830078	0.1068115234375	-5.054473876953125	-2.880096435546875	10.011952792358398	0.04129997863769531	-0.2609679809570312	3.73077392578125	-4.703521728515625	-2.201080322265625	
113	0.452	0.0	0.0	0.0	0.0	4.602	4.641	4.638	4.593	9.883264453125	0.061650692749023434	0.03651157531738281	2.7008056640625	-3.692626953125	-0.84686279296875	9.788693487548828	0.24121581726074218	0.1292868896484375	0.263214111328125	-4.985809326171875	-2.735137939453125	10.008960040283203	0.04129997863769531	-0.2537853759765625	3.574371337890625	-4.596710205078125	-2.32696533203125	
114	0.456	0.0	0.0	0.0	0.0	4.599	4.638	4.638	4.605	9.88386300354004	0.05566518859863281	0.04249707946777344	2.559661865234375	-3.772735595703125	-0.79345703125	9.785700735473633	0.2424129180908203	0.14305354919433594	0.5340576171875	-4.894256591796875	-2.857208251953125	9.999383233642577	0.03411737365722656	-0.2609679809570312	3.63922119140625	-4.596710205078125	-1.995086669921875	
115	0.46	0.0	0.0	0.0	0.0	4.605	4.641	4.638	4.59	9.889249957275391	0.05985504150390625	0.04249707946777344	2.44140625	-3.459930419921875	-0.69427490234375	9.785102185058593	0.24121581726074218	0.14185644836425781	0.35858154296875	-4.81414794921875	-2.773284912109375	10.012551342773437	0.032920272827148434	-0.25917232971191406	3.6468505859375	-4.547119140625	-2.201080322265625	
116	0.464	0.0	0.0	0.0	0.0	4.599	4.641	4.641	4.572	9.889249957275391	0.06464344482421874	0.044292730712890624	2.6702880859375	-3.643035888671875	-0.835418701171875	9.787496386718749	0.2442085693359375	0.13946224670410157	0.537872314453125	-4.669189453125	-2.8839111328125	10.005368737792969	0.032920272827148434	-0.2501940734863281	3.5400390625	-4.6539306640625	-2.06756591796875	
117	0.468	0.0	0.0	0.0	0.0	4.605	4.638	4.638	4.575	9.885658654785155	0.06404489440917968	0.015562310791015624	2.399444580078125	-3.5247802734375	-0.644683837890625	9.782707983398437	0.2232593048095703	0.14305354919433594	0.415802001953125	-5.0201416015625	-2.902984619140625	9.974842666625976	-0.0053869537353515625	-0.19931728820800781	3.391265869140625	-4.57000732421875	-2.12860107421875	
118	0.47200000000000003	0.0	0.0	0.0	0.0	4.599	4.635	4.641	4.59	9.890447058105469	0.11133037719726561	0.052073886108398436	2.849578857421875	-3.490447998046875	-0.6866455078125	9.787496386718749	0.3429693878173828	0.12569558715820311	0.46539306640625	-4.878997802734375	-3.0670166015625	9.994594830322265	0.15023615417480468	-0.21188684692382811	3.734588623046875	-4.69207763671875	-2.368927001953125	
119	0.47600000000000003	0.0	0.0	0.0	0.0	4.599	4.641	4.641	4.596	9.868300692749022	0.0	0.07242460021972656	2.567291259765625	-3.5552978515625	-0.637054443359375	9.776722479248047	0.16340426330566404	0.12449848632812499	0.45013427734375	-4.894256591796875	-2.63214111328125	9.973047015380859	-0.001197100830078125	-0.18315642700195311	3.8299560546875	-4.634857177734375	-2.239227294921875	
120	0.48	0.0	0.0	0.0	0.0	4.599	4.641	4.638	4.593	9.89463691101074	0.04608838195800781	0.08080430603027343	2.81524658203125	-3.8299560546875	-0.942230224609375	9.785102185058593	0.21068974609375	0.16998831787109375	0.45013427734375	-4.566192626953125	-2.899169921875	10.031704956054687	-0.06045359191894531	-0.23044190979003906	3.509521484375	-4.535675048828125	-2.18963623046875	
121	0.484	0.0	0.0	0.0	0.0	4.59	4.641	4.638	4.602	9.882067352294921	0.06284779357910156	0.062249243164062495	2.3193359375	-3.177642822265625	-0.942230224609375	9.785102185058593	0.3687070556640625	0.19692308654785154	0.14495849609375	-4.7454833984375	-2.593994140625	9.973645565795898	0.17058686828613281	-0.1771709228515625	3.86810302734375	-4.604339599609375	-2.117156982421875	
122	0.488	0.0	0.0	0.0	0.0	4.602	4.641	4.641	4.581	9.87727894897461	0.006584054565429687	0.03950432739257812	2.384185791015625	-3.84521484375	-1.1444091796875	9.765350021362304	0.22266075439453123	0.1592144104003906	0.301361083984375	-4.550933837890625	-2.81524658203125	9.993397729492187	-0.028730419921875	-0.258573779296875	3.84521484375	-4.489898681640625	-2.22015380859375	
123	0.492	0.0	0.0	0.0	0.0	4.602	4.641	4.641	4.572	9.867702142333984	-0.04908113403320312	0.09038111267089843	2.384185791015625	-3.421783447265625	-1.155853271484375	9.784503634643555	0.2088940948486328	0.21308394775390624	0.087738037109375	-4.993438720703125	-2.895355224609375	10.016142645263672	0.029328970336914062	-0.22086510314941404	3.6163330078125	-4.673004150390625	-2.227783203125	
124	0.496	0.0	0.0	0.0	0.0	4.605	4.638	4.641	4.578	9.894038360595703	0.0526724365234375	0.02154781494140625	2.43377685546875	-3.452301025390625	-1.056671142578125	9.783306533813477	0.35015199279785153	0.16519991455078123	0.43487548828125	-5.100250244140625	-2.838134765625	10.051457119750976	0.07003039855957031	-0.26216508178710934	3.620147705078125	-4.611968994140625	-2.399444580078125	
125	0.5	0.0	0.0	0.0	0.0	4.605	4.632	4.641	4.593	9.871293444824218	-0.0053869537353515625	0.09756371765136718	2.071380615234375	-3.265380859375	-0.81634521484375	9.753977563476562	0.28490999755859375	0.20530279235839843	0.102996826171875	-5.0048828125	-2.7618408203125	10.001777435302733	0.14305354919433594	-0.22685060729980466	3.7078857421875	-4.730224609375	-1.895904541015625	
126	0.504	0.0	0.0	0.0	0.0	4.599	4.641	4.641	4.596	9.878476049804688	-0.030526071166992186	0.037708676147460936	2.315521240234375	-3.414154052734375	-1.129150390625	9.804255798339844	0.09756371765136718	0.13766659545898435	0.484466552734375	-5.0506591796875	-3.124237060546875	10.019733947753906	-0.0796072052001953	-0.22744915771484372	3.719329833984375	-4.5318603515625	-2.38037109375	
127	0.508	0.0	0.0	0.0	0.0	4.593	4.641	4.638	4.599	9.817423907470703	0.24839842224121092	0.17956512451171874	2.90679931640625	-3.71551513671875	-0.60272216796875	9.814431155395507	0.32142157287597656	0.19871873779296872	0.263214111328125	-5.001068115234375	-2.9296875	10.074202035522461	0.15682020874023436	-0.21487959899902342	3.59344482421875	-4.5013427734375	-2.00653076171875	
128	0.512	0.0	0.0	0.0	0.0	4.59	4.641	4.635	4.602	9.880271701049804	0.0	0.02454056701660156	2.468109130859375	-3.482818603515625	-0.949859619140625	9.813832604980469	0.16699556579589842	0.1352723937988281	0.46539306640625	-4.772186279296875	-2.9449462890625	10.075997686767577	-0.11432312927246092	-0.3399766357421875	3.559112548828125	-4.642486572265625	-2.376556396484375	
129	0.516	0.0	0.0	0.0	0.0	4.602	4.641	4.641	4.581	9.801263046264648	0.2902969512939453	0.19512743530273435	3.009796142578125	-3.9215087890625	-0.8392333984375	9.744999307250977	0.34536358947753903	0.2454056701660156	0.20599365234375	-4.901885986328125	-2.750396728515625	10.018536846923828	0.11611878051757812	-0.17956512451171874	3.8604736328125	-4.7760009765625	-1.99127197265625	
130	0.52	0.0	0.0	0.0	0.0	4.605	4.641	4.638	4.569	9.900023864746093	-0.05027823486328125	0.044292730712890624	2.597808837890625	-3.498077392578125	-1.239776611328125	9.846752877807617	0.12030863342285156	0.143652099609375	0.54168701171875	-5.08880615234375	-3.01361083984375	10.141239682006836	-0.18734627990722655	-0.3321954803466797	3.570556640625	-4.8370361328125	-2.3193359375	
131	0.524	0.0	0.0	0.0	0.0	4.602	4.635	4.638	4.5840000000000005	9.817423907470703	0.30346506042480464	0.18375497741699218	2.887725830078125	-3.50189208984375	-0.6256103515625	9.765948571777344	0.38247371520996093	0.2645592834472656	0.270843505859375	-5.039215087890625	-2.66265869140625	10.018536846923828	0.19033903198242186	-0.16879121704101563	3.696441650390625	-4.718780517578125	-2.0599365234375	
132	0.528	0.0	0.0	0.0	0.0	4.602	4.644	4.641	4.59	9.945513696289062	0.022146365356445312	0.14245499877929688	2.76947021484375	-3.85284423828125	-0.701904296875	9.826402163696288	0.03890577697753906	0.1484405029296875	0.06866455078125	-4.680633544921875	-2.658843994140625	10.087968695068358	-0.17477672119140625	-0.3315969299316406	3.536224365234375	-4.619598388671875	-2.117156982421875	
133	0.532	0.0	0.0	0.0	0.0	4.599	4.641	4.641	4.596	9.810241302490233	0.30406361083984373	0.20530279235839843	2.841949462890625	-3.978729248046875	-0.652313232421875	9.756371765136718	0.3525461944580078	0.3082534637451172	0.263214111328125	-4.878997802734375	-2.89154052734375	10.014945544433592	0.17776947326660156	-0.1657984649658203	3.696441650390625	-4.505157470703125	-2.044677734375	
134	0.536	0.0	0.0	0.0	0.0	4.593	4.638	4.641	4.599	9.967660061645507	-0.030526071166992186	0.09935936889648436	2.948760986328125	-3.95965576171875	-0.52642822265625	9.867702142333984	-0.040102877807617184	0.12629413757324218	0.30517578125	-4.8980712890625	-2.86102294921875	10.027515103149414	-0.11851298217773437	-0.2507926239013672	3.71551513671875	-4.52423095703125	-1.94549560546875	
135	0.54	0.0	0.0	0.0	0.0	4.599	4.638	4.635	4.599	9.843760125732421	0.16759411621093748	0.033518823242187495	3.23486328125	-3.978729248046875	-0.823974609375	9.7683427734375	0.38247371520996093	0.20470424194335937	0.370025634765625	-4.367828369140625	-3.01361083984375	9.993397729492187	0.24301146850585936	-0.16759411621093748	3.7384033203125	-4.650115966796875	-2.288818359375	
136	0.544	0.0	0.0	0.0	0.0	4.599	4.641	4.641	4.581	9.955689053344726	-0.008379705810546874	0.1149216796875	2.910614013671875	-3.780364990234375	-0.5035400390625	9.861716638183593	-0.03411737365722656	0.1304839904785156	0.507354736328125	-4.825592041015625	-2.857208251953125	9.986813674926758	-0.07422025146484375	-0.2501940734863281	3.910064697265625	-4.89044189453125	-1.82342529296875	
137	0.548	0.0	0.0	0.0	0.0	4.602	4.638	4.638	4.569	9.828796365356444	0.12509703674316405	0.01975216369628906	3.44085693359375	-4.093170166015625	-0.629425048828125	9.789890588378906	0.3429693878173828	0.17298106994628906	0.301361083984375	-5.10406494140625	-2.918243408203125	10.039486111450195	0.19153613281249998	-0.201112939453125	3.719329833984375	-4.665374755859375	-2.655029296875	
138	0.552	0.0	0.0	0.0	0.0	4.605	4.638	4.641	4.593	9.97244846496582	-0.00718260498046875	0.06943184814453125	3.16619873046875	-4.119873046875	-0.347137451171875	9.77432827758789	0.10654197387695312	0.0796072052001953	0.32806396484375	-4.909515380859375	-2.590179443359375	10.01015714111328	-0.08080430603027343	-0.2902969512939453	3.79180908203125	-4.848480224609375	-1.953125	
139	0.556	0.0	0.0	0.0	0.0	4.602	4.641	4.641	4.596	9.809642752075195	0.15741875915527342	0.037708676147460936	3.307342529296875	-3.88336181640625	-0.579833984375	9.750386260986328	0.412401235961914	0.17956512451171874	0.42724609375	-4.76837158203125	-2.78472900390625	9.88386300354004	0.14544775085449219	-0.2154781494140625	3.692626953125	-4.58526611328125	-2.26593017578125	
140	0.56	0.0	0.0	0.0	0.0	4.602	4.641	4.641	4.596	9.852738381958007	0.07062894897460938	0.029328970336914062	2.063751220703125	-3.528594970703125	-1.148223876953125	9.782707983398437	0.06584054565429687	0.06105214233398437	0.377655029296875	-4.901885986328125	-2.4871826171875	10.006565838623047	-0.11432312927246092	-0.2932897033691406	3.810882568359375	-4.764556884765625	-1.918792724609375	
141	0.5640000000000001	0.0	0.0	0.0	0.0	4.59	4.638	4.638	4.602	9.829993466186522	0.09157821350097656	0.011372457885742187	3.39508056640625	-3.875732421875	-0.614166259765625	9.74200655517578	0.3094505645751953	0.15083470458984374	0.41961669921875	-4.795074462890625	-3.387451171875	9.92217023010254	0.11013327636718749	-0.2442085693359375	3.62396240234375	-4.581451416015625	-2.368927001953125	
142	0.5680000000000001	0.0	0.0	0.0	0.0	4.602	4.638	4.641	4.587	9.828796365356444	0.06284779357910156	0.025139117431640625	1.972198486328125	-3.5552978515625	-0.942230224609375	9.766547122192382	0.07781155395507812	0.07362170104980469	0.3204345703125	-4.840850830078125	-2.613067626953125	9.904812268066406	0.13347674255371092	-0.12868833923339842	3.83758544921875	-4.7149658203125	-1.953125	
143	0.5720000000000001	0.0	0.0	0.0	0.0	4.602	4.641	4.641	4.572	9.810241302490233	0.04548983154296875	0.020350714111328123	3.101348876953125	-3.84521484375	-0.7781982421875	9.696516723632811	0.3447650390625	0.17657237243652343	0.217437744140625	-4.5623779296875	-3.406524658203125	9.893439810180663	0.13287819213867186	-0.21607669982910155	3.68499755859375	-4.69207763671875	-2.58636474609375	
144	0.5760000000000001	0.0	0.0	0.0	0.0	4.605	4.638	4.641	4.569	9.824007962036132	0.029328970336914062	0.00239420166015625	1.708984375	-3.13568115234375	-1.224517822265625	9.787496386718749	0.0383072265625	0.044891281127929686	0.072479248046875	-5.245208740234375	-2.67791748046875	9.932345587158203	0.09995791931152344	-0.1514332550048828	3.5400390625	-4.669189453125	-1.86920166015625	
145	0.58	0.0	0.0	0.0	0.0	4.602	4.635	4.641	4.59	9.905410818481444	-0.17118541870117188	-0.011372457885742187	2.3956298828125	-3.04412841796875	-1.01470947265625	9.681552963256836	0.3633201019287109	0.18076222534179687	0.347137451171875	-4.665374755859375	-3.36456298828125	10.034697708129881	-0.16699556579589842	-0.3028665100097656	3.734588623046875	-4.425048828125	-2.46429443359375	
146	0.584	0.0	0.0	0.0	0.0	4.602	4.641	4.644	4.596	9.813234054565429	0.029328970336914062	0.0143652099609375	1.44195556640625	-3.231048583984375	-1.251220703125	9.76116016845703	0.38845921936035155	0.14604630126953125	0.45013427734375	-5.130767822265625	-2.780914306640625	9.87608184814453	0.10115502014160156	-0.13467384338378904	3.692626953125	-4.67681884765625	-1.926422119140625	
147	0.588	0.0	0.0	0.0	0.0	4.599	4.641	4.641	4.596	9.935338339233398	-0.16160861206054686	-0.03651157531738281	2.223968505859375	-3.391265869140625	-0.873565673828125	9.680355862426758	0.3872621185302734	0.21009119567871093	0.392913818359375	-4.772186279296875	-3.421783447265625	10.041880313110351	-0.19572598571777342	-0.30047230834960936	3.635406494140625	-4.58526611328125	-2.513885498046875	
148	0.592	0.0	0.0	0.0	0.0	4.593	4.638	4.638	4.602	9.923965881347655	0.003591302490234375	-0.09816226806640624	2.95257568359375	-3.84521484375	-0.446319580078125	9.776722479248047	0.39863457641601563	0.12210428466796874	0.171661376953125	-5.138397216796875	-2.76947021484375	9.90900212097168	0.09576806640624999	-0.12808978881835936	3.79180908203125	-4.7149658203125	-1.7242431640625	
149	0.596	0.0	0.0	0.0	0.0	4.602	4.641	4.641	4.587	9.941323843383788	-0.12330138549804687	-0.059256491088867186	2.826690673828125	-3.749847412109375	-0.95367431640625	9.849745629882811	0.143652099609375	0.055066638183593745	0.31280517578125	-4.642486572265625	-3.08990478515625	10.024522351074218	-0.20350714111328125	-0.2645592834472656	3.772735595703125	-4.55474853515625	-2.69317626953125	
150	0.6	0.0	0.0	0.0	0.0	4.602	4.641	4.641	4.572	9.898826763916015	0.24899697265624998	0.25139117431640623	3.635406494140625	-3.85284423828125	-0.0762939453125	9.777919580078125	0.40940848388671874	0.12030863342285156	0.308990478515625	-4.8828125	-2.582550048828125	10.050858569335936	0.28490999755859375	-0.23822306518554687	3.650665283203125	-4.75311279296875	-1.728057861328125	
151	0.604	0.0	0.0	0.0	0.0	4.6080000000000005	4.638	4.638	4.572	9.956886154174803	-0.086191259765625	-0.09935936889648436	3.421783447265625	-3.77655029296875	-0.80108642578125	9.868300692749022	0.11133037719726561	0.054468087768554684	0.225067138671875	-4.764556884765625	-3.204345703125	10.044274514770507	-0.23642741394042968	-0.29089550170898437	3.76129150390625	-4.38690185546875	-2.628326416015625	
152	0.608	0.0	0.0	0.0	0.0	4.602	4.635	4.641	4.59	9.874884747314452	0.28909985046386716	0.27353753967285155	4.108428955078125	-4.138946533203125	-0.09918212890625	9.763554370117188	0.3920505218505859	0.36571430358886714	-0.095367431640625	-4.79888916015625	-2.3040771484375	10.06163247680664	0.28790274963378903	-0.24660277099609373	3.467559814453125	-4.482269287109375	-1.834869384765625	
153	0.612	0.0	0.0	0.0	0.0	4.599	4.641	4.644	4.593	9.893439810180663	0.013766659545898436	0.07362170104980469	2.544403076171875	-3.72314453125	-0.949859619140625	9.866505041503906	0.14425065002441406	0.044292730712890624	0.55694580078125	-4.82940673828125	-3.143310546875	10.217854135131835	-0.32501287536621093	-0.5135562561035156	3.9215087890625	-4.791259765625	-2.2125244140625	
154	0.616	0.0	0.0	0.0	0.0	4.599	4.641	4.638	4.596	9.855731134033203	0.3489548919677734	0.2765302917480469	4.34112548828125	-4.055023193359375	-0.179290771484375	9.782109432983399	0.40222587890625	0.3507505432128906	0.049591064453125	-5.153656005859375	-2.35748291015625	10.071209283447265	0.3190273712158203	-0.27174188842773433	3.627777099609375	-4.67681884765625	-1.880645751953125	
155	0.62	0.0	0.0	0.0	0.0	4.59	4.638	4.638	4.605	9.879673150634765	-0.07541735229492187	0.0796072052001953	2.124786376953125	-3.330230712890625	-1.35040283203125	9.97903251953125	-0.3459621398925781	-0.07422025146484375	0.31280517578125	-4.779815673828125	-2.574920654296875	10.235212097167969	-0.3800795135498047	-0.5345055206298828	3.765106201171875	-4.550933837890625	-2.0751953125	
156	0.624	0.0	0.0	0.0	0.0	4.605	4.641	4.641	4.5840000000000005	9.810241302490233	0.37768531188964843	0.31663316955566406	4.032135009765625	-4.329681396484375	0.011444091796875	9.779116680908203	0.4267664459228515	0.364517202758789	-0.011444091796875	-5.07354736328125	-2.18963623046875	9.976638317871092	0.4632780212402344	-0.17836802368164062	3.5247802734375	-4.608154296875	-2.178192138671875	
157	0.628	0.0	0.0	0.0	0.0	4.605	4.641	4.641	4.572	9.855731134033203	-0.09696516723632811	0.08140285644531249	1.3275146484375	-2.95257568359375	-1.48773193359375	9.962273107910155	-0.2759317413330078	-0.09277531433105468	0.17547607421875	-5.05828857421875	-2.651214599609375	10.228029492187499	-0.27892449340820313	-0.5398924743652344	3.787994384765625	-4.642486572265625	-1.922607421875	
158	0.632	0.0	0.0	0.0	0.0	4.602	4.638	4.641	4.575	9.842563024902343	0.12808978881835936	-0.0383072265625	0.54168701171875	-2.429962158203125	-1.99127197265625	9.715670336914062	0.5524620330810547	0.20949264526367187	0.61798095703125	-4.993438720703125	-2.864837646484375	9.98561657409668	0.44053310546874996	-0.18076222534179687	3.704071044921875	-4.50897216796875	-2.410888671875	
159	0.636	0.0	0.0	0.0	0.0	4.599	4.632	4.641	4.587	9.852738381958007	-0.22086510314941404	0.09576806640624999	0.46539306640625	-2.552032470703125	-1.617431640625	9.954491952514648	-0.37708676147460934	-0.08798691101074219	0.293731689453125	-4.98199462890625	-2.84576416015625	10.249577307128906	-0.364517202758789	-0.5333084197998047	3.66973876953125	-4.795074462890625	-2.08282470703125	
160	0.64	0.0	0.0	0.0	0.0	4.596	4.641	4.641	4.599	9.888052856445311	0.1370680450439453	-0.0383072265625	0.37384033203125	-2.532958984375	-1.842498779296875	9.703100778198241	0.6356605407714844	0.22505495605468748	0.28228759765625	-4.5928955078125	-2.796173095703125	9.983222372436522	0.5009866973876953	-0.16699556579589842	3.57818603515625	-4.44793701171875	-2.216339111328125	
161	0.644	0.0	0.0	0.0	0.0	4.593	4.638	4.638	4.593	9.860519537353515	-0.24361001892089842	0.04668693237304687	1.97601318359375	-3.27301025390625	-0.652313232421875	9.801861596679688	0.044292730712890624	0.1131260284423828	0.324249267578125	-5.10406494140625	-2.689361572265625	9.970652813720703	-0.14006079711914063	-0.1897404815673828	3.692626953125	-5.077362060546875	-1.7242431640625	
162	0.648	0.0	0.0	0.0	0.0	4.59	4.638	4.635	4.602	9.91498762512207	0.08978256225585937	-0.010175357055664061	0.431060791015625	-2.471923828125	-1.941680908203125	9.706093530273437	0.5740098480224609	0.2711433380126953	0.78582763671875	-4.665374755859375	-2.994537353515625	9.99220062866211	0.40761283264160153	-0.12808978881835936	3.7841796875	-4.608154296875	-2.288818359375	
163	0.652	0.0	0.0	0.0	0.0	4.602	4.641	4.641	4.581	9.93952819213867	0.08499415893554688	0.051475335693359374	2.414703369140625	-3.509521484375	-0.400543212890625	9.815029705810547	0.05566518859863281	0.14784195251464843	0.3662109375	-5.14984130859375	-2.887725830078125	9.981426721191406	-0.15502455749511718	-0.1657984649658203	3.536224365234375	-4.795074462890625	-1.964569091796875	
164	0.656	0.0	0.0	0.0	0.0	4.602	4.641	4.641	4.569	9.9461122467041	0.12808978881835936	-0.02693476867675781	0.759124755859375	-2.689361572265625	-1.567840576171875	9.69771382446289	0.6278793853759765	0.258573779296875	0.461578369140625	-4.730224609375	-3.7078857421875	9.828197814941406	0.1640028137207031	-0.11552023010253906	3.6773681640625	-4.64630126953125	-2.819061279296875	
165	0.66	0.0	0.0	0.0	0.0	4.605	4.638	4.638	4.5840000000000005	9.955689053344726	0.12389993591308593	0.07601590270996093	2.7313232421875	-3.925323486328125	-0.110626220703125	9.80665	-0.01915361328125	0.16699556579589842	0.244140625	-4.955291748046875	-2.841949462890625	9.976638317871092	-0.19632453613281248	-0.15322890625	3.5858154296875	-4.76837158203125	-1.911163330078125	
166	0.664	0.0	0.0	0.0	0.0	4.599	4.632	4.641	4.587	9.95987890625	0.055066638183593745	0.19093758239746092	5.474090576171875	-4.741668701171875	0.274658203125	9.62109937133789	0.7314286071777343	0.34835634155273437	0.522613525390625	-4.665374755859375	-3.704071044921875	9.85692823486328	0.14724340209960937	-0.10773907470703124	3.589630126953125	-4.627227783203125	-2.857208251953125	
167	0.668	0.0	0.0	0.0	0.0	4.602	4.641	4.641	4.593	9.970652813720703	0.19812018737792966	0.06404489440917968	3.604888916015625	-4.291534423828125	0.08392333984375	9.807847100830077	-0.0017956512451171875	0.1693897674560547	0.1068115234375	-4.79888916015625	-2.483367919921875	9.866505041503906	0.0796072052001953	-0.07302315063476562	3.68499755859375	-4.63104248046875	-1.7852783203125	
168	0.672	0.0	0.0	0.0	0.0	4.596	4.638	4.638	4.602	9.949104998779296	0.059256491088867186	0.1897404815673828	5.741119384765625	-5.077362060546875	0.171661376953125	9.622296472167967	0.7888894470214843	0.34117373657226563	0.484466552734375	-4.60052490234375	-3.91387939453125	9.830592016601562	0.18555062866210936	-0.09516951599121093	3.47900390625	-4.604339599609375	-2.685546875	
169	0.676	0.0	0.0	0.0	0.0	4.602	4.638	4.635	4.602	9.968857162475585	0.28909985046386716	0.07122749938964844	4.131317138671875	-4.21142578125	0.278472900390625	9.731831198120117	0.43574470214843747	0.12210428466796874	0.148773193359375	-5.13458251953125	-2.13623046875	9.874286196899414	0.12090718383789062	-0.08259995727539061	3.60870361328125	-4.734039306640625	-1.64794921875	
170	0.68	0.0	0.0	0.0	0.0	4.602	4.644	4.641	4.575	9.95987890625	-0.015562310791015624	0.17298106994628906	5.702972412109375	-4.93621826171875	0.148773193359375	9.622296472167967	0.7649474304199219	0.33758243408203126	0.537872314453125	-4.791259765625	-3.74603271484375	9.83178911743164	0.10474632263183593	-0.11073182678222655	3.932952880859375	-4.4708251953125	-2.50244140625	
171	0.684	0.0	0.0	0.0	0.0	4.605	4.641	4.638	4.569	9.866505041503906	-0.05386953735351562	-0.013168109130859374	3.27301025390625	-4.150390625	-0.522613525390625	9.72285294189453	0.39923312683105466	0.12330138549804687	0.247955322265625	-5.13458251953125	-2.38800048828125	9.851541281127929	0.0430956298828125	-0.07242460021972656	3.6468505859375	-4.39453125	-1.7852783203125	
172	0.6880000000000001	0.0	0.0	0.0	0.0	4.602	4.635	4.638	4.587	9.95987890625	-0.02633621826171875	0.16220716247558592	5.53131103515625	-4.886627197265625	0.209808349609375	9.87608184814453	0.06344634399414062	0.11013327636718749	-0.0457763671875	-4.558563232421875	-3.330230712890625	10.036493359375	-0.2292448089599609	-0.3274070770263672	3.635406494140625	-4.596710205078125	-2.490997314453125	
173	0.6920000000000001	0.0	0.0	0.0	0.0	4.602	4.641	4.644	4.593	9.871891995239258	-0.008978256225585938	-0.023942016601562498	3.093719482421875	-3.96728515625	-0.514984130859375	9.70968483276367	0.4746504791259765	0.1149216796875	0.293731689453125	-4.92095947265625	-2.288818359375	9.8449572265625	0.09217676391601562	-0.07242460021972656	3.5400390625	-4.79888916015625	-1.82342529296875	
174	0.6960000000000001	0.0	0.0	0.0	0.0	4.602	4.641	4.644	4.596	9.974842666625976	-0.03950432739257812	0.12449848632812499	2.338409423828125	-3.376007080078125	-1.430511474609375	9.87608184814453	0.00239420166015625	0.11552023010253906	-0.091552734375	-4.550933837890625	-3.42559814453125	10.033500607299803	-0.28012159423828126	-0.34835634155273437	3.77655029296875	-4.2266845703125	-2.63214111328125	
175	0.7000000000000001	0.0	0.0	0.0	0.0	4.593	4.638	4.638	4.602	9.871293444824218	-0.020949264526367185	0.008978256225585938	3.42559814453125	-4.02069091796875	-0.614166259765625	9.813234054565429	0.2262520568847656	0.3016694091796875	-0.0152587890625	-5.3253173828125	-2.071380615234375	10.095151300048828	0.40402153015136716	-0.3028665100097656	3.780364990234375	-4.8980712890625	-1.743316650390625	
176	0.704	0.0	0.0	0.0	0.0	4.602	4.641	4.641	4.59	9.759963067626952	-0.11552023010253906	-0.013766659545898436	2.25067138671875	-3.2958984375	-1.529693603515625	9.861716638183593	0.09277531433105468	0.12150573425292968	-0.247955322265625	-4.78363037109375	-3.192901611328125	10.02332525024414	-0.18255787658691405	-0.37289690856933594	3.688812255859375	-4.505157470703125	-2.414703369140625	
177	0.708	0.0	0.0	0.0	0.0	4.599	4.644	4.641	4.575	9.853336932373047	-0.23403321228027343	0.016759411621093748	2.750396728515625	-3.620147705078125	-0.537872314453125	9.815029705810547	0.17238251953125	0.2537853759765625	-0.16021728515625	-5.06591796875	-1.94549560546875	10.077793338012695	0.3124433166503906	-0.32561142578124996	3.726959228515625	-4.680633544921875	-1.5716552734375	
178	0.712	0.0	0.0	0.0	0.0	4.6080000000000005	4.638	4.641	4.572	9.785102185058593	-0.21607669982910155	-0.037110125732421874	1.91497802734375	-3.25775146484375	-1.605987548828125	10.000580334472655	-0.5668272430419922	-0.18734627990722655	0.22125244140625	-4.72259521484375	-2.64739990234375	10.284293231201172	-0.48243163452148435	-0.5231330627441406	3.604888916015625	-4.72259521484375	-2.50244140625	
179	0.716	0.0	0.0	0.0	0.0	4.605	4.635	4.641	4.5840000000000005	9.751583361816406	0.105344873046875	0.3124433166503906	0.9307861328125	-2.468109130859375	-1.09100341796875	9.827599264526366	0.23642741394042968	0.2059013427734375	-0.232696533203125	-5.130767822265625	-2.239227294921875	10.087968695068358	0.38187516479492184	-0.3124433166503906	3.841400146484375	-4.787445068359375	-2.017974853515625	
180	0.72	0.0	0.0	0.0	0.0	4.602	4.641	4.644	4.596	9.847949978637695	-0.02693476867675781	-0.09157821350097656	2.185821533203125	-3.2806396484375	-1.13677978515625	9.980229620361328	-0.35314474487304687	-0.1801636749267578	0.408172607421875	-4.8065185546875	-2.57110595703125	10.251971508789062	-0.20530279235839843	-0.5039794494628906	3.7689208984375	-4.634857177734375	-2.063751220703125	
181	0.724	0.0	0.0	0.0	0.0	4.599	4.641	4.641	4.596	9.715071786499022	0.2747346405029297	0.3184288208007812	2.25830078125	-3.28826904296875	-0.9918212890625	9.652223992919922	0.4644751220703125	0.3381809844970703	1.007080078125	-4.848480224609375	-2.330780029296875	10.067617980957031	0.2657563842773437	-0.2657563842773437	3.89862060546875	-4.730224609375	-1.949310302734375	
182	0.728	0.0	0.0	0.0	0.0	4.596	4.635	4.635	4.605	9.858125335693359	-0.030526071166992186	-0.10474632263183593	3.223419189453125	-3.8909912109375	-1.007080078125	10.02332525024414	-0.5931634613037109	-0.13826514587402344	0.41961669921875	-4.89044189453125	-2.964019775390625	10.277709176635742	-0.49679684448242184	-0.46627077331542965	3.509521484375	-4.66156005859375	-2.445220947265625	
183	0.732	0.0	0.0	0.0	0.0	4.605	4.641	4.641	4.59	9.668384854125977	0.0939724151611328	0.3333925811767578	1.0223388671875	-3.032684326171875	-1.28173828125	9.627683425903319	0.5590460876464843	0.36930560607910157	0.58746337890625	-4.852294921875	-2.361297607421875	9.975441217041014	0.4740519287109375	-0.06943184814453125	3.780364990234375	-4.7454833984375	-2.2125244140625	
184	0.736	0.0	0.0	0.0	0.0	4.599	4.644	4.638	4.575	9.916783276367187	-0.02454056701660156	0.08259995727539061	0.1220703125	-2.38800048828125	-1.537322998046875	9.968258612060547	-0.37828386230468747	-0.12868833923339842	0.568389892578125	-4.650115966796875	-2.73895263671875	10.198700521850585	-0.2885013000488281	-0.3812766143798828	3.814697265625	-4.63104248046875	-2.323150634765625	
185	0.74	0.0	0.0	0.0	0.0	4.602	4.638	4.641	4.575	9.64623848876953	0.24899697265624998	0.3172317199707031	0.95367431640625	-2.811431884765625	-1.3275146484375	9.660603698730467	0.3806780639648437	0.35793314819335936	0.7476806640625	-4.8065185546875	-2.69317626953125	10.005368737792969	0.23822306518554687	-0.11073182678222655	3.7078857421875	-4.52423095703125	-2.227783203125	
186	0.744	0.0	0.0	0.0	0.0	4.602	4.632	4.641	4.593	9.916783276367187	-0.05027823486328125	0.1197100830078125	0.652313232421875	-2.666473388671875	-1.628875732421875	9.891045608520507	-0.25797522888183594	0.05746083984375	0.6256103515625	-4.787445068359375	-3.070831298828125	10.152612139892577	-0.5602431884765625	-0.3962403747558593	3.612518310546875	-4.779815673828125	-1.880645751953125	
187	0.748	0.0	0.0	0.0	0.0	4.599	4.641	4.644	4.596	9.627084875488281	0.1370680450439453	0.33578678283691404	2.788543701171875	-3.73077392578125	-0.96893310546875	9.613916766357422	0.632667788696289	0.3435679382324219	0.77056884765625	-4.66156005859375	-2.3956298828125	10.020931048583984	0.3806780639648437	-0.19093758239746092	3.53240966796875	-4.604339599609375	-1.903533935546875	
188	0.752	0.0	0.0	0.0	0.0	4.602	4.641	4.641	4.596	9.898228213500976	0.06404489440917968	0.10773907470703124	0.42724609375	-2.574920654296875	-1.36566162109375	9.8449572265625	-0.1693897674560547	0.023942016601562498	0.698089599609375	-4.730224609375	-2.60162353515625	10.096348400878906	-0.35015199279785153	-0.47644613037109373	3.4637451171875	-4.802703857421875	-1.40380859375	
189	0.756	0.0	0.0	0.0	0.0	4.587	4.641	4.635	4.602	9.97783541870117	0.062249243164062495	-0.010175357055664061	2.422332763671875	-3.25775146484375	-0.80108642578125	9.72285294189453	0.5835866546630859	0.20171148986816406	0.54931640625	-4.871368408203125	-3.314971923828125	9.780912332153319	0.09636661682128905	-0.01915361328125	3.8299560546875	-4.497528076171875	-2.4566650390625	
190	0.76	0.0	0.0	0.0	0.0	4.602	4.641	4.641	4.5840000000000005	9.900023864746093	-0.004189852905273437	0.1322796417236328	0.354766845703125	-2.60162353515625	-1.3885498046875	9.86351228942871	-0.181959326171875	0.034715924072265626	0.48065185546875	-4.82177734375	-2.933502197265625	10.205284576416014	-0.469263525390625	-0.6829460235595702	3.444671630859375	-4.505157470703125	-1.674652099609375	
191	0.764	0.0	0.0	0.0	0.0	4.602	4.644	4.641	4.575	10.031704956054687	0.4333505004882812	-0.11552023010253906	3.173828125	-4.0740966796875	-0.701904296875	9.685742816162108	0.6817489227294922	0.24660277099609373	0.49591064453125	-4.6844482421875	-3.124237060546875	9.689932669067382	0.25139117431640623	0.03172317199707031	3.787994384765625	-4.337310791015625	-2.353668212890625	
192	0.768	0.0	0.0	0.0	0.0	4.605	4.635	4.638	0.003	9.964667309570311	0.1149216796875	-0.08918401184082031	5.115509033203125	-5.10406494140625	0.41961669921875	9.692925421142577	0.21607669982910155	0.1975216369628906	-0.003814697265625	-4.795074462890625	-2.410888671875	10.067617980957031	-0.354341845703125	-0.013766659545898436	3.658294677734375	-4.78363037109375	-1.697540283203125	
193	0.772	0.0	0.0	0.0	0.0	0.003	0.003	0.003	0.003	9.993397729492187	0.3399766357421875	-0.03950432739257812	4.5013427734375	-4.528045654296875	-0.423431396484375	9.718064538574218	0.6811503723144531	0.31184476623535157	0.60272216796875	-4.791259765625	-3.7841796875	9.834183319091796	0.26336218261718747	-0.12569558715820311	3.662109375	-4.344940185546875	-2.780914306640625	
194	0.776	0.0	0.0	0.0	0.0	0.0	0.006	0.003	0.006	9.922768780517577	0.27293898925781246	-0.014963760375976562	5.352020263671875	-5.16510009765625	0.560760498046875	9.688735568237304	0.3124433166503906	0.17896657409667968	-0.270843505859375	-4.7760009765625	-2.544403076171875	9.836577520751952	0.12030863342285156	-0.29269115295410153	3.650665283203125	-4.5166015625	-1.232147216796875	
195	0.78	0.0	0.0	0.0	0.0	0.003	0.003	0.003	0.009000000000000001	9.93952819213867	0.2603694305419922	0.008379705810546874	4.1046142578125	-4.08935546875	-0.469207763671875	9.758765966796874	0.19871873779296872	0.08559270935058594	0.0152587890625	-4.970550537109375	-3.94439697265625	9.758167416381836	0.08259995727539061	-0.10115502014160156	3.795623779296875	-4.41741943359375	-2.9449462890625	
196	0.784	0.0	0.0	0.0	0.0	0.006	0.003	0.006	0.006	9.925162982177733	0.05805939025878906	-0.05626373901367187	3.97491455078125	-4.486083984375	0.14495849609375	9.762955819702148	0.47644613037109373	0.15682020874023436	0.118255615234375	-5.01251220703125	-2.597808837890625	9.89583401184082	0.4471171600341797	-0.12090718383789062	3.757476806640625	-4.974365234375	-1.44195556640625	
197	0.788	0.0	0.0	0.0	0.0	0.006	0.006	0.003	0.003	9.846154327392577	-0.028730419921875	0.006584054565429687	4.123687744140625	-4.24957275390625	-0.38909912109375	9.713276135253906	0.5494692810058593	0.15861585998535155	-0.049591064453125	-4.550933837890625	-3.368377685546875	10.096348400878906	-0.5716156463623047	-0.46507367248535153	3.875732421875	-4.444122314453125	-2.376556396484375	
198	0.792	0.0	0.0	0.0	0.0	0.003	0.006	0.003	0.006	10.000580334472655	0.025139117431640625	-0.033518823242187495	4.69207763671875	-4.99725341796875	0.25177001953125	9.780912332153319	0.3687070556640625	0.1897404815673828	-0.049591064453125	-5.062103271484375	-2.105712890625	9.770138424682617	0.49380409240722656	-0.07721300354003906	3.74603271484375	-4.543304443359375	-1.819610595703125	
199	0.796	0.0	0.0	0.0	0.0	0.006	0.006	0.003	0.006	9.892841259765625	-0.028131869506835935	0.02154781494140625	5.51605224609375	-5.10406494140625	0.1678466796875	9.791087689208984	0.14425065002441406	0.15382745666503905	-0.091552734375	-4.547119140625	-3.528594970703125	10.123283169555663	-0.4369418029785156	-0.4082113830566406	3.631591796875	-4.4403076171875	-1.94549560546875	
200	0.8	0.0	0.0	0.0	0.0	0.006	0.006	0.003	0.003	9.96047745666504	-0.029328970336914062	-0.12389993591308593	1.373291015625	-3.170013427734375	-1.0223388671875	9.83238766784668	0.5063736511230469	0.14724340209960937	-0.293731689453125	-4.680633544921875	-2.34222412109375	10.11909331665039	0.29927520751953124	-0.22744915771484372	3.7384033203125	-4.596710205078125	-2.197265625	
201	0.804	0.0	0.0	0.0	0.0	0.009000000000000001	0.006	0.006	0.003	9.780912332153319	-0.22206220397949217	0.047285482788085934	3.7689208984375	-4.1046142578125	-0.240325927734375	9.93354268798828	0.14784195251464843	-0.09995791931152344	0.308990478515625	-5.237579345703125	-3.082275390625	10.022726699829102	-0.2705447875976562	-0.43574470214843747	3.77655029296875	-4.40216064453125	-2.040863037109375	
202	0.808	0.0	0.0	0.0	0.0	0.006	0.006	0.003	0.003	9.755773214721678	-0.3896563201904297	0.2615665313720703	0.972747802734375	-2.75421142578125	-1.354217529296875	9.807847100830077	0.31543606872558594	0.17417817077636719	-0.278472900390625	-4.913330078125	-2.01416015625	10.020931048583984	0.2376245147705078	-0.16998831787109375	3.82232666015625	-4.6844482421875	-2.2430419921875	
203	0.812	0.0	0.0	0.0	0.0	0.003	0.003	0.006	0.003	9.874286196899414	-0.020350714111328123	-0.011971008300781249	3.753662109375	-3.971099853515625	-0.1068115234375	10.022726699829102	-0.3896563201904297	-0.07302315063476562	0.347137451171875	-4.89044189453125	-3.200531005859375	10.293870037841796	-0.054468087768554684	-0.4542997650146484	4.001617431640625	-4.772186279296875	-2.071380615234375	
204	0.8160000000000001	0.0	0.0	0.0	0.0	0.003	0.003	0.003	0.003	9.775525378417969	-0.1388636962890625	0.2292448089599609	2.0294189453125	-3.208160400390625	-1.071929931640625	9.696516723632811	1.351526837158203	0.17597382202148437	0.705718994140625	-4.863739013671875	-2.468109130859375	10.064026678466796	0.16041151123046873	-0.229843359375	3.60870361328125	-4.711151123046875	-2.32696533203125	
205	0.8200000000000001	0.0	0.0	0.0	0.0	0.003	0.006	0.006	0.003	9.833584768676758	0.0005985504150390625	-0.013168109130859374	0.408172607421875	-2.50244140625	-2.38800048828125	9.93354268798828	-0.9971849914550781	0.0053869537353515625	0.42724609375	-5.123138427734375	-3.7689208984375	10.135254177856444	0.11791443176269531	-0.44412440795898434	3.85284423828125	-4.734039306640625	-2.040863037109375	
206	0.8240000000000001	0.0	0.0	0.0	0.0	0.003	0.003	0.006	0.003	9.71028338317871	-0.2819172454833984	0.26216508178710934	0.77056884765625	-2.613067626953125	-1.5716552734375	9.674968908691406	1.3060370056152344	0.40402153015136716	0.377655029296875	-4.8980712890625	-1.407623291015625	10.101136804199218	0.025737667846679687	-0.181959326171875	3.528594970703125	-4.63104248046875	-2.223968505859375	
207	0.8280000000000001	0.0	0.0	0.0	0.0	0.003	0.006	0.003	0.006	9.920374578857421	0.0430956298828125	-0.014963760375976562	0.835418701171875	-2.5177001953125	-1.96075439453125	9.949703549194336	0.3585316986083984	-0.07003039855957031	0.213623046875	-5.0201416015625	-3.986358642578125	10.275314974975585	0.06404489440917968	-0.5033808990478515	3.66973876953125	-4.642486572265625	-2.140045166015625	
208	0.8320000000000001	0.0	0.0	0.0	0.0	0.003	0.003	0.006	0.003	9.625289224243163	-0.24121581726074218	0.35314474487304687	-0.225067138671875	-2.231597900390625	-1.766204833984375	9.704896429443359	0.2472013214111328	0.38845921936035155	0.400543212890625	-5.008697509765625	-1.697540283203125	9.926360083007811	0.08559270935058594	0.031124621582031248	3.7994384765625	-4.6234130859375	-1.953125	
209	0.836	0.0	0.0	0.0	0.0	0.006	0.006	0.003	0.003	9.886855755615233	0.14963760375976562	0.08140285644531249	0.118255615234375	-2.14385986328125	-1.987457275390625	9.890447058105469	0.33099837951660155	0.14425065002441406	0.141143798828125	-4.901885986328125	-3.711700439453125	10.25316860961914	0.04189852905273437	-0.5039794494628906	3.85284423828125	-4.726409912109375	-2.048492431640625	
210	0.84	0.0	0.0	0.0	0.0	0.003	0.003	0.006	0.006	9.919776028442381	0.23104046020507812	0.18255787658691405	0.9918212890625	-2.712249755859375	-1.537322998046875	9.827000714111328	-0.35134909362792965	0.32441432495117184	0.545501708984375	-4.95147705078125	-2.47955322265625	10.060435375976562	-0.011971008300781249	-0.059256491088867186	3.818511962890625	-4.665374755859375	-2.330780029296875	
211	0.844	0.0	0.0	0.0	0.0	0.006	0.003	0.003	0.006	9.94012674255371	0.25917232971191406	0.07302315063476562	-0.179290771484375	-2.079010009765625	-1.983642578125	9.859322436523437	0.833182177734375	0.14425065002441406	0.457763671875	-4.596710205078125	-3.177642822265625	10.043675964355469	0.07481880187988281	-0.35613749694824215	3.543853759765625	-4.7149658203125	-2.46429443359375	
212	0.848	0.0	0.0	0.0	0.0	0.003	0.003	0.003	0.003	9.90900212097168	0.2932897033691406	0.2088940948486328	1.461029052734375	-3.04412841796875	-1.64031982421875	9.731232647705077	-0.2376245147705078	0.3022679595947265	0.354766845703125	-4.89044189453125	-2.841949462890625	9.976039767456054	0.076614453125	0.03651157531738281	3.57818603515625	-4.6234130859375	-2.178192138671875	
213	0.852	0.0	0.0	0.0	0.0	0.003	0.003	0.003	0.003	9.937133990478515	0.1227028350830078	0.10953472595214843	4.58526611328125	-4.901885986328125	0.453948974609375	9.889848507690429	0.4381389038085937	0.11372457885742186	0.518798828125	-5.123138427734375	-2.590179443359375	10.02332525024414	-0.01975216369628906	-0.30526071166992186	3.4027099609375	-4.66156005859375	-2.269744873046875	
214	0.856	0.0	0.0	0.0	0.0	0.003	0.003	0.003	0.006	10.005967288208007	0.430956298828125	0.16759411621093748	1.560211181640625	-3.231048583984375	-1.27410888671875	9.77432827758789	0.1484405029296875	0.23822306518554687	0.38909912109375	-4.61578369140625	-3.5400390625	9.811438403320311	0.12150573425292968	-0.12150573425292968	3.704071044921875	-4.34112548828125	-2.11334228515625	
215	0.86	0.0	0.0	0.0	0.0	0.006	0.003	0.003	0.006	10.034099157714843	0.3447650390625	-0.031124621582031248	5.2032470703125	-4.852294921875	0.286102294921875	9.681552963256836	0.32561142578124996	0.31483751831054685	-0.152587890625	-4.711151123046875	-2.437591552734375	9.999383233642577	-0.028730419921875	-0.2609679809570312	3.604888916015625	-4.734039306640625	-2.2125244140625	
216	0.864	0.0	0.0	0.0	0.0	0.003	0.003	0.003	0.006	10.046070166015625	0.42018239135742186	0.1131260284423828	2.26593017578125	-3.6468505859375	-0.942230224609375	9.676166009521484	0.6458358978271485	0.3333925811767578	0.46539306640625	-4.695892333984375	-3.520965576171875	9.7683427734375	0.1484405029296875	-0.020949264526367185	3.72314453125	-4.520416259765625	-2.2735595703125	
217	0.868	0.0	0.0	0.0	0.0	0.006	0.003	0.003	0.006	10.036493359375	0.373495458984375	-0.08020575561523437	6.06536865234375	-5.22613525390625	0.576019287109375	9.735422500610351	-0.09217676391601562	0.24899697265624998	-0.270843505859375	-4.913330078125	-2.559661865234375	10.00417163696289	-0.02154781494140625	-0.3477577911376953	3.574371337890625	-4.642486572265625	-2.414703369140625	
218	0.872	0.0	0.0	0.0	0.0	0.003	0.003	0.006	0.003	9.922768780517577	-0.020350714111328123	0.05805939025878906	6.015777587890625	-5.031585693359375	0.782012939453125	9.694122521972655	0.4722562774658203	0.16759411621093748	0.247955322265625	-4.718780517578125	-3.265380859375	9.769539874267577	0.2262520568847656	-0.007781155395507812	3.582000732421875	-4.367828369140625	-2.23541259765625	
219	0.876	0.0	0.0	0.0	0.0	0.006	0.003	0.003	0.003	10.020931048583984	0.4375403533935547	-0.08678981018066406	5.786895751953125	-5.367279052734375	0.522613525390625	9.730035546875	-0.2376245147705078	0.2603694305419922	-0.32806396484375	-4.795074462890625	-2.986907958984375	9.83897172241211	-0.16699556579589842	-0.13946224670410157	3.6468505859375	-4.76837158203125	-2.044677734375	
220	0.88	0.0	0.0	0.0	0.0	0.003	0.003	0.006	0.003	9.910797772216796	-0.19991583862304688	0.0053869537353515625	5.42449951171875	-5.1116943359375	0.400543212890625	9.685742816162108	0.5865794067382812	0.08379705810546874	0.1068115234375	-4.78363037109375	-2.90679931640625	9.744400756835937	0.29388825378417965	-0.1005564697265625	3.765106201171875	-4.4708251953125	-2.2125244140625	
221	0.884	0.0	0.0	0.0	0.0	0.006	0.003	0.003	0.003	10.012551342773437	0.14125789794921875	-0.13587094421386717	6.313323974609375	-5.496978759765625	0.90789794921875	9.821613760375977	-0.15203180541992187	-0.020350714111328123	0.041961669921875	-4.756927490234375	-2.90679931640625	9.813832604980469	-0.15203180541992187	-0.105344873046875	3.5247802734375	-4.482269287109375	-2.040863037109375	
222	0.888	0.0	0.0	0.0	0.0	0.003	0.003	0.003	0.006	9.879673150634765	-0.08140285644531249	0.11911153259277343	5.016326904296875	-4.894256591796875	0.392913818359375	9.764751470947266	0.15741875915527342	0.0718260498046875	-0.019073486328125	-4.566192626953125	-2.44903564453125	10.102333905029296	0.040102877807617184	-0.34237083740234375	3.7384033203125	-4.505157470703125	-2.239227294921875	
223	0.892	0.0	0.0	0.0	0.0	0.003	0.006	0.003	0.003	9.753977563476562	-0.6584054565429687	-0.04848258361816406	1.54876708984375	-3.566741943359375	-1.46484375	9.755773214721678	0.19213468322753904	-0.05626373901367187	0.3662109375	-4.985809326171875	-3.009796142578125	9.734823950195311	-0.07362170104980469	-0.16041151123046873	3.6163330078125	-4.72259521484375	-2.1209716796875	
224	0.896	0.0	0.0	0.0	0.0	0.003	0.003	0.003	0.003	9.83837317199707	-0.4171896392822265	0.09636661682128905	3.662109375	-4.192352294921875	0.225067138671875	9.725247143554688	-0.076614453125	0.08439560852050781	0.766754150390625	-4.756927490234375	-2.521514892578125	10.017938296508788	0.16160861206054686	-0.36691140441894526	3.7841796875	-4.283905029296875	-2.178192138671875	
225	0.9	0.0	0.0	0.0	0.0	0.006	0.003	0.003	0.003	9.765948571777344	-0.3752911102294922	0.086191259765625	1.438140869140625	-3.28826904296875	-1.476287841796875	9.804854348754882	0.28490999755859375	-0.044891281127929686	0.308990478515625	-5.04302978515625	-2.613067626953125	10.187926614379883	-0.05985504150390625	-0.21128829650878905	3.803253173828125	-4.913330078125	-1.934051513671875	
226	0.904	0.0	0.0	0.0	0.0	0.003	0.006	0.003	0.003	9.80724855041504	-0.30705636291503907	0.009576806640625	-1.3427734375	-1.575469970703125	-2.880096435546875	9.86291373901367	0.05087678527832031	-0.008379705810546874	0.96893310546875	-4.93621826171875	-2.681732177734375	9.995193380737303	0.12090718383789062	-0.36631285400390623	3.841400146484375	-4.46319580078125	-2.410888671875	
227	0.908	0.0	0.0	0.0	0.0	-0.003	0.006	0.003	0.003	9.749787710571288	-0.7158662963867187	0.05805939025878906	-0.896453857421875	-2.079010009765625	-2.490997314453125	9.739612353515625	0.2932897033691406	-0.05805939025878906	0.518798828125	-4.863739013671875	-2.8839111328125	10.032303506469725	0.09696516723632811	-0.19033903198242186	3.749847412109375	-4.627227783203125	-1.70135498046875	
228	0.912	0.0	0.0	0.0	0.0	0.006	0.003	0.003	0.003	9.801861596679688	0.201112939453125	0.08140285644531249	-1.312255859375	-1.445770263671875	-2.5787353515625	9.918578927612304	0.06404489440917968	0.05746083984375	0.8087158203125	-4.8980712890625	-2.93731689453125	10.128071572875976	-0.030526071166992186	-0.28490999755859375	3.665924072265625	-4.535675048828125	-2.231597900390625	
229	0.916	0.0	0.0	0.0	0.0	0.009000000000000001	0.006	0.003	0.003	9.777919580078125	-0.2998737579345703	0.1562216583251953	-0.67901611328125	-2.132415771484375	-2.74658203125	9.771934075927733	0.35673604736328124	0.5267243652343749	0.32806396484375	-4.787445068359375	-2.78472900390625	10.130465774536132	0.03411737365722656	-0.19333178405761717	3.726959228515625	-4.75311279296875	-1.9073486328125	
230	0.92	0.0	0.0	0.0	0.0	0.009000000000000001	0.003	0.003	0.006	9.830592016601562	0.055066638183593745	0.143652099609375	-1.373291015625	-1.39617919921875	-2.3193359375	9.771335525512695	0.38786066894531246	0.1514332550048828	1.056671142578125	-4.817962646484375	-2.902984619140625	10.211868630981444	-0.040701428222656245	-0.632667788696289	3.513336181640625	-4.39453125	-2.216339111328125	
231	0.924	0.0	0.0	0.0	0.0	0.006	0.003	0.003	0.003	9.959280355834961	1.0115502014160156	0.4734533782958984	4.192352294921875	-4.4097900390625	0.133514404296875	9.76894132385254	0.14784195251464843	0.6248866333007812	0.202178955078125	-4.66156005859375	-2.92205810546875	10.171765753173828	0.004189852905273437	-0.1388636962890625	3.627777099609375	-4.718780517578125	-1.712799072265625	
232	0.928	0.0	0.0	0.0	0.0	0.003	0.003	0.006	0.003	10.035296258544921	0.8870517150878906	0.12090718383789062	2.18963623046875	-3.143310546875	-1.163482666015625	9.94072529296875	0.3238157745361328	0.09516951599121093	0.095367431640625	-4.669189453125	-2.803802490234375	10.39322940673828	-0.19033903198242186	-0.6649895111083984	3.66973876953125	-4.543304443359375	-2.292633056640625	
233	0.932	0.0	0.0	0.0	0.0	0.003	0.003	0.006	0.003	9.903615167236328	0.7009025360107421	0.32561142578124996	6.85882568359375	-5.634307861328125	0.30517578125	9.734823950195311	0.11252747802734374	0.5524620330810547	0.202178955078125	-4.4708251953125	-2.76947021484375	9.9461122467041	0.3058592620849609	-0.14425065002441406	3.559112548828125	-4.772186279296875	-2.14385986328125	
234	0.936	0.0	0.0	0.0	0.0	0.003	0.003	0.006	0.006	9.982623822021484	0.19033903198242186	0.15562310791015624	2.60162353515625	-3.44085693359375	-1.079559326171875	9.83178911743164	0.4914098907470703	0.19333178405761717	0.244140625	-4.89044189453125	-2.95257568359375	10.27232222290039	-0.0652419952392578	-0.6607996582031249	3.88336181640625	-4.32586669921875	-2.09808349609375	
235	0.9400000000000001	0.0	0.0	0.0	0.0	0.003	0.003	0.003	0.003	9.96586441040039	0.584185205078125	0.13646949462890623	5.7220458984375	-5.138397216796875	1.19781494140625	9.874286196899414	0.05985504150390625	-0.017357962036132813	-0.1068115234375	-4.680633544921875	-2.567291259765625	10.109516510009765	0.15322890625	-0.18315642700195311	3.71551513671875	-4.901885986328125	-2.002716064453125	
236	0.9440000000000001	0.0	0.0	0.0	0.0	0.006	0.003	0.003	0.006	9.898826763916015	0.3184288208007812	-0.24660277099609373	6.145477294921875	-5.832672119140625	0.247955322265625	9.903016616821288	0.3752911102294922	-0.06943184814453125	0.255584716796875	-4.558563232421875	-2.483367919921875	9.952696301269532	-0.12629413757324218	-0.39923312683105466	3.299713134765625	-4.730224609375	-2.14385986328125	
237	0.9480000000000001	0.0	0.0	0.0	0.0	0.006	0.003	0.003	0.006	9.65940659790039	0.5015852478027344	0.24001871643066405	8.510589599609375	-6.56890869140625	0.75531005859375	9.717465988159178	0.297479556274414	0.11611878051757812	-0.14495849609375	-4.711151123046875	-2.63214111328125	9.90840357055664	0.34656069030761716	-0.09217676391601562	3.681182861328125	-4.962921142578125	-2.040863037109375	
238	0.9520000000000001	0.0	0.0	0.0	0.0	0.006	0.003	0.006	0.003	9.682151513671874	-0.9349357482910156	0.04848258361816406	-1.392364501953125	-1.70135498046875	-1.697540283203125	9.79408044128418	0.2597708801269531	0.05327098693847656	0.30517578125	-5.08880615234375	-3.1890869140625	10.065223779296874	-0.1592144104003906	-0.31004911499023435	3.6163330078125	-5.07354736328125	-2.101898193359375	
239	0.9560000000000001	0.0	0.0	0.0	0.0	0.003	0.003	0.003	0.006	9.60793126220703	-0.5764040496826172	0.18076222534179687	-1.46484375	-1.67083740234375	-1.857757568359375	9.751583361816406	0.30466216125488277	0.12449848632812499	-0.301361083984375	-4.8065185546875	-3.170013427734375	10.067019430541992	0.2454056701660156	-0.22385785522460935	3.53240966796875	-4.364013671875	-2.285003662109375	
240	0.96	0.0	0.0	0.0	0.0	0.003	0.003	0.003	0.003	9.830592016601562	0.6308721374511719	0.076614453125	0.12969970703125	-2.11334228515625	-1.354217529296875	9.74799205932617	0.2609679809570312	-0.03172317199707031	0.54931640625	-4.894256591796875	-3.08990478515625	9.911994873046874	-0.034715924072265626	-0.3812766143798828	3.658294677734375	-4.78363037109375	-2.227783203125	
241	0.964	0.0	0.0	0.0	0.0	0.006	0.006	0.003	0.003	9.85692823486328	0.25318682556152344	0.11611878051757812	3.66973876953125	-4.364013671875	-1.31988525390625	9.707290631103515	0.2723404388427734	0.3010708587646484	0.461578369140625	-4.901885986328125	-3.009796142578125	9.791686239624022	0.12808978881835936	0.13287819213867186	3.90625	-4.619598388671875	-2.353668212890625	
242	0.968	0.0	0.0	0.0	0.0	0.006	0.003	0.006	0.006	9.810839852905273	0.15502455749511718	0.10953472595214843	2.986907958984375	-3.620147705078125	-1.537322998046875	9.911994873046874	0.19572598571777342	-0.07481880187988281	0.61798095703125	-4.913330078125	-3.173828125	10.154407791137695	-0.13946224670410157	-0.49200844116210934	3.459930419921875	-4.848480224609375	-2.201080322265625	
243	0.972	0.0	0.0	0.0	0.0	0.006	0.003	0.003	0.003	9.91438907470703	-0.6027402679443359	0.05746083984375	-1.1138916015625	-1.895904541015625	-1.30462646484375	9.74200655517578	0.2771288421630859	0.14724340209960937	0.03814697265625	-4.726409912109375	-2.99072265625	9.836577520751952	0.10953472595214843	-0.14784195251464843	3.86810302734375	-4.61578369140625	-2.37274169921875	
244	0.976	0.0	0.0	0.0	0.0	0.003	0.003	0.003	0.0	10.122086068725585	0.3298012786865234	-0.17657237243652343	2.933502197265625	-3.963470458984375	-0.06103515625	9.672574707031249	0.1274912384033203	0.2232593048095703	0.49591064453125	-5.07354736328125	-2.956390380859375	9.70369932861328	0.10115502014160156	0.07781155395507812	3.780364990234375	-4.810333251953125	-2.033233642578125	
245	0.98	0.0	0.0	0.0	0.0	0.006	0.003	0.003	0.006	10.151415039062499	0.28969840087890625	-0.11851298217773437	3.765106201171875	-4.37164306640625	0.17547607421875	9.7683427734375	0.11372457885742186	0.17896657409667968	0.2288818359375	-4.4403076171875	-2.964019775390625	9.87009634399414	-0.023942016601562498	-0.04189852905273437	3.5400390625	-4.6234130859375	-2.43377685546875	
246	0.984	0.0	0.0	0.0	0.0	0.006	0.003	0.003	0.003	10.007164389038085	0.0526724365234375	-0.31184476623535157	7.17926025390625	-6.137847900390625	0.217437744140625	9.763554370117188	0.15502455749511718	0.03591302490234375	0.476837158203125	-5.1116943359375	-2.727508544921875	9.86351228942871	0.07900865478515624	-0.06823474731445311	3.60107421875	-4.581451416015625	-2.101898193359375	
247	0.988	0.0	0.0	0.0	0.0	0.003	0.003	0.003	0.003	9.848548529052733	0.11192892761230468	0.06584054565429687	7.678985595703125	-6.30950927734375	1.12152099609375	9.618705169677733	0.25737667846679685	0.2507926239013672	0.537872314453125	-4.7454833984375	-2.964019775390625	9.963470208740233	0.06344634399414062	-0.2214636535644531	3.7689208984375	-4.245758056640625	-2.429962158203125	
248	0.992	0.0	0.0	0.0	0.0	0.006	0.006	0.003	0.003	9.760561618041992	-0.3381809844970703	-0.05686228942871093	2.02178955078125	-3.643035888671875	-1.323699951171875	9.769539874267577	0.16699556579589842	0.12569558715820311	0.3204345703125	-5.0506591796875	-2.574920654296875	9.874884747314452	0.13946224670410157	0.003591302490234375	3.559112548828125	-4.72259521484375	-2.02178955078125	
249	0.996	0.0	0.0	0.0	0.0	-0.003	0.003	0.003	0.003	9.815628256225585	-0.1514332550048828	0.06763619689941405	-0.823974609375	-1.598358154296875	-2.31170654296875	9.911994873046874	0.28490999755859375	0.11372457885742186	0.63323974609375	-4.92095947265625	-3.11279296875	10.184933862304687	-0.09935936889648436	-0.35793314819335936	3.71551513671875	-4.497528076171875	-2.23541259765625	
250	1.0	0.0	0.0	0.0	0.0	0.003	0.003	0.006	0.003	9.788693487548828	-0.13287819213867186	-0.037708676147460936	-0.213623046875	-2.1820068359375	-2.38800048828125	9.664195001220703	0.23642741394042968	0.10175357055664062	0.469207763671875	-5.138397216796875	-2.887725830078125	9.749189160156249	0.19213468322753904	-0.001197100830078125	3.490447998046875	-4.673004150390625	-2.0904541015625	
251	1.004	0.0	0.0	0.0	0.0	0.003	0.003	0.003	0.006	9.935936889648437	-0.3268085266113281	-0.030526071166992186	-0.072479248046875	-2.262115478515625	-1.522064208984375	9.790489138793944	0.27832594299316404	0.26216508178710934	0.484466552734375	-4.669189453125	-2.712249755859375	9.989806427001952	-0.054468087768554684	-0.22385785522460935	3.814697265625	-4.512786865234375	-2.094268798828125	
252	1.008	0.0	0.0	0.0	0.0	0.003	0.006	0.003	0.006	10.114903463745117	-0.47764323120117186	-0.32142157287597656	4.894256591796875	-4.791259765625	-1.38092041015625	9.897629663085937	0.11791443176269531	0.28311434631347654	0.240325927734375	-5.157470703125	-2.72369384765625	10.153809240722655	0.06045359191894531	-0.17298106994628906	3.70025634765625	-4.7607421875	-1.97601318359375	
253	1.012	0.0	0.0	0.0	0.0	0.003	0.003	0.006	0.003	10.06881508178711	-0.05746083984375	-0.2645592834472656	3.88336181640625	-4.12750244140625	-0.186920166015625	9.815628256225585	0.1897404815673828	0.1610100616455078	0.2593994140625	-4.37164306640625	-2.78472900390625	9.994594830322265	-0.1131260284423828	-0.21308394775390624	4.024505615234375	-4.489898681640625	-2.285003662109375	
254	1.016	0.0	0.0	0.0	0.0	-0.003	0.003	0.003	0.003	9.583989245605467	0.412401235961914	0.6464344482421874	5.519866943359375	-5.0048828125	0.019073486328125	9.719261639404296	0.2519897247314453	0.4495113616943359	0.14495849609375	-5.24139404296875	-2.605438232421875	9.952696301269532	0.19931728820800781	-0.06943184814453125	3.726959228515625	-4.81414794921875	-2.025604248046875	
255	1.02	0.0	0.0	0.0	0.0	0.003	0.006	0.003	0.003	9.86411083984375	-0.35015199279785153	-0.12629413757324218	4.150390625	-4.45556640625	-0.431060791015625	9.973047015380859	0.30705636291503907	-0.0909796630859375	1.12152099609375	-4.840850830078125	-2.95257568359375	10.274117874145507	-0.07122749938964844	-0.4746504791259765	3.658294677734375	-4.50897216796875	-1.712799072265625	
256	1.024	0.0	0.0	0.0	0.0	0.006	0.006	0.003	0.006	9.649829791259766	0.28431144714355466	0.5159504577636719	1.93023681640625	-2.8228759765625	-1.25885009765625	9.88266590270996	0.17657237243652343	0.2962824554443359	0.072479248046875	-5.016326904296875	-2.6397705078125	10.164583148193358	0.07362170104980469	-0.17836802368164062	3.74603271484375	-4.489898681640625	-2.29644775390625	
257	1.028	0.0	0.0	0.0	0.0	0.003	0.006	0.003	0.003	9.92755718383789	0.5015852478027344	0.12090718383789062	-0.5950927734375	-1.720428466796875	-2.14385986328125	9.866505041503906	0.3537432952880859	-0.006584054565429687	1.2664794921875	-4.669189453125	-2.872467041015625	10.149619387817383	-0.00239420166015625	-0.44113165588378905	3.753662109375	-4.573822021484375	-2.26593017578125	
258	1.032	0.0	0.0	0.0	0.0	0.003	0.006	0.003	0.006	9.718064538574218	0.4842272857666015	0.40581718139648437	2.025604248046875	-2.895355224609375	-1.129150390625	9.573215338134766	0.39264907226562495	0.49380409240722656	-0.16021728515625	-5.18798828125	-2.864837646484375	9.90241806640625	0.14425065002441406	-0.09696516723632811	3.612518310546875	-4.72259521484375	-2.254486083984375	
259	1.036	0.0	0.0	0.0	0.0	0.006	0.003	4.614	4.566	10.017938296508788	0.23882161560058593	0.10354922180175781	0.759124755859375	-2.628326416015625	-1.445770263671875	10.031704956054687	0.2699462371826172	-0.13587094421386717	0.80108642578125	-4.680633544921875	-2.89154052734375	10.383652600097655	-0.11073182678222655	-0.5530605834960938	3.68499755859375	-4.642486572265625	-1.888275146484375	
260	1.04	0.0	0.0	0.0	0.0	4.599	4.635	4.638	4.578	9.713874685668944	0.24181436767578124	0.32620997619628905	1.35040283203125	-2.788543701171875	-1.33514404296875	9.627683425903319	0.3315969299316406	0.41958384094238277	-0.034332275390625	-5.039215087890625	-2.758026123046875	9.976638317871092	0.054468087768554684	-0.11911153259277343	3.8604736328125	-4.581451416015625	-2.285003662109375	
261	1.044	0.0	0.0	0.0	0.0	4.605	4.632	4.641	4.593	9.847949978637695	0.38786066894531246	0.22445640563964842	-0.12969970703125	-2.349853515625	-1.708984375	9.78689783630371	0.23403321228027343	0.11073182678222655	0.4119873046875	-4.5928955078125	-3.0059814453125	10.149619387817383	0.011971008300781249	-0.4273649963378906	3.6468505859375	-4.8065185546875	-2.01416015625	
262	1.048	0.0	0.0	0.0	0.0	4.602	4.641	4.641	4.596	9.999383233642577	0.28431144714355466	0.0718260498046875	3.238677978515625	-3.814697265625	-0.560760498046875	9.693523971557617	0.3022679595947265	0.3902548706054687	0.255584716796875	-5.161285400390625	-2.70843505859375	10.024522351074218	0.0047884033203125	-0.1005564697265625	3.734588623046875	-4.695892333984375	-2.532958984375	
263	1.052	0.0	0.0	0.0	0.0	4.596	4.635	4.638	4.596	10.002974536132811	0.24121581726074218	0.0383072265625	-0.240325927734375	-2.18963623046875	-2.11334228515625	9.944316595458984	0.15023615417480468	0.008978256225585938	0.354766845703125	-4.5928955078125	-3.238677978515625	10.064026678466796	0.11133037719726561	-0.2885013000488281	3.498077392578125	-4.79888916015625	-1.964569091796875	
264	1.056	0.0	0.0	0.0	0.0	4.59	4.638	4.635	4.599	9.966462960815429	0.4100070343017578	0.13946224670410157	3.040313720703125	-3.74603271484375	-0.720977783203125	9.56363853149414	0.30705636291503907	0.39983167724609375	-0.164031982421875	-4.47845458984375	-3.177642822265625	9.834183319091796	0.09636661682128905	-0.022146365356445312	3.444671630859375	-4.45556640625	-2.15911865234375	
265	1.06	0.0	0.0	0.0	0.0	4.599	4.641	4.641	4.578	9.992799179077148	0.2501940734863281	0.025737667846679687	4.390716552734375	-4.638671875	-1.62506103515625	9.911396322631836	0.14544775085449219	0.018555062866210937	0.537872314453125	-4.840850830078125	-3.086090087890625	9.977236868286132	0.19213468322753904	-0.2819172454833984	3.509521484375	-5.031585693359375	-1.9683837890625	
266	1.064	0.0	0.0	0.0	0.0	4.605	4.644	4.641	4.572	10.034099157714843	0.33518823242187495	0.07003039855957031	3.658294677734375	-3.62396240234375	-0.621795654296875	9.724050042724608	0.2454056701660156	0.26815058593749996	0.05340576171875	-4.50897216796875	-3.246307373046875	9.858723886108399	-0.2537853759765625	-0.17477672119140625	3.673553466796875	-4.604339599609375	-2.269744873046875	
267	1.068	0.0	0.0	0.0	0.0	4.605	4.638	4.641	4.581	9.97184991455078	0.33758243408203126	0.058657940673828124	4.34112548828125	-4.779815673828125	-0.05340576171875	9.889848507690429	0.17058686828613281	-0.014963760375976562	0.591278076171875	-5.06591796875	-3.047943115234375	9.969455712890625	0.19931728820800781	-0.28311434631347654	3.631591796875	-4.94384765625	-2.101898193359375	
268	1.072	0.0	0.0	0.0	0.0	4.602	4.6290000000000004	4.641	4.59	9.930549935913085	0.28490999755859375	0.1580173095703125	3.15093994140625	-3.79180908203125	-0.66375732421875	9.603142858886718	0.36391865234375	0.36212300109863277	0.019073486328125	-4.833221435546875	-3.009796142578125	9.707290631103515	-0.1292868896484375	-0.0143652099609375	3.498077392578125	-4.23431396484375	-2.25067138671875	
269	1.076	0.0	0.0	0.0	0.0	4.599	4.641	4.644	4.599	10.013748443603514	0.22864625854492185	0.054468087768554684	3.6773681640625	-4.09698486328125	-0.0152587890625	9.778518130493163	0.023942016601562498	0.14185644836425781	0.316619873046875	-4.95147705078125	-2.979278564453125	9.925761532592773	0.14604630126953125	-0.08918401184082031	3.4637451171875	-4.543304443359375	-2.170562744140625	
270	1.08	0.0	0.0	0.0	0.0	4.593	4.638	4.641	4.599	9.966462960815429	0.062249243164062495	0.11073182678222655	4.970550537109375	-4.581451416015625	0.049591064453125	9.675567459106444	0.29867665710449215	0.2567781280517578	0.232696533203125	-4.726409912109375	-2.92205810546875	9.74859060974121	-0.1592144104003906	-0.008978256225585938	3.80706787109375	-4.35638427734375	-2.330780029296875	
271	1.084	0.0	0.0	0.0	0.0	4.599	4.641	4.632	4.599	9.983222372436522	0.3752911102294922	0.11911153259277343	3.875732421875	-4.009246826171875	0.06103515625	9.70369932861328	0.14784195251464843	0.18076222534179687	0.102996826171875	-4.840850830078125	-2.834320068359375	9.798868844604492	0.24959552307128904	-0.03411737365722656	3.650665283203125	-4.75311279296875	-2.521514892578125	
272	1.088	0.0	0.0	0.0	0.0	4.599	4.641	4.641	2.283	9.945513696289062	0.15442600708007811	0.13347674255371092	5.336761474609375	-4.772186279296875	0.3814697265625	9.743203656005859	0.22026655273437498	0.19871873779296872	0.095367431640625	-4.45556640625	-2.86865234375	9.771335525512695	-0.14245499877929688	0.03591302490234375	3.726959228515625	-4.497528076171875	-2.05230712890625	
273	1.092	0.0	0.0	0.0	0.0	0.009000000000000001	0.003	0.003	0.006	10.038887561035155	0.23104046020507812	0.02693476867675781	4.726409912109375	-4.833221435546875	0.244140625	9.750386260986328	0.09636661682128905	0.17178396911621094	0.457763671875	-4.894256591796875	-2.78472900390625	9.835380419921874	0.09696516723632811	-0.00718260498046875	3.810882568359375	-4.589080810546875	-2.437591552734375	
274	1.096	0.0	0.0	0.0	0.0	0.009000000000000001	0.003	0.006	0.003	9.91558617553711	-0.028730419921875	0.17776947326660156	5.34820556640625	-5.069732666015625	0.5950927734375	9.652223992919922	0.2807201446533203	0.17357962036132812	0.3662109375	-4.95147705078125	-3.05938720703125	10.032303506469725	-0.027533319091796873	-0.4638765716552734	3.85284423828125	-4.711151123046875	-2.05230712890625	
275	1.1	0.0	0.0	0.0	0.0	0.006	0.003	0.006	0.006	9.90840357055664	-0.19931728820800781	-0.047884033203124995	3.47137451171875	-4.070281982421875	-0.507354736328125	9.871293444824218	0.1945288848876953	0.05985504150390625	0.171661376953125	-4.978179931640625	-2.52532958984375	9.828796365356444	0.14724340209960937	0.0017956512451171875	3.88336181640625	-4.4403076171875	-2.11334228515625	
276	1.104	0.0	0.0	0.0	0.0	0.009000000000000001	0.003	0.006	0.003	9.962273107910155	-0.07003039855957031	0.07541735229492187	5.435943603515625	-4.913330078125	0.45013427734375	9.746794958496093	0.14305354919433594	0.15083470458984374	0.20599365234375	-4.543304443359375	-2.803802490234375	10.155604891967773	-0.19393033447265623	-0.43574470214843747	3.635406494140625	-4.428863525390625	-1.926422119140625	
277	1.108	0.0	0.0	0.0	0.0	0.003	0.003	0.003	0.003	9.83178911743164	-0.7044938385009765	0.076614453125	1.888275146484375	-3.25775146484375	-1.27410888671875	9.794678991699218	0.26755203552246093	0.07003039855957031	0.286102294921875	-5.0811767578125	-2.773284912109375	10.034099157714843	0.15981296081542967	-0.2920926025390625	3.9215087890625	-4.60052490234375	-2.17437744140625	
278	1.112	0.0	0.0	0.0	0.0	0.003	0.003	0.006	0.006	9.8694977935791	-0.3435679382324219	0.11671733093261719	0.152587890625	-4.268646240234375	0.1678466796875	9.94012674255371	0.21607669982910155	-0.034715924072265626	0.701904296875	-5.1727294921875	-2.475738525390625	10.1131078125	0.0005985504150390625	-0.5548562347412109	3.59344482421875	-4.69207763671875	-1.9378662109375	
279	1.116	0.0	0.0	0.0	0.0	0.003	0.003	0.003	0.003	9.87608184814453	-0.17118541870117188	0.076614453125	2.1820068359375	-3.3721923828125	-1.270294189453125	9.891644158935547	0.16280571289062498	0.05686228942871093	0.2593994140625	-4.8675537109375	-2.468109130859375	10.22204398803711	0.023343466186523436	-0.3752911102294922	3.543853759765625	-4.98199462890625	-2.071380615234375	
280	1.12	0.0	0.0	0.0	0.0	0.003	0.006	0.006	0.006	9.795876092529296	-0.11432312927246092	-0.09816226806640624	-0.064849853515625	-2.349853515625	-2.292633056640625	9.90840357055664	0.21966800231933592	-0.062249243164062495	0.743865966796875	-5.07354736328125	-2.6702880859375	10.230423693847655	0.03591302490234375	-0.5740098480224609	3.7689208984375	-4.6234130859375	-1.99127197265625	
281	1.124	0.0	0.0	0.0	0.0	0.006	0.003	0.003	0.003	9.731232647705077	-0.30406361083984373	0.20709844360351562	2.269744873046875	-3.37982177734375	-1.369476318359375	9.658209497070311	0.49021278991699213	0.36930560607910157	0.03814697265625	-5.031585693359375	-2.66265869140625	10.033500607299803	0.09756371765136718	-0.3190273712158203	3.574371337890625	-4.92095947265625	-1.873016357421875	
282	1.1280000000000001	0.0	0.0	0.0	0.0	0.006	0.003	0.003	0.003	9.85094273071289	-0.2214636535644531	-0.07541735229492187	-1.1444091796875	-1.567840576171875	-2.50244140625	10.005967288208007	0.19812018737792966	-0.08080430603027343	0.751495361328125	-5.0811767578125	-2.76947021484375	10.381258398437499	0.05985504150390625	-0.6051344696044921	3.60870361328125	-4.70733642578125	-1.987457275390625	
283	1.1320000000000001	0.0	0.0	0.0	0.0	0.003	0.003	0.006	0.003	9.735422500610351	0.5111620544433594	0.3393780853271484	1.0833740234375	-2.8228759765625	-1.331329345703125	9.779116680908203	0.3381809844970703	0.2154781494140625	0.240325927734375	-5.0506591796875	-2.841949462890625	10.08677159423828	-0.06883329772949218	-0.13108254089355467	3.765106201171875	-4.87518310546875	-2.43377685546875	
284	1.1360000000000001	0.0	0.0	0.0	0.0	0.009000000000000001	0.006	0.003	0.006	9.842563024902343	0.27174188842773433	0.059256491088867186	-0.20599365234375	-2.346038818359375	-1.987457275390625	9.788693487548828	0.30047230834960936	0.13646949462890623	0.3204345703125	-4.779815673828125	-3.082275390625	10.109516510009765	0.2316390106201172	-0.5416881256103515	3.604888916015625	-4.6539306640625	-2.140045166015625	
285	1.1400000000000001	0.0	0.0	0.0	0.0	0.006	0.003	0.003	0.009000000000000001	9.719261639404296	0.32501287536621093	0.4207809417724609	1.682281494140625	-3.27301025390625	-1.255035400390625	9.80066449584961	0.29388825378417965	0.34117373657226563	0.28228759765625	-5.084991455078125	-2.765655517578125	10.095151300048828	0.07122749938964844	-0.12689268798828124	3.6468505859375	-4.76837158203125	-2.033233642578125	
286	1.1440000000000001	0.0	0.0	0.0	0.0	0.006	0.003	0.006	0.006	9.89463691101074	-0.08319850769042968	0.02454056701660156	-0.286102294921875	-2.033233642578125	-2.25067138671875	9.93354268798828	0.20649989318847656	0.143652099609375	0.446319580078125	-4.749298095703125	-3.269195556640625	10.324994659423828	0.0047884033203125	-0.5572504364013672	3.704071044921875	-4.55474853515625	-2.346038818359375	
287	1.1480000000000001	0.0	0.0	0.0	0.0	0.003	0.006	0.003	0.006	9.725247143554688	0.479438882446289	0.4429273071289062	1.0223388671875	-2.605438232421875	-1.64031982421875	9.645041387939452	0.3705027069091797	0.3716998077392578	0.049591064453125	-4.70733642578125	-2.895355224609375	9.890447058105469	0.18375497741699218	-0.044891281127929686	3.566741943359375	-4.817962646484375	-2.079010009765625	
288	1.1520000000000001	0.0	0.0	0.0	0.0	0.006	0.006	0.006	0.003	10.101136804199218	0.6332663391113281	-0.009576806640625	4.108428955078125	-4.329681396484375	0.22125244140625	9.85094273071289	0.3699041564941406	0.21487959899902342	0.32806396484375	-4.98199462890625	-2.90679931640625	9.8694977935791	0.08080430603027343	-0.3585316986083984	3.795623779296875	-4.92095947265625	-2.277374267578125	
289	1.156	0.0	0.0	0.0	0.0	0.003	0.006	0.003	0.006	9.950302099609374	0.612915625	0.2657563842773437	2.857208251953125	-3.47900390625	-0.919342041015625	9.90122096557617	0.14544775085449219	0.15861585998535155	-0.1373291015625	-4.5928955078125	-3.082275390625	10.238204849243164	-0.003591302490234375	-0.1292868896484375	3.51715087890625	-4.604339599609375	-1.903533935546875	
290	1.16	0.0	0.0	0.0	0.0	0.003	0.003	0.003	0.006	10.110713610839843	0.42975919799804685	-0.21308394775390624	5.67626953125	-5.290985107421875	0.17547607421875	9.792284790039062	0.20530279235839843	0.18734627990722655	0.865936279296875	-4.57763671875	-3.021240234375	9.926360083007811	-0.10893617553710937	-0.43035774841308594	3.665924072265625	-4.688262939453125	-2.544403076171875	
291	1.164	0.0	0.0	0.0	0.0	0.003	0.003	0.003	0.003	9.93354268798828	0.6494272003173828	0.33578678283691404	4.688262939453125	-4.322052001953125	-0.164031982421875	9.636661682128906	0.5105635040283203	0.3136404174804687	-0.110626220703125	-4.718780517578125	-2.880096435546875	9.572018237304688	0.38666356811523434	-0.027533319091796873	3.612518310546875	-4.611968994140625	-2.048492431640625	
292	1.168	0.0	0.0	0.0	0.0	0.003	0.003	0.003	0.006	10.095749850463866	0.13108254089355467	-0.17776947326660156	5.931854248046875	-5.0811767578125	0.96893310546875	9.821015209960937	-0.08200140686035155	0.033518823242187495	-0.244140625	-4.85992431640625	-2.37274169921875	10.084377392578125	-0.258573779296875	-0.40222587890625	3.856658935546875	-4.947662353515625	-2.254486083984375	
293	1.172	0.0	0.0	0.0	0.0	0.003	0.006	0.003	0.003	9.904213717651366	-0.5135562561035156	-0.14963760375976562	4.55474853515625	-4.9896240234375	0.28228759765625	9.811438403320311	0.3441664886474609	0.07601590270996093	-0.034332275390625	-4.7607421875	-2.8228759765625	9.916783276367187	0.08140285644531249	-0.105344873046875	3.6163330078125	-4.413604736328125	-2.208709716796875	
294	1.176	0.0	0.0	0.0	0.0	0.006	0.006	0.003	0.003	9.855731134033203	0.32022447204589843	-0.13587094421386717	6.984710693359375	-5.832672119140625	1.556396484375	9.589974749755859	0.14245499877929688	0.004189852905273437	-0.1068115234375	-4.779815673828125	-2.8839111328125	9.598354455566406	-0.03591302490234375	-0.034715924072265626	3.948211669921875	-4.665374755859375	-2.43377685546875	
295	1.18	0.0	0.0	0.0	0.0	0.003	0.003	0.003	0.006	9.670180505371093	-0.3764882110595703	0.18854338073730467	3.27301025390625	-3.8909912109375	-0.3662109375	9.628281976318359	0.37289690856933594	0.24839842224121092	0.54931640625	-4.932403564453125	-2.593994140625	9.714473236083984	0.2561795776367187	0.20769699401855468	3.757476806640625	-4.3792724609375	-1.956939697265625	
296	1.184	0.0	0.0	0.0	0.0	0.003	0.003	0.003	0.006	9.879074600219726	-0.5674257934570313	0.032920272827148434	-0.69427490234375	-2.1209716796875	-2.0751953125	9.888052856445311	0.0	-0.12509703674316405	0.423431396484375	-4.978179931640625	-3.173828125	10.064026678466796	-0.3908534210205078	-0.013168109130859374	3.658294677734375	-4.82940673828125	-2.422332763671875	
297	1.188	0.0	0.0	0.0	0.0	0.003	0.003	0.003	0.006	9.661202249145507	-0.43993455505371093	0.10354922180175781	-0.148773193359375	-2.208709716796875	-1.819610595703125	9.597157354736327	0.3555389465332031	0.18375497741699218	0.640869140625	-4.848480224609375	-2.902984619140625	9.60793126220703	0.31962592163085934	0.06883329772949218	3.5552978515625	-4.444122314453125	-2.5177001953125	
298	1.192	0.0	0.0	0.0	0.0	0.006	0.003	0.003	0.003	9.798270294189452	0.011372457885742187	0.12150573425292968	-0.87738037109375	-1.895904541015625	-2.38800048828125	9.670180505371093	0.2041056915283203	0.3010708587646484	0.52642822265625	-4.909515380859375	-2.773284912109375	9.631873278808593	0.062249243164062495	0.07721300354003906	3.7689208984375	-4.550933837890625	-2.101898193359375	
299	1.196	0.0	0.0	0.0	0.0	0.003	0.006	0.006	0.006	9.861118087768554	-0.2711433380126953	0.18854338073730467	0.98419189453125	-2.811431884765625	-1.560211181640625	9.868899243164062	-0.025737667846679687	0.26396073303222656	0.385284423828125	-4.8065185546875	-3.1585693359375	10.266336718749999	-0.11133037719726561	-0.20769699401855468	3.80706787109375	-4.46319580078125	-2.1820068359375	
300	1.2	0.0	0.0	0.0	0.0	0.006	0.003	0.006	0.006	10.095151300048828	0.020949264526367185	-0.09995791931152344	2.132415771484375	-3.276824951171875	-1.392364501953125	9.809044201660155	0.13407529296874998	0.1927332336425781	0.125885009765625	-4.6844482421875	-3.387451171875	9.777321029663085	-0.12629413757324218	-0.031124621582031248	3.719329833984375	-4.58526611328125	-2.315521240234375	
301	1.204	0.0	0.0	0.0	0.0	-0.003	0.003	0.006	0.006	9.928754284667969	0.3429693878173828	-0.008379705810546874	4.21142578125	-4.100799560546875	0.06866455078125	9.715670336914062	0.4447229583740234	0.030526071166992186	0.48065185546875	-4.52423095703125	-2.52532958984375	9.79348189086914	0.25917232971191406	-0.3327940307617187	3.742218017578125	-4.31060791015625	-2.101898193359375	
302	1.208	0.0	0.0	0.0	0.0	0.003	0.003	0.003	0.006	10.08677159423828	-0.2328361114501953	-0.08020575561523437	2.79998779296875	-4.184722900390625	-0.2288818359375	9.926958633422851	0.086191259765625	0.26336218261718747	0.2593994140625	-5.084991455078125	-2.651214599609375	10.154407791137695	0.06045359191894531	-0.20949264526367187	3.871917724609375	-4.680633544921875	-1.56402587890625	
303	1.212	0.0	0.0	0.0	0.0	0.006	0.003	0.003	0.006	9.93354268798828	-0.1693897674560547	-0.11911153259277343	4.718780517578125	-4.459381103515625	-0.30517578125	9.983222372436522	0.013766659545898436	0.007781155395507812	0.682830810546875	-4.772186279296875	-2.9144287109375	10.184933862304687	-0.21607669982910155	-0.25737667846679685	3.665924072265625	-4.352569580078125	-2.613067626953125	
304	1.216	0.0	0.0	0.0	0.0	0.003	0.006	0.003	0.006	9.911396322631836	-0.033518823242187495	-0.06703764648437499	4.245758056640625	-4.8675537109375	-0.244140625	9.631274728393555	0.4752490295410156	0.3854664672851562	-0.11444091796875	-4.642486572265625	-2.84576416015625	9.886257205200195	0.3603273498535156	-0.29388825378417965	3.726959228515625	-4.46319580078125	-1.9073486328125	
305	1.22	0.0	0.0	0.0	0.0	0.006	0.003	0.003	0.003	9.655815295410155	-0.22685060729980466	0.19033903198242186	1.800537109375	-3.28826904296875	-1.24359130859375	9.810241302490233	0.3327940307617187	0.22744915771484372	0.789642333984375	-4.520416259765625	-2.75421142578125	10.028113653564452	0.0430956298828125	-0.3908534210205078	3.726959228515625	-4.657745361328125	-1.789093017578125	
306	1.224	0.0	0.0	0.0	0.0	0.003	0.003	0.006	0.003	9.77492682800293	0.03950432739257812	0.36571430358886714	1.0528564453125	-2.651214599609375	-1.743316650390625	9.987412225341796	-0.05626373901367187	0.40222587890625	0.362396240234375	-5.21087646484375	-2.742767333984375	10.386046801757812	-0.1304839904785156	-0.25797522888183594	3.753662109375	-4.73785400390625	-2.0751953125	
