	time	dac1	dac2	dac3	dac4	adc1.3	adc2.3	adc3.3	adc4.3	imu1accx	imu1accy	imu1accz	imu1gyrox	imu1gyroy	imu1gyroz	imu2accx	imu2accy	imu2accz	imu2gyrox	imu2gyroy	imu2gyroz	imu3accx	imu3accy	imu3accz	imu3gyrox	imu3gyroy	imu3gyroz	log
0	0.0	0.0	0.0	0.0	0.0	0.003	0.003	0.003	0.006	9.880870251464843	0.086191259765625	0.08978256225585937	2.6702880859375	-3.643035888671875	-0.92315673828125	9.78629928588867	0.24301146850585936	0.17178396911621094	0.25177001953125	-5.046844482421875	-2.819061279296875	10.013748443603514	0.037110125732421874	-0.23523031311035156	3.604888916015625	-4.302978515625	-2.208709716796875	Estabilizou em 10s, 2115 rpm
1	0.004	0.0	0.0	0.0	0.0	0.006	0.003	0.006	0.006	9.873089096069336	0.08080430603027343	0.08559270935058594	2.643585205078125	-3.509521484375	-0.881195068359375	9.788693487548828	0.23582886352539062	0.16460136413574217	0.308990478515625	-4.852294921875	-2.95257568359375	10.005368737792969	0.025139117431640625	-0.23582886352539062	3.9215087890625	-4.650115966796875	-2.170562744140625	Started
2	0.008	0.0	0.0	0.0	0.0	0.006	0.006	0.003	0.003	9.871293444824218	0.07481880187988281	0.09157821350097656	2.6702880859375	-3.742218017578125	-1.049041748046875	9.785102185058593	0.239420166015625	0.16759411621093748	0.408172607421875	-4.962921142578125	-2.925872802734375	10.013748443603514	0.031124621582031248	-0.2376245147705078	3.726959228515625	-4.61578369140625	-2.223968505859375	IMU1|LSM6DS3|0x6A|I2C-1|±2g (±19,6m/s²)|±125º/s|400Hz
3	0.012	0.0	0.0	0.0	0.0	0.006	0.003	0.003	0.003	9.867702142333984	0.08319850769042968	0.076614453125	2.559661865234375	-3.42559814453125	-0.81634521484375	9.790489138793944	0.2316390106201172	0.17357962036132812	0.255584716796875	-4.84466552734375	-2.727508544921875	10.006565838623047	0.0383072265625	-0.23403321228027343	3.719329833984375	-4.596710205078125	-2.26593017578125	IMU2|LSM6DS3|0x6B|I2C-1|±2g (±19,6m/s²)|±125º/s|400Hz
4	0.016	0.0	0.0	0.0	0.0	0.003	0.006	0.003	0.003	9.865906491088866	0.07841010437011718	0.08678981018066406	2.696990966796875	-3.3721923828125	-0.728607177734375	9.794678991699218	0.2472013214111328	0.15562310791015624	0.4425048828125	-4.802703857421875	-2.87628173828125	10.000580334472655	0.031124621582031248	-0.2424129180908203	3.80706787109375	-4.67681884765625	-2.277374267578125	IMU3|LSM6DS3|0x6B|I2C-2|±2g (±19,6m/s²)|±125º/s|400Hz
5	0.02	0.0	0.0	0.0	0.0	0.006	0.003	0.003	0.006	9.872490545654296	0.07721300354003906	0.07601590270996093	2.658843994140625	-3.475189208984375	-0.736236572265625	9.792284790039062	0.24899697265624998	0.16699556579589842	0.41961669921875	-4.848480224609375	-2.90679931640625	9.998784683227539	0.03172317199707031	-0.2376245147705078	3.692626953125	-4.730224609375	-2.178192138671875	ADC|ADS1015|0|0|1|0|±6,144 V|2400 SPS
6	0.024	0.0	0.0	0.0	0.0	0.006	0.006	0.003	0.006	9.872490545654296	0.07841010437011718	0.07242460021972656	2.49481201171875	-3.597259521484375	-0.64849853515625	9.788693487548828	0.24301146850585936	0.16998831787109375	0.125885009765625	-4.69970703125	-2.62451171875	10.00417163696289	0.03411737365722656	-0.24361001892089842	3.96728515625	-4.756927490234375	-2.002716064453125	Gen1|Disabled
7	0.028	0.0	0.0	0.0	0.0	0.006	0.006	0.006	0.003	9.87009634399414	0.07362170104980469	0.08978256225585937	2.6397705078125	-3.44085693359375	-0.621795654296875	9.78629928588867	0.23702596435546874	0.1592144104003906	0.400543212890625	-5.10406494140625	-3.093719482421875	10.001777435302733	0.037110125732421874	-0.23343466186523437	3.673553466796875	-4.55474853515625	-2.025604248046875	Gen2|Enabled|Noise|0.0|10.0|1668
8	0.032	0.0	0.0	0.0	0.0	0.003	0.003	0.003	0.003	9.858723886108399	0.07900865478515624	0.08379705810546874	2.49481201171875	-3.559112548828125	-0.70953369140625	9.788693487548828	0.24779987182617186	0.14903905334472656	0.1983642578125	-4.9591064453125	-2.8533935546875	10.002974536132811	0.03232172241210937	-0.23702596435546874	3.734588623046875	-4.535675048828125	-2.285003662109375	Gen3|Enabled|Noise|0.0|10.0|128
9	0.036000000000000004	0.0	0.0	0.0	0.0	0.003	0.003	0.006	0.006	9.868300692749022	0.07481880187988281	0.08738836059570312	2.590179443359375	-3.66973876953125	-0.774383544921875	9.785102185058593	0.239420166015625	0.16220716247558592	0.25177001953125	-4.85992431640625	-2.960205078125	10.01075569152832	0.034715924072265626	-0.24959552307128904	3.7384033203125	-4.70733642578125	-2.101898193359375	Gen4|Enabled|Noise|0.0|10.0|128
10	0.04	0.0	0.0	0.0	0.0	0.006	0.006	0.006	0.003	9.871293444824218	0.07122749938964844	0.10594342346191406	2.4871826171875	-3.814697265625	-0.8392333984375	9.787496386718749	0.2442085693359375	0.15741875915527342	0.396728515625	-4.886627197265625	-2.7923583984375	10.011952792358398	0.032920272827148434	-0.23882161560058593	3.94439697265625	-4.6539306640625	-2.28118896484375	Ctrl|Disabled
11	0.044	0.0	0.0	0.0	0.0	0.006	0.003	0.003	0.006	9.879673150634765	0.076614453125	0.0909796630859375	2.63214111328125	-3.582000732421875	-0.782012939453125	9.78629928588867	0.24061726684570311	0.1562216583251953	0.179290771484375	-4.63104248046875	-2.750396728515625	10.002375985717773	0.031124621582031248	-0.24181436767578124	3.692626953125	-4.57000732421875	-2.197265625	
12	0.048	0.0	0.0	0.0	0.0	0.0	0.003	0.003	0.006	9.871293444824218	0.07481880187988281	0.09217676391601562	2.5177001953125	-3.520965576171875	-1.04522705078125	9.783306533813477	0.23702596435546874	0.1592144104003906	0.362396240234375	-4.8828125	-2.811431884765625	10.007762939453125	0.030526071166992186	-0.239420166015625	3.692626953125	-4.657745361328125	-2.307891845703125	
13	0.052000000000000005	0.0	0.0	0.0	0.0	0.006	0.003	0.006	0.006	9.87009634399414	0.07302315063476562	0.08559270935058594	2.532958984375	-3.41033935546875	-0.827789306640625	9.783905084228515	0.23642741394042968	0.1514332550048828	0.339508056640625	-4.8980712890625	-2.777099609375	9.996989031982421	0.02693476867675781	-0.2442085693359375	3.887176513671875	-4.7149658203125	-2.26593017578125	
14	0.056	0.0	0.0	0.0	0.0	-0.003	0.003	0.003	0.003	9.874884747314452	0.06943184814453125	0.08439560852050781	2.70843505859375	-3.688812255859375	-1.094818115234375	9.783905084228515	0.23582886352539062	0.15023615417480468	0.301361083984375	-4.93621826171875	-2.8839111328125	10.006565838623047	0.023942016601562498	-0.23223756103515625	3.65447998046875	-4.688262939453125	-2.03704833984375	
15	0.06	0.0	0.0	0.0	0.0	0.003	0.006	0.003	0.003	9.87727894897461	0.07362170104980469	0.08559270935058594	2.704620361328125	-3.772735595703125	-0.835418701171875	9.784503634643555	0.23403321228027343	0.1580173095703125	0.095367431640625	-4.650115966796875	-2.857208251953125	10.011354241943359	0.028131869506835935	-0.2280477081298828	3.662109375	-4.67681884765625	-2.12860107421875	
16	0.064	0.0	0.0	0.0	0.0	0.003	0.006	0.003	0.003	9.868899243164062	0.07362170104980469	0.08319850769042968	2.55584716796875	-3.604888916015625	-0.64849853515625	9.787496386718749	0.2292448089599609	0.16160861206054686	0.316619873046875	-4.8675537109375	-2.605438232421875	10.001777435302733	0.022146365356445312	-0.23702596435546874	3.734588623046875	-4.634857177734375	-2.033233642578125	
17	0.068	0.0	0.0	0.0	0.0	0.009000000000000001	0.003	0.003	0.003	9.87727894897461	0.06643909606933593	0.08499415893554688	2.60162353515625	-3.376007080078125	-0.888824462890625	9.785700735473633	0.23223756103515625	0.15741875915527342	0.225067138671875	-4.791259765625	-2.849578857421875	10.00417163696289	0.016759411621093748	-0.2232593048095703	3.7384033203125	-4.852294921875	-2.162933349609375	
18	0.07200000000000001	0.0	0.0	0.0	0.0	0.003	0.003	0.006	0.003	9.878476049804688	0.06643909606933593	0.10235212097167969	2.727508544921875	-3.604888916015625	-0.698089599609375	9.78629928588867	0.22744915771484372	0.17178396911621094	0.48828125	-4.673004150390625	-2.841949462890625	10.002974536132811	0.016759411621093748	-0.21487959899902342	3.681182861328125	-4.425048828125	-2.002716064453125	
19	0.076	0.0	0.0	0.0	0.0	0.003	0.003	0.003	0.003	9.866505041503906	0.06344634399414062	0.09457096557617187	2.597808837890625	-3.509521484375	-0.74005126953125	9.784503634643555	0.2214636535644531	0.17298106994628906	0.2593994140625	-4.95147705078125	-2.651214599609375	10.007164389038085	0.022146365356445312	-0.21966800231933592	3.688812255859375	-4.60052490234375	-2.193450927734375	
20	0.08	0.0	0.0	0.0	0.0	0.003	0.003	0.003	0.003	9.86291373901367	0.052073886108398436	0.10235212097167969	2.47955322265625	-3.60870361328125	-0.820159912109375	9.78629928588867	0.2214636535644531	0.18555062866210936	0.293731689453125	-4.886627197265625	-2.918243408203125	10.00417163696289	0.014963760375976562	-0.22026655273437498	3.71551513671875	-4.57000732421875	-2.06756591796875	
21	0.084	0.0	0.0	0.0	0.0	0.0	0.003	0.006	0.003	9.87009634399414	0.05805939025878906	0.09756371765136718	2.658843994140625	-3.566741943359375	-0.6866455078125	9.789890588378906	0.2184709014892578	0.1801636749267578	0.54931640625	-5.0811767578125	-2.895355224609375	10.006565838623047	0.009576806640625	-0.2088940948486328	3.66973876953125	-4.634857177734375	-2.002716064453125	
22	0.088	0.0	0.0	0.0	0.0	0.003	0.003	0.003	0.003	9.865906491088866	0.047884033203124995	0.10175357055664062	2.62451171875	-3.414154052734375	-0.782012939453125	9.783905084228515	0.21906945190429686	0.17657237243652343	0.6103515625	-4.9591064453125	-2.902984619140625	10.006565838623047	0.015562310791015624	-0.22505495605468748	3.7078857421875	-4.741668701171875	-2.010345458984375	
23	0.092	0.0	0.0	0.0	0.0	0.003	0.003	0.003	0.003	9.85692823486328	0.04548983154296875	0.1005564697265625	2.620697021484375	-3.498077392578125	-0.823974609375	9.78629928588867	0.22086510314941404	0.17956512451171874	0.415802001953125	-4.9591064453125	-2.655029296875	10.011354241943359	0.013168109130859374	-0.22385785522460935	3.650665283203125	-4.50897216796875	-2.32696533203125	
24	0.096	0.0	0.0	0.0	0.0	0.006	0.003	0.003	0.003	9.865307940673828	0.054468087768554684	0.1005564697265625	2.6702880859375	-3.45611572265625	-0.762939453125	9.781510882568359	0.2232593048095703	0.1753752716064453	0.49591064453125	-4.64630126953125	-2.841949462890625	10.006565838623047	0.009576806640625	-0.2214636535644531	3.7384033203125	-4.917144775390625	-2.17437744140625	
25	0.1	0.0	0.0	0.0	0.0	0.006	0.003	0.003	0.003	9.865906491088866	0.04967968444824218	0.105344873046875	2.620697021484375	-3.631591796875	-0.804901123046875	9.78629928588867	0.21787235107421873	0.17118541870117188	0.286102294921875	-4.73785400390625	-2.79998779296875	10.00417163696289	0.014963760375976562	-0.22385785522460935	3.82232666015625	-4.581451416015625	-2.170562744140625	
26	0.10400000000000001	0.0	0.0	0.0	0.0	0.006	0.003	0.003	0.006	9.859920986938477	0.05626373901367187	0.09816226806640624	2.307891845703125	-3.60870361328125	-0.667572021484375	9.787496386718749	0.2184709014892578	0.1753752716064453	0.324249267578125	-4.7760009765625	-2.92205810546875	10.01075569152832	0.015562310791015624	-0.22685060729980466	3.658294677734375	-4.535675048828125	-2.1514892578125	
27	0.108	0.0	0.0	0.0	0.0	0.003	0.003	0.003	0.003	9.860519537353515	0.06105214233398437	0.09516951599121093	2.574920654296875	-3.513336181640625	-0.78582763671875	9.791087689208984	0.22086510314941404	0.17357962036132812	0.25177001953125	-4.98199462890625	-2.78472900390625	10.008960040283203	0.007781155395507812	-0.22385785522460935	3.8299560546875	-4.8675537109375	-2.124786376953125	
28	0.112	0.0	0.0	0.0	0.0	0.003	0.003	0.003	0.003	9.86291373901367	0.06763619689941405	0.09217676391601562	2.66265869140625	-3.833770751953125	-0.732421875	9.785102185058593	0.22685060729980466	0.17178396911621094	0.392913818359375	-4.878997802734375	-2.887725830078125	10.007762939453125	0.01975216369628906	-0.22385785522460935	3.7078857421875	-4.550933837890625	-2.208709716796875	
29	0.116	0.0	0.0	0.0	0.0	0.003	0.006	0.003	0.006	9.85752678527832	0.06045359191894531	0.08020575561523437	2.643585205078125	-3.662109375	-0.81634521484375	9.779715231323241	0.23104046020507812	0.17178396911621094	0.385284423828125	-4.978179931640625	-2.796173095703125	10.019733947753906	0.033518823242187495	-0.23104046020507812	3.604888916015625	-4.467010498046875	-2.0904541015625	
30	0.12	0.0	0.0	0.0	0.0	0.006	0.003	0.006	0.006	9.86351228942871	0.06643909606933593	0.08798691101074219	2.704620361328125	-3.421783447265625	-0.720977783203125	9.787496386718749	0.22744915771484372	0.16041151123046873	0.133514404296875	-4.726409912109375	-2.689361572265625	9.999981784057617	0.023343466186523436	-0.2316390106201172	3.59344482421875	-4.711151123046875	-2.14385986328125	
31	0.124	0.0	0.0	0.0	0.0	0.003	0.003	0.003	0.003	9.867702142333984	0.06823474731445311	0.09935936889648436	2.742767333984375	-3.6468505859375	-0.762939453125	9.78629928588867	0.2376245147705078	0.17178396911621094	0.560760498046875	-4.8980712890625	-2.93731689453125	9.995791931152343	0.040102877807617184	-0.2292448089599609	3.6773681640625	-4.573822021484375	-2.18963623046875	
32	0.128	0.0	0.0	0.0	0.0	0.006	0.006	0.006	0.003	9.872490545654296	0.07302315063476562	0.09756371765136718	2.37274169921875	-3.77655029296875	-0.84686279296875	9.78629928588867	0.2316390106201172	0.16340426330566404	0.3509521484375	-4.7607421875	-2.758026123046875	10.00417163696289	0.037708676147460936	-0.22206220397949217	3.665924072265625	-4.70733642578125	-2.08282470703125	
33	0.132	0.0	0.0	0.0	0.0	0.003	0.006	0.003	0.003	9.867103591918944	0.07481880187988281	0.086191259765625	2.582550048828125	-3.582000732421875	-0.66375732421875	9.78629928588867	0.2346317626953125	0.1610100616455078	0.041961669921875	-4.924774169921875	-2.849578857421875	10.00417163696289	0.0383072265625	-0.22385785522460935	3.47900390625	-4.505157470703125	-2.201080322265625	
34	0.136	0.0	0.0	0.0	0.0	0.003	0.006	0.003	0.003	9.88386300354004	0.07003039855957031	0.09696516723632811	2.452850341796875	-3.543853759765625	-0.78582763671875	9.78629928588867	0.22744915771484372	0.16639701538085935	0.209808349609375	-4.55474853515625	-2.788543701171875	10.005967288208007	0.032920272827148434	-0.229843359375	3.692626953125	-4.8065185546875	-2.056121826171875	
35	0.14	0.0	0.0	0.0	0.0	0.003	0.006	0.003	0.003	9.87608184814453	0.06943184814453125	0.09636661682128905	2.57110595703125	-3.726959228515625	-0.67138671875	9.78629928588867	0.24181436767578124	0.16340426330566404	0.3509521484375	-4.741668701171875	-2.727508544921875	10.015544094848632	0.034715924072265626	-0.23104046020507812	3.86810302734375	-4.802703857421875	-2.285003662109375	
36	0.14400000000000002	0.0	0.0	0.0	0.0	0.003	0.003	0.006	0.006	9.868899243164062	0.07781155395507812	0.09756371765136718	2.620697021484375	-3.56292724609375	-0.621795654296875	9.794678991699218	0.2424129180908203	0.1640028137207031	0.1678466796875	-4.913330078125	-2.7618408203125	10.01075569152832	0.03950432739257812	-0.23642741394042968	3.66973876953125	-4.558563232421875	-2.0599365234375	
37	0.148	0.0	0.0	0.0	0.0	0.003	0.003	0.003	0.006	9.86411083984375	0.07481880187988281	0.1005564697265625	2.674102783203125	-3.42559814453125	-0.812530517578125	9.788693487548828	0.24121581726074218	0.17776947326660156	0.209808349609375	-4.734039306640625	-2.933502197265625	10.01015714111328	0.03890577697753906	-0.2262520568847656	3.742218017578125	-4.60052490234375	-2.28118896484375	
38	0.152	0.0	0.0	0.0	0.0	0.003	0.003	0.006	0.003	9.87608184814453	0.076614453125	0.08978256225585937	2.6397705078125	-3.68499755859375	-0.705718994140625	9.787496386718749	0.23523031311035156	0.16639701538085935	0.293731689453125	-4.642486572265625	-2.7923583984375	10.002974536132811	0.03411737365722656	-0.23523031311035156	3.597259521484375	-4.673004150390625	-1.995086669921875	
39	0.156	0.0	0.0	0.0	0.0	0.006	0.006	0.006	0.003	9.874884747314452	0.07900865478515624	0.08439560852050781	2.52532958984375	-3.7689208984375	-0.7476806640625	9.789890588378906	0.24301146850585936	0.16639701538085935	0.06866455078125	-4.749298095703125	-2.841949462890625	10.007762939453125	0.033518823242187495	-0.23223756103515625	3.841400146484375	-4.680633544921875	-2.101898193359375	
40	0.16	0.0	0.0	0.0	0.0	0.003	0.003	0.003	0.003	9.868899243164062	0.07362170104980469	0.09696516723632811	2.67791748046875	-3.662109375	-0.865936279296875	9.79348189086914	0.23822306518554687	0.16220716247558592	0.286102294921875	-4.909515380859375	-2.941131591796875	10.008361489868163	0.033518823242187495	-0.23044190979003906	3.47137451171875	-4.6234130859375	-2.109527587890625	
41	0.164	0.0	0.0	0.0	0.0	0.006	0.003	0.003	0.003	9.866505041503906	0.06763619689941405	0.09576806640624999	2.689361572265625	-3.559112548828125	-0.66375732421875	9.787496386718749	0.23642741394042968	0.1610100616455078	0.51116943359375	-4.711151123046875	-2.8533935546875	10.005368737792969	0.032920272827148434	-0.23642741394042968	3.753662109375	-4.50897216796875	-2.124786376953125	
42	0.168	0.0	0.0	0.0	0.0	0.003	0.006	0.003	0.003	9.860519537353515	0.06763619689941405	0.09816226806640624	2.628326416015625	-3.56292724609375	-0.637054443359375	9.788693487548828	0.24480711975097655	0.16460136413574217	0.377655029296875	-4.78363037109375	-2.750396728515625	10.005368737792969	0.033518823242187495	-0.2328361114501953	3.765106201171875	-4.634857177734375	-2.239227294921875	
43	0.17200000000000001	0.0	0.0	0.0	0.0	0.003	0.003	0.003	0.003	9.86291373901367	0.06883329772949218	0.08020575561523437	2.5177001953125	-3.620147705078125	-0.667572021484375	9.787496386718749	0.23403321228027343	0.1801636749267578	0.232696533203125	-4.795074462890625	-2.796173095703125	9.997587582397461	0.032920272827148434	-0.2346317626953125	3.810882568359375	-4.604339599609375	-2.0751953125	
44	0.176	0.0	0.0	0.0	0.0	0.003	0.006	0.003	0.003	9.871891995239258	0.07003039855957031	0.08798691101074219	2.5177001953125	-3.5247802734375	-0.904083251953125	9.787496386718749	0.24001871643066405	0.17238251953125	0.331878662109375	-5.054473876953125	-2.841949462890625	9.999383233642577	0.032920272827148434	-0.24301146850585936	3.83758544921875	-4.638671875	-2.197265625	
45	0.18	0.0	0.0	0.0	0.0	0.003	0.003	0.003	0.003	9.868899243164062	0.06584054565429687	0.0796072052001953	2.55584716796875	-3.387451171875	-0.7171630859375	9.792284790039062	0.23523031311035156	0.16759411621093748	0.40435791015625	-4.878997802734375	-2.74658203125	10.01674119567871	0.034715924072265626	-0.23582886352539062	3.604888916015625	-4.520416259765625	-2.05230712890625	
46	0.184	0.0	0.0	0.0	0.0	0.009000000000000001	0.003	0.003	0.003	9.865307940673828	0.06763619689941405	0.09157821350097656	2.552032470703125	-3.54766845703125	-0.86212158203125	9.789890588378906	0.2316390106201172	0.16280571289062498	0.423431396484375	-4.619598388671875	-2.635955810546875	10.014945544433592	0.0383072265625	-0.2376245147705078	3.520965576171875	-4.52423095703125	-2.231597900390625	
47	0.188	0.0	0.0	0.0	0.0	0.0	0.003	0.003	0.006	9.86411083984375	0.06883329772949218	0.08499415893554688	2.704620361328125	-3.53240966796875	-0.736236572265625	9.785102185058593	0.23403321228027343	0.1562216583251953	0.2288818359375	-4.57000732421875	-2.7313232421875	10.008361489868163	0.030526071166992186	-0.2501940734863281	3.6468505859375	-4.8370361328125	-2.05230712890625	
48	0.192	0.0	0.0	0.0	0.0	0.003	0.003	0.003	0.006	9.864709390258788	0.0718260498046875	0.086191259765625	2.57110595703125	-3.3111572265625	-0.78582763671875	9.785102185058593	0.23702596435546874	0.1562216583251953	0.05340576171875	-4.66156005859375	-2.902984619140625	10.008361489868163	0.047884033203124995	-0.239420166015625	3.765106201171875	-4.718780517578125	-2.117156982421875	
49	0.196	0.0	0.0	0.0	0.0	0.006	0.003	0.003	0.006	9.871293444824218	0.0718260498046875	0.08678981018066406	2.50244140625	-3.536224365234375	-0.93841552734375	9.785102185058593	0.24121581726074218	0.1484405029296875	0.576019287109375	-5.130767822265625	-2.979278564453125	10.00417163696289	0.04129997863769531	-0.2424129180908203	3.894805908203125	-4.73785400390625	-2.1820068359375	
50	0.2	0.0	0.0	0.0	0.0	0.006	0.003	0.003	0.006	9.8694977935791	0.07481880187988281	0.08559270935058594	2.532958984375	-3.60107421875	-0.812530517578125	9.787496386718749	0.24181436767578124	0.1562216583251953	0.19073486328125	-4.8980712890625	-2.841949462890625	10.00417163696289	0.034715924072265626	-0.24181436767578124	3.482818603515625	-4.608154296875	-2.323150634765625	
51	0.20400000000000001	0.0	0.0	0.0	0.0	0.003	0.003	0.006	0.003	9.87608184814453	0.08080430603027343	0.08259995727539061	2.536773681640625	-3.692626953125	-0.7171630859375	9.77432827758789	0.2442085693359375	0.1514332550048828	0.0762939453125	-4.8828125	-2.979278564453125	9.998784683227539	0.03591302490234375	-0.2507926239013672	3.543853759765625	-4.57000732421875	-2.285003662109375	
52	0.20800000000000002	0.0	0.0	0.0	0.0	0.006	0.003	0.003	0.006	9.873089096069336	0.07781155395507812	0.0796072052001953	2.70843505859375	-3.459930419921875	-0.823974609375	9.78629928588867	0.24301146850585936	0.16639701538085935	0.400543212890625	-4.772186279296875	-2.76947021484375	10.002974536132811	0.0383072265625	-0.24301146850585936	3.910064697265625	-4.63104248046875	-2.216339111328125	
53	0.212	0.0	0.0	0.0	0.0	0.003	0.003	0.003	0.003	9.86291373901367	0.07062894897460938	0.08200140686035155	2.38037109375	-3.47900390625	-0.675201416015625	9.785700735473633	0.24181436767578124	0.16041151123046873	0.1068115234375	-4.749298095703125	-2.838134765625	10.00417163696289	0.03651157531738281	-0.2376245147705078	3.551483154296875	-4.680633544921875	-2.147674560546875	
54	0.216	0.0	0.0	0.0	0.0	0.0	0.006	0.003	0.003	9.868300692749022	0.07422025146484375	0.09038111267089843	2.64739990234375	-3.7384033203125	-0.804901123046875	9.798868844604492	0.23702596435546874	0.1466448516845703	0.469207763671875	-4.8065185546875	-2.92205810546875	10.006565838623047	0.03890577697753906	-0.2346317626953125	3.864288330078125	-4.7149658203125	-2.166748046875	
55	0.22	0.0	0.0	0.0	0.0	0.003	0.003	0.006	0.003	9.87009634399414	0.0652419952392578	0.08439560852050781	2.69317626953125	-3.66973876953125	-0.843048095703125	9.792284790039062	0.2316390106201172	0.15981296081542967	0.4425048828125	-5.077362060546875	-2.76947021484375	10.00417163696289	0.022744915771484374	-0.2376245147705078	3.704071044921875	-4.650115966796875	-2.262115478515625	
56	0.224	0.0	0.0	0.0	0.0	0.003	0.003	0.006	0.006	9.875483297729492	0.061650692749023434	0.08020575561523437	2.506256103515625	-3.543853759765625	-0.629425048828125	9.78629928588867	0.23044190979003906	0.16340426330566404	0.244140625	-4.749298095703125	-2.8228759765625	9.995791931152343	0.017357962036132813	-0.23702596435546874	3.620147705078125	-4.76837158203125	-2.15911865234375	
57	0.228	0.0	0.0	0.0	0.0	0.006	0.003	0.006	0.003	9.8694977935791	0.05087678527832031	0.07900865478515624	2.61688232421875	-3.612518310546875	-0.782012939453125	9.79348189086914	0.22565350646972654	0.1640028137207031	0.22125244140625	-5.062103271484375	-3.093719482421875	10.000580334472655	0.016759411621093748	-0.22026655273437498	3.4942626953125	-4.611968994140625	-2.132415771484375	
58	0.232	0.0	0.0	0.0	0.0	0.006	0.003	0.006	0.006	9.871891995239258	0.05746083984375	0.09038111267089843	2.79998779296875	-3.704071044921875	-0.823974609375	9.79348189086914	0.229843359375	0.1657984649658203	0.19073486328125	-4.913330078125	-2.8228759765625	10.005967288208007	0.011971008300781249	-0.23104046020507812	3.72314453125	-4.82177734375	-2.349853515625	
59	0.23600000000000002	0.0	0.0	0.0	0.0	0.003	0.003	0.003	0.003	9.878476049804688	0.0526724365234375	0.09756371765136718	2.582550048828125	-3.7841796875	-0.90789794921875	9.78629928588867	0.21966800231933592	0.17058686828613281	-0.041961669921875	-4.749298095703125	-2.8228759765625	10.007762939453125	0.010175357055664061	-0.2316390106201172	3.53240966796875	-4.642486572265625	-2.166748046875	
60	0.24	0.0	0.0	0.0	0.0	0.0	0.003	0.003	0.006	9.867702142333984	0.05626373901367187	0.1005564697265625	2.78472900390625	-3.604888916015625	-0.7476806640625	9.78689783630371	0.2166752502441406	0.17956512451171874	0.232696533203125	-4.749298095703125	-2.719879150390625	9.992799179077148	0.010175357055664061	-0.22026655273437498	3.7078857421875	-4.58526611328125	-1.033782958984375	
61	0.244	0.0	0.0	0.0	0.0	0.003	0.003	0.003	0.003	9.871293444824218	0.04369418029785156	0.09995791931152344	2.73895263671875	-3.6468505859375	-0.66375732421875	9.783905084228515	0.21308394775390624	0.17597382202148437	0.522613525390625	-4.886627197265625	-2.8839111328125	10.002974536132811	0.011372457885742187	-0.2214636535644531	3.90625	-4.512786865234375	-2.109527587890625	
62	0.248	0.0	0.0	0.0	0.0	0.006	0.003	0.003	0.003	9.86411083984375	0.040701428222656245	0.09756371765136718	2.716064453125	-3.631591796875	-0.83160400390625	9.785102185058593	0.21009119567871093	0.1801636749267578	0.41961669921875	-4.909515380859375	-2.92205810546875	10.01015714111328	0.010773907470703125	-0.20829554443359374	3.726959228515625	-4.573822021484375	-2.15911865234375	
63	0.252	0.0	0.0	0.0	0.0	0.003	0.003	0.003	0.006	9.86411083984375	0.04249707946777344	0.10474632263183593	2.658843994140625	-3.826141357421875	-0.91552734375	9.78031378173828	0.21009119567871093	0.19093758239746092	0.19073486328125	-4.642486572265625	-2.838134765625	10.005368737792969	0.017357962036132813	-0.21727380065917967	3.704071044921875	-4.627227783203125	-2.23541259765625	
64	0.256	0.0	0.0	0.0	0.0	0.003	0.003	0.003	0.003	9.868899243164062	0.044292730712890624	0.10115502014160156	2.6397705078125	-3.71551513671875	-0.736236572265625	9.783306533813477	0.21906945190429686	0.17896657409667968	0.331878662109375	-4.84466552734375	-2.90679931640625	10.01015714111328	0.0143652099609375	-0.22685060729980466	3.765106201171875	-4.589080810546875	-2.22015380859375	
65	0.26	0.0	0.0	0.0	0.0	0.012	0.003	0.003	0.006	9.86291373901367	0.0383072265625	0.08798691101074219	2.567291259765625	-3.826141357421875	-0.949859619140625	9.785700735473633	0.21308394775390624	0.17298106994628906	0.5340576171875	-4.95147705078125	-2.7008056640625	10.005967288208007	0.012569558715820313	-0.22505495605468748	3.536224365234375	-4.5013427734375	-2.239227294921875	
66	0.264	0.0	0.0	0.0	0.0	0.006	0.006	0.003	0.003	9.868300692749022	0.047285482788085934	0.1005564697265625	2.76947021484375	-3.559112548828125	-0.79345703125	9.784503634643555	0.21607669982910155	0.1753752716064453	0.0457763671875	-4.9591064453125	-2.777099609375	9.999981784057617	0.009576806640625	-0.22026655273437498	3.631591796875	-4.58526611328125	-1.972198486328125	
67	0.268	0.0	0.0	0.0	0.0	0.003	0.006	0.003	0.003	9.859322436523437	0.044292730712890624	0.0987608184814453	2.60162353515625	-3.5400390625	-0.835418701171875	9.785102185058593	0.21727380065917967	0.17357962036132812	0.308990478515625	-4.611968994140625	-2.70843505859375	10.005368737792969	0.011971008300781249	-0.2346317626953125	3.41796875	-4.45556640625	-2.094268798828125	
68	0.272	0.0	0.0	0.0	0.0	0.003	0.003	0.003	0.003	9.86351228942871	0.055066638183593745	0.10773907470703124	2.5634765625	-3.41033935546875	-0.667572021484375	9.782707983398437	0.2184709014892578	0.16759411621093748	0.247955322265625	-4.787445068359375	-2.773284912109375	9.9981861328125	0.011971008300781249	-0.23104046020507812	3.635406494140625	-4.46319580078125	-2.166748046875	
69	0.276	0.0	0.0	0.0	0.0	0.003	0.003	0.003	0.006	9.86351228942871	0.047884033203124995	0.10235212097167969	2.61688232421875	-3.8604736328125	-0.835418701171875	9.785102185058593	0.21966800231933592	0.16519991455078123	0.316619873046875	-4.856109619140625	-2.788543701171875	10.005368737792969	0.01975216369628906	-0.23104046020507812	3.692626953125	-4.69970703125	-2.3345947265625	
70	0.28	0.0	0.0	0.0	0.0	0.006	0.003	0.003	0.006	9.86351228942871	0.04848258361816406	0.09277531433105468	2.8839111328125	-3.711700439453125	-0.732421875	9.788094937133788	0.2214636535644531	0.17238251953125	0.308990478515625	-4.73785400390625	-2.788543701171875	10.008960040283203	0.01975216369628906	-0.2166752502441406	3.5552978515625	-4.40216064453125	-2.25067138671875	
71	0.28400000000000003	0.0	0.0	0.0	0.0	0.006	0.006	0.006	0.003	9.865307940673828	0.05566518859863281	0.0909796630859375	2.61688232421875	-3.475189208984375	-0.8697509765625	9.788693487548828	0.2262520568847656	0.16819266662597654	0.110626220703125	-4.833221435546875	-2.87628173828125	10.001777435302733	0.018555062866210937	-0.22266075439453123	3.696441650390625	-4.63104248046875	-2.086639404296875	
72	0.28800000000000003	0.0	0.0	0.0	0.0	0.006	0.003	0.006	0.003	9.875483297729492	0.055066638183593745	0.08858546142578125	2.44903564453125	-3.475189208984375	-0.579833984375	9.790489138793944	0.22744915771484372	0.16519991455078123	0.217437744140625	-5.062103271484375	-2.86102294921875	9.999383233642577	0.02454056701660156	-0.23044190979003906	3.4332275390625	-4.688262939453125	-2.269744873046875	
73	0.292	0.0	0.0	0.0	0.0	0.003	0.006	0.003	0.003	9.874884747314452	0.062249243164062495	0.09157821350097656	2.704620361328125	-3.9520263671875	-0.70953369140625	9.79348189086914	0.2328361114501953	0.15562310791015624	0.240325927734375	-4.772186279296875	-2.857208251953125	10.007762939453125	0.028730419921875	-0.2292448089599609	3.7689208984375	-4.459381103515625	-2.25067138671875	
74	0.296	0.0	0.0	0.0	0.0	0.006	0.003	0.003	0.003	9.866505041503906	0.07122749938964844	0.08259995727539061	2.777099609375	-3.30352783203125	-0.797271728515625	9.788693487548828	0.23523031311035156	0.15741875915527342	0.22125244140625	-4.940032958984375	-2.7008056640625	10.004770187377929	0.03232172241210937	-0.23523031311035156	3.71551513671875	-4.67681884765625	-2.17437744140625	
75	0.3	0.0	0.0	0.0	0.0	0.003	0.003	0.003	0.006	9.872490545654296	0.07900865478515624	0.0796072052001953	2.719879150390625	-3.597259521484375	-0.79345703125	9.78629928588867	0.23702596435546874	0.14903905334472656	0.469207763671875	-4.82177734375	-2.8839111328125	10.000580334472655	0.03890577697753906	-0.23523031311035156	3.704071044921875	-4.726409912109375	-2.25830078125	
76	0.304	0.0	0.0	0.0	0.0	0.006	0.003	0.006	0.003	9.86411083984375	0.07422025146484375	0.0718260498046875	2.63214111328125	-3.681182861328125	-0.89263916015625	9.79348189086914	0.24061726684570311	0.15203180541992187	0.034332275390625	-4.9591064453125	-2.613067626953125	10.005368737792969	0.0383072265625	-0.2316390106201172	3.62396240234375	-4.64630126953125	-2.1514892578125	
77	0.308	0.0	0.0	0.0	0.0	0.003	0.003	0.003	0.006	9.865307940673828	0.07601590270996093	0.07781155395507812	2.727508544921875	-3.72314453125	-0.74005126953125	9.790489138793944	0.24061726684570311	0.16220716247558592	0.25177001953125	-4.974365234375	-2.9296875	10.015544094848632	0.04189852905273437	-0.22744915771484372	3.658294677734375	-4.69970703125	-2.323150634765625	
78	0.312	0.0	0.0	0.0	0.0	0.003	0.003	0.006	0.006	9.864709390258788	0.07122749938964844	0.0718260498046875	2.498626708984375	-3.421783447265625	-0.621795654296875	9.783905084228515	0.2561795776367187	0.1580173095703125	0.51116943359375	-4.772186279296875	-2.742767333984375	10.006565838623047	0.044292730712890624	-0.2280477081298828	3.56292724609375	-4.67681884765625	-2.06756591796875	
79	0.316	0.0	0.0	0.0	0.0	0.003	0.006	0.006	0.0	9.871293444824218	0.07900865478515624	0.07481880187988281	2.73895263671875	-3.719329833984375	-0.675201416015625	9.785102185058593	0.24600422058105467	0.16041151123046873	0.293731689453125	-4.695892333984375	-2.872467041015625	10.00417163696289	0.04129997863769531	-0.23343466186523437	3.71551513671875	-4.58526611328125	-2.162933349609375	
80	0.32	0.0	0.0	0.0	0.0	0.003	0.003	0.003	0.003	9.874884747314452	0.086191259765625	0.07362170104980469	2.521514892578125	-3.4332275390625	-0.492095947265625	9.783905084228515	0.24959552307128904	0.1610100616455078	0.308990478515625	-5.0811767578125	-2.84576416015625	10.012551342773437	0.04848258361816406	-0.24480711975097655	3.940582275390625	-4.6844482421875	-2.26593017578125	
81	0.324	0.0	0.0	0.0	0.0	0.003	0.003	0.006	0.003	9.878476049804688	0.0909796630859375	0.07242460021972656	2.635955810546875	-3.719329833984375	-0.87738037109375	9.785102185058593	0.2501940734863281	0.15562310791015624	0.46539306640625	-4.852294921875	-2.73895263671875	10.011354241943359	0.04967968444824218	-0.24361001892089842	3.635406494140625	-4.53948974609375	-2.1820068359375	
82	0.328	0.0	0.0	0.0	0.0	0.003	0.003	0.003	0.006	9.879673150634765	0.08978256225585937	0.07541735229492187	2.63214111328125	-3.65447998046875	-0.6561279296875	9.785102185058593	0.24660277099609373	0.15382745666503905	0.408172607421875	-4.67681884765625	-2.75421142578125	10.011354241943359	0.0526724365234375	-0.2561795776367187	3.749847412109375	-4.627227783203125	-2.193450927734375	
83	0.332	0.0	0.0	0.0	0.0	0.006	0.003	0.006	0.006	9.871891995239258	0.09277531433105468	0.07900865478515624	2.704620361328125	-3.62396240234375	-0.659942626953125	9.787496386718749	0.2561795776367187	0.15322890625	0.568389892578125	-4.95147705078125	-2.986907958984375	10.01075569152832	0.054468087768554684	-0.2519897247314453	3.80706787109375	-4.665374755859375	-2.25830078125	
84	0.336	0.0	0.0	0.0	0.0	0.003	0.003	0.003	0.003	9.871293444824218	0.08439560852050781	0.086191259765625	2.63214111328125	-3.620147705078125	-0.820159912109375	9.785102185058593	0.25438392639160157	0.15442600708007811	0.3509521484375	-4.66156005859375	-2.864837646484375	10.013748443603514	0.05626373901367187	-0.2501940734863281	3.7994384765625	-4.67681884765625	-2.2430419921875	
85	0.34	0.0	0.0	0.0	0.0	0.003	0.003	0.003	0.003	9.871293444824218	0.10235212097167969	0.08918401184082031	2.483367919921875	-3.490447998046875	-0.8544921875	9.78629928588867	0.2567781280517578	0.14903905334472656	0.286102294921875	-4.547119140625	-2.62451171875	10.002974536132811	0.040102877807617184	-0.2501940734863281	3.7078857421875	-4.817962646484375	-2.201080322265625	
86	0.34400000000000003	0.0	0.0	0.0	0.0	0.006	0.003	0.003	0.003	9.872490545654296	0.09516951599121093	0.08918401184082031	2.76947021484375	-3.41796875	-0.7781982421875	9.785102185058593	0.25737667846679685	0.1562216583251953	0.423431396484375	-4.955291748046875	-2.7313232421875	10.007762939453125	0.047884033203124995	-0.2472013214111328	3.749847412109375	-4.5623779296875	-2.13623046875	
87	0.34800000000000003	0.0	0.0	0.0	0.0	0.003	0.003	0.003	0.006	9.867103591918944	0.08738836059570312	0.08918401184082031	2.6702880859375	-3.520965576171875	-0.83160400390625	9.788693487548828	0.24839842224121092	0.16519991455078123	0.48828125	-4.84466552734375	-2.841949462890625	9.9981861328125	0.052073886108398436	-0.23044190979003906	3.6468505859375	-4.70733642578125	-2.32696533203125	
88	0.352	0.0	0.0	0.0	0.0	0.003	0.006	0.006	0.006	9.879074600219726	0.08319850769042968	0.08559270935058594	2.47955322265625	-3.528594970703125	-0.682830810546875	9.785102185058593	0.2555810272216797	0.16340426330566404	0.3509521484375	-4.7149658203125	-2.834320068359375	10.005368737792969	0.04548983154296875	-0.2316390106201172	3.51715087890625	-4.41741943359375	-2.208709716796875	
89	0.356	0.0	0.0	0.0	0.0	0.003	0.003	0.003	0.006	9.874884747314452	0.07900865478515624	0.09038111267089843	2.635955810546875	-3.498077392578125	-0.885009765625	9.785102185058593	0.2454056701660156	0.17118541870117188	0.49591064453125	-5.035400390625	-2.826690673828125	10.002974536132811	0.047884033203124995	-0.2376245147705078	3.7689208984375	-4.459381103515625	-1.9073486328125	
90	0.36	0.0	0.0	0.0	0.0	0.006	0.003	0.003	0.006	9.874884747314452	0.08200140686035155	0.09277531433105468	2.590179443359375	-3.688812255859375	-0.70953369140625	9.784503634643555	0.24480711975097655	0.17357962036132812	0.2288818359375	-4.98199462890625	-2.864837646484375	10.000580334472655	0.044292730712890624	-0.2214636535644531	3.421783447265625	-4.596710205078125	-2.00653076171875	
91	0.364	0.0	0.0	0.0	0.0	0.006	0.003	0.003	0.003	9.86411083984375	0.06703764648437499	0.10295067138671875	2.593994140625	-3.536224365234375	-0.797271728515625	9.785102185058593	0.23582886352539062	0.18076222534179687	0.25177001953125	-4.634857177734375	-2.773284912109375	10.000580334472655	0.030526071166992186	-0.2232593048095703	3.772735595703125	-4.665374755859375	-2.2125244140625	
92	0.368	0.0	0.0	0.0	0.0	0.003	0.003	0.003	0.006	9.862315188598632	0.061650692749023434	0.10235212097167969	2.498626708984375	-3.53240966796875	-0.804901123046875	9.791087689208984	0.22685060729980466	0.17836802368164062	0.152587890625	-4.627227783203125	-2.6397705078125	9.999981784057617	0.025737667846679687	-0.21906945190429686	3.704071044921875	-4.566192626953125	-2.178192138671875	
93	0.372	0.0	0.0	0.0	0.0	0.003	0.003	0.003	0.006	9.86351228942871	0.05327098693847656	0.1005564697265625	2.69317626953125	-3.765106201171875	-0.81634521484375	9.788094937133788	0.22385785522460935	0.19033903198242186	0.225067138671875	-4.82940673828125	-2.81524658203125	10.01075569152832	0.0143652099609375	-0.20530279235839843	3.753662109375	-4.779815673828125	-2.13623046875	
94	0.376	0.0	0.0	0.0	0.0	0.006	0.003	0.006	0.006	9.87009634399414	0.04129997863769531	0.10295067138671875	2.689361572265625	-3.276824951171875	-0.598907470703125	9.78629928588867	0.2166752502441406	0.18555062866210936	0.194549560546875	-4.8370361328125	-2.78472900390625	10.014346994018554	0.011971008300781249	-0.19931728820800781	3.72314453125	-4.58526611328125	-1.964569091796875	
95	0.38	0.0	0.0	0.0	0.0	0.003	0.006	0.006	0.006	9.867702142333984	0.047285482788085934	0.10773907470703124	2.552032470703125	-3.8299560546875	-0.9002685546875	9.784503634643555	0.21308394775390624	0.1867477294921875	0.274658203125	-4.802703857421875	-2.964019775390625	10.008361489868163	0.011372457885742187	-0.19153613281249998	3.91387939453125	-4.82940673828125	-2.208709716796875	
96	0.384	0.0	0.0	0.0	0.0	0.003	0.003	0.003	0.006	9.872490545654296	0.04668693237304687	0.1131260284423828	2.60162353515625	-3.597259521484375	-0.774383544921875	9.782707983398437	0.21188684692382811	0.19033903198242186	0.02288818359375	-4.9896240234375	-2.605438232421875	10.00417163696289	-0.009576806640625	-0.20290859069824219	3.765106201171875	-4.627227783203125	-2.071380615234375	
97	0.388	0.0	0.0	0.0	0.0	0.006	0.003	0.003	0.003	9.868899243164062	0.040102877807617184	0.11611878051757812	2.75421142578125	-3.4332275390625	-0.89263916015625	9.791087689208984	0.21068974609375	0.1927332336425781	0.370025634765625	-4.92095947265625	-2.81524658203125	10.007762939453125	-0.001197100830078125	-0.19812018737792966	3.631591796875	-4.55474853515625	-2.09808349609375	
98	0.392	0.0	0.0	0.0	0.0	0.003	0.003	0.006	0.003	9.865906491088866	0.03232172241210937	0.1227028350830078	2.498626708984375	-3.383636474609375	-0.766754150390625	9.788693487548828	0.20649989318847656	0.19333178405761717	0.5340576171875	-5.115509033203125	-2.90679931640625	10.011952792358398	-0.005985504150390624	-0.20949264526367187	3.4637451171875	-4.428863525390625	-1.934051513671875	
99	0.396	0.0	0.0	0.0	0.0	0.003	0.003	0.003	0.003	9.865307940673828	0.030526071166992186	0.11552023010253906	2.5482177734375	-3.42559814453125	-0.446319580078125	9.783306533813477	0.20829554443359374	0.18136077575683593	0.16021728515625	-5.0048828125	-2.712249755859375	10.008361489868163	0.004189852905273437	-0.21128829650878905	3.62396240234375	-4.638671875	-2.197265625	
100	0.4	0.0	0.0	0.0	0.0	0.0	0.003	0.003	0.003	9.878476049804688	0.04668693237304687	0.11552023010253906	2.60162353515625	-3.574371337890625	-0.690460205078125	9.785102185058593	0.20709844360351562	0.17357962036132812	0.4730224609375	-4.886627197265625	-2.857208251953125	10.005368737792969	0.004189852905273437	-0.2184709014892578	3.8909912109375	-4.573822021484375	-2.162933349609375	
101	0.404	0.0	0.0	0.0	0.0	0.003	0.003	0.003	0.003	9.87668039855957	0.040102877807617184	0.10893617553710937	2.5634765625	-3.631591796875	-0.98419189453125	9.791087689208984	0.2059013427734375	0.18076222534179687	0.4119873046875	-4.711151123046875	-2.6702880859375	10.006565838623047	0.006584054565429687	-0.22864625854492185	3.795623779296875	-4.6844482421875	-2.109527587890625	
102	0.40800000000000003	0.0	0.0	0.0	0.0	0.003	0.003	0.003	0.003	9.87727894897461	0.04129997863769531	0.1083376251220703	2.658843994140625	-3.742218017578125	-0.7476806640625	9.779116680908203	0.201112939453125	0.17178396911621094	0.2288818359375	-4.909515380859375	-2.89154052734375	10.008361489868163	0.00239420166015625	-0.23822306518554687	3.692626953125	-4.695892333984375	-2.2125244140625	
103	0.41200000000000003	0.0	0.0	0.0	0.0	0.0	0.003	0.003	0.003	9.86411083984375	0.0383072265625	0.08918401184082031	2.685546875	-3.597259521484375	-0.8087158203125	9.788693487548828	0.21607669982910155	0.17118541870117188	0.202178955078125	-4.78363037109375	-2.902984619140625	10.00417163696289	0.002992752075195312	-0.22864625854492185	3.780364990234375	-4.29534912109375	-2.124786376953125	
104	0.41600000000000004	0.0	0.0	0.0	0.0	0.003	0.003	0.006	0.006	9.86291373901367	0.04129997863769531	0.08559270935058594	2.452850341796875	-3.60870361328125	-0.736236572265625	9.78629928588867	0.21308394775390624	0.15322890625	0.240325927734375	-4.85992431640625	-2.811431884765625	9.999383233642577	0.008379705810546874	-0.23702596435546874	3.818511962890625	-4.70733642578125	-2.31170654296875	
105	0.42	0.0	0.0	0.0	0.0	0.003	0.003	0.003	0.006	9.86291373901367	0.033518823242187495	0.08978256225585937	2.490997314453125	-3.566741943359375	-0.80108642578125	9.787496386718749	0.2088940948486328	0.15442600708007811	0.324249267578125	-4.894256591796875	-2.712249755859375	9.998784683227539	0.005985504150390624	-0.23223756103515625	3.818511962890625	-4.787445068359375	-2.048492431640625	
106	0.424	0.0	0.0	0.0	0.0	0.003	0.003	0.003	0.006	9.87069489440918	0.04608838195800781	0.07900865478515624	2.567291259765625	-3.74603271484375	-0.885009765625	9.794678991699218	0.21248539733886718	0.16041151123046873	0.331878662109375	-4.848480224609375	-2.960205078125	10.011354241943359	0.007781155395507812	-0.24061726684570311	3.66973876953125	-4.6539306640625	-2.13623046875	
107	0.428	0.0	0.0	0.0	0.0	0.003	0.003	0.003	0.006	9.86411083984375	0.04967968444824218	0.08978256225585937	2.544403076171875	-3.631591796875	-0.812530517578125	9.78629928588867	0.2214636535644531	0.16340426330566404	0.3204345703125	-4.718780517578125	-2.74658203125	10.000580334472655	0.006584054565429687	-0.23822306518554687	3.711700439453125	-4.650115966796875	-2.11334228515625	
108	0.432	0.0	0.0	0.0	0.0	0.006	0.003	0.003	0.0	9.8694977935791	0.05327098693847656	0.08200140686035155	2.567291259765625	-3.765106201171875	-0.79345703125	9.785102185058593	0.2136824981689453	0.1484405029296875	0.4730224609375	-4.87518310546875	-2.750396728515625	10.00417163696289	0.00239420166015625	-0.24001871643066405	3.597259521484375	-4.47845458984375	-2.048492431640625	
109	0.436	0.0	0.0	0.0	0.0	0.006	0.003	0.006	0.003	9.865307940673828	0.05626373901367187	0.08020575561523437	2.47955322265625	-3.391265869140625	-0.720977783203125	9.790489138793944	0.22744915771484372	0.15382745666503905	0.2899169921875	-4.852294921875	-2.6702880859375	10.006565838623047	0.00718260498046875	-0.2346317626953125	3.826141357421875	-4.6234130859375	-2.147674560546875	
110	0.44	0.0	0.0	0.0	0.0	0.003	0.003	0.003	0.003	9.879673150634765	0.06105214233398437	0.07422025146484375	2.483367919921875	-3.452301025390625	-0.75531005859375	9.796474642944336	0.23223756103515625	0.15322890625	0.08392333984375	-4.978179931640625	-2.86102294921875	10.000580334472655	0.01975216369628906	-0.22864625854492185	3.6468505859375	-4.566192626953125	-2.20489501953125	
111	0.444	0.0	0.0	0.0	0.0	0.003	0.003	0.003	0.006	9.873687646484374	0.0652419952392578	0.059256491088867186	2.635955810546875	-3.509521484375	-0.896453857421875	9.785102185058593	0.22864625854492185	0.15682020874023436	0.091552734375	-4.833221435546875	-2.811431884765625	9.997587582397461	0.015562310791015624	-0.22685060729980466	3.6773681640625	-4.680633544921875	-2.147674560546875	
112	0.448	0.0	0.0	0.0	0.0	0.003	0.003	0.003	0.003	9.865906491088866	0.06284779357910156	0.0652419952392578	2.643585205078125	-3.509521484375	-0.70953369140625	9.785102185058593	0.23044190979003906	0.1610100616455078	0.316619873046875	-4.9285888671875	-2.9296875	10.002974536132811	0.025139117431640625	-0.23582886352539062	3.459930419921875	-4.360198974609375	-1.880645751953125	
113	0.452	0.0	0.0	0.0	0.0	0.006	0.003	0.006	0.003	9.87009634399414	0.06643909606933593	0.07003039855957031	2.521514892578125	-3.604888916015625	-0.83160400390625	9.77492682800293	0.2346317626953125	0.14484920043945312	0.2288818359375	-4.772186279296875	-2.685546875	10.007164389038085	0.028131869506835935	-0.23582886352539062	3.574371337890625	-4.604339599609375	-2.216339111328125	
114	0.456	0.0	0.0	0.0	0.0	0.006	0.003	0.003	0.003	9.867103591918944	0.06883329772949218	0.05327098693847656	2.685546875	-3.620147705078125	-0.858306884765625	9.78629928588867	0.2442085693359375	0.15502455749511718	0.396728515625	-4.871368408203125	-2.899169921875	10.005368737792969	0.04129997863769531	-0.239420166015625	3.734588623046875	-4.5928955078125	-2.14385986328125	
115	0.46	0.0	0.0	0.0	0.0	0.006	0.003	0.003	0.006	9.874884747314452	0.07721300354003906	0.06584054565429687	2.64739990234375	-3.665924072265625	-1.01470947265625	9.78629928588867	0.2561795776367187	0.15023615417480468	0.324249267578125	-4.730224609375	-2.719879150390625	10.005368737792969	0.052073886108398436	-0.24959552307128904	3.7689208984375	-4.38690185546875	-2.094268798828125	
116	0.464	0.0	0.0	0.0	0.0	0.003	0.003	0.003	0.003	9.868899243164062	0.08978256225585937	0.06823474731445311	2.5482177734375	-3.757476806640625	-0.732421875	9.784503634643555	0.2537853759765625	0.1322796417236328	0.606536865234375	-4.917144775390625	-2.948760986328125	10.005368737792969	0.052073886108398436	-0.2519897247314453	3.936767578125	-4.703521728515625	-2.094268798828125	
117	0.468	0.0	0.0	0.0	0.0	0.003	0.003	0.003	0.003	9.86411083984375	0.09457096557617187	0.076614453125	2.628326416015625	-3.505706787109375	-0.5950927734375	9.788693487548828	0.26396073303222656	0.13646949462890623	0.347137451171875	-5.153656005859375	-2.490997314453125	10.003573086547851	0.055066638183593745	-0.25318682556152344	3.7994384765625	-4.60052490234375	-2.132415771484375	
118	0.47200000000000003	0.0	0.0	0.0	0.0	0.003	0.006	0.003	0.006	9.87668039855957	0.09337386474609374	0.07062894897460938	2.5177001953125	-3.414154052734375	-0.759124755859375	9.785700735473633	0.26216508178710934	0.1406593475341797	0.225067138671875	-4.856109619140625	-2.811431884765625	10.01075569152832	0.061650692749023434	-0.24959552307128904	3.56292724609375	-4.4708251953125	-2.105712890625	
119	0.47600000000000003	0.0	0.0	0.0	0.0	0.003	0.006	0.003	0.003	9.87608184814453	0.09696516723632811	0.07541735229492187	2.414703369140625	-3.490447998046875	-0.6256103515625	9.785102185058593	0.2615665313720703	0.15382745666503905	0.514984130859375	-4.955291748046875	-2.979278564453125	10.01015714111328	0.051475335693359374	-0.24660277099609373	3.53240966796875	-4.276275634765625	-2.086639404296875	
120	0.48	0.0	0.0	0.0	0.0	0.003	0.003	0.003	0.006	9.87727894897461	0.10235212097167969	0.06404489440917968	2.597808837890625	-3.692626953125	-0.789642333984375	9.78629928588867	0.27353753967285155	0.14305354919433594	0.3509521484375	-4.520416259765625	-2.86865234375	10.003573086547851	0.05805939025878906	-0.2442085693359375	3.818511962890625	-4.730224609375	-2.231597900390625	
121	0.484	0.0	0.0	0.0	0.0	0.003	0.003	0.003	0.003	9.867103591918944	0.09217676391601562	0.07362170104980469	2.58636474609375	-3.612518310546875	-0.885009765625	9.78629928588867	0.2657563842773437	0.14724340209960937	0.1983642578125	-4.89044189453125	-2.960205078125	10.006565838623047	0.052073886108398436	-0.25917232971191406	3.54766845703125	-4.547119140625	-2.086639404296875	
122	0.488	0.0	0.0	0.0	0.0	0.003	0.003	0.003	0.006	9.873089096069336	0.09756371765136718	0.08140285644531249	2.628326416015625	-3.448486328125	-0.904083251953125	9.788693487548828	0.26755203552246093	0.15562310791015624	0.270843505859375	-5.001068115234375	-2.925872802734375	10.008960040283203	0.06105214233398437	-0.2376245147705078	3.82232666015625	-4.72259521484375	-2.033233642578125	
123	0.492	0.0	0.0	0.0	0.0	0.003	0.006	0.003	0.003	9.87727894897461	0.09636661682128905	0.07481880187988281	2.475738525390625	-3.528594970703125	-0.80108642578125	9.788693487548828	0.26276363220214843	0.1580173095703125	0.110626220703125	-4.9591064453125	-2.925872802734375	10.003573086547851	0.06344634399414062	-0.23702596435546874	3.643035888671875	-4.72259521484375	-2.08282470703125	
124	0.496	0.0	0.0	0.0	0.0	0.003	0.003	0.003	0.006	9.873089096069336	0.07721300354003906	0.08200140686035155	2.60162353515625	-3.4637451171875	-0.74005126953125	9.781510882568359	0.25438392639160157	0.16819266662597654	0.247955322265625	-4.543304443359375	-2.9449462890625	10.01015714111328	0.05327098693847656	-0.2346317626953125	3.5400390625	-4.535675048828125	-2.010345458984375	
125	0.5	0.0	0.0	0.0	0.0	0.003	0.006	0.006	0.003	9.868899243164062	0.07362170104980469	0.086191259765625	2.529144287109375	-3.627777099609375	-0.732421875	9.785102185058593	0.2442085693359375	0.17956512451171874	0.20599365234375	-4.95147705078125	-2.95257568359375	10.005368737792969	0.04129997863769531	-0.21727380065917967	4.070281982421875	-4.55474853515625	-2.285003662109375	
126	0.504	0.0	0.0	0.0	0.0	0.003	0.003	0.003	0.006	9.872490545654296	0.076614453125	0.10295067138671875	2.758026123046875	-3.734588623046875	-0.728607177734375	9.788693487548828	0.24600422058105467	0.19033903198242186	0.6103515625	-4.940032958984375	-2.84576416015625	10.008960040283203	0.04249707946777344	-0.21607669982910155	3.84521484375	-4.6844482421875	-2.08282470703125	
127	0.508	0.0	0.0	0.0	0.0	0.006	0.006	0.006	0.006	9.86351228942871	0.06105214233398437	0.11073182678222655	2.532958984375	-3.482818603515625	-0.659942626953125	9.788094937133788	0.23882161560058593	0.17776947326660156	0.026702880859375	-4.901885986328125	-2.8076171875	10.005368737792969	0.032920272827148434	-0.20470424194335937	3.47137451171875	-4.5928955078125	-1.956939697265625	
128	0.512	0.0	0.0	0.0	0.0	0.003	0.006	0.003	0.003	9.866505041503906	0.0652419952392578	0.1131260284423828	2.613067626953125	-3.658294677734375	-0.75531005859375	9.78629928588867	0.229843359375	0.19812018737792966	0.3814697265625	-4.84466552734375	-2.7923583984375	10.001777435302733	0.029927520751953124	-0.20709844360351562	3.459930419921875	-4.344940185546875	-2.063751220703125	
129	0.516	0.0	0.0	0.0	0.0	0.003	0.006	0.003	0.003	9.865307940673828	0.06584054565429687	0.09816226806640624	2.75421142578125	-3.84521484375	-0.774383544921875	9.78689783630371	0.2316390106201172	0.1897404815673828	0.293731689453125	-5.100250244140625	-2.948760986328125	10.013748443603514	0.023942016601562498	-0.20350714111328125	3.482818603515625	-4.619598388671875	-1.953125	
130	0.52	0.0	0.0	0.0	0.0	0.006	0.003	0.003	0.006	9.86291373901367	0.05985504150390625	0.10235212097167969	2.819061279296875	-3.72314453125	-0.873565673828125	9.783306533813477	0.21607669982910155	0.19033903198242186	0.4119873046875	-4.913330078125	-2.819061279296875	10.007762939453125	0.029927520751953124	-0.201112939453125	3.650665283203125	-4.70733642578125	-2.132415771484375	
131	0.524	0.0	0.0	0.0	0.0	0.006	0.003	0.003	0.003	9.86291373901367	0.058657940673828124	0.10893617553710937	2.628326416015625	-3.387451171875	-0.7171630859375	9.785102185058593	0.229843359375	0.18435352783203124	0.4425048828125	-4.589080810546875	-2.75421142578125	10.00417163696289	0.02693476867675781	-0.1975216369628906	3.8299560546875	-4.703521728515625	-2.117156982421875	
132	0.528	0.0	0.0	0.0	0.0	0.003	0.003	0.003	0.003	9.86351228942871	0.07721300354003906	0.1149216796875	2.826690673828125	-3.604888916015625	-0.579833984375	9.782707983398437	0.24001871643066405	0.18555062866210936	0.4119873046875	-4.8980712890625	-2.7313232421875	9.996989031982421	0.04129997863769531	-0.21727380065917967	3.7841796875	-4.573822021484375	-2.300262451171875	
133	0.532	0.0	0.0	0.0	0.0	0.003	0.003	0.003	0.003	9.86411083984375	0.07781155395507812	0.12150573425292968	2.750396728515625	-3.406524658203125	-0.885009765625	9.791087689208984	0.24839842224121092	0.18315642700195311	0.293731689453125	-4.94384765625	-2.8076171875	10.006565838623047	0.0430956298828125	-0.21068974609375	3.692626953125	-4.6844482421875	-2.0599365234375	
134	0.536	0.0	0.0	0.0	0.0	0.003	0.003	0.003	0.003	9.88266590270996	0.076614453125	0.12210428466796874	2.47955322265625	-3.4942626953125	-0.66375732421875	9.79946739501953	0.24660277099609373	0.1867477294921875	0.507354736328125	-4.81414794921875	-2.956390380859375	10.002375985717773	0.03232172241210937	-0.22685060729980466	3.551483154296875	-4.5318603515625	-2.002716064453125	
135	0.54	0.0	0.0	0.0	0.0	0.003	0.003	0.003	0.003	9.90900212097168	0.06883329772949218	0.12030863342285156	2.483367919921875	-3.513336181640625	-0.537872314453125	9.81263550415039	0.24121581726074218	0.18136077575683593	0.1373291015625	-4.7760009765625	-2.75421142578125	10.031704956054687	0.02633621826171875	-0.2280477081298828	3.681182861328125	-4.611968994140625	-2.09808349609375	
136	0.544	0.0	0.0	0.0	0.0	0.006	0.003	0.006	0.003	9.888651406860351	0.04668693237304687	0.14125789794921875	2.60162353515625	-3.780364990234375	-0.629425048828125	9.789890588378906	0.201112939453125	0.20829554443359374	0.301361083984375	-4.8828125	-2.81524658203125	10.034099157714843	0.009576806640625	-0.1945288848876953	3.8299560546875	-4.718780517578125	-2.0599365234375	
137	0.548	0.0	0.0	0.0	0.0	0.009000000000000001	0.003	0.003	0.003	9.860519537353515	-0.011971008300781249	0.11791443176269531	2.490997314453125	-3.60870361328125	-0.797271728515625	9.781510882568359	0.1657984649658203	0.19572598571777342	0.2288818359375	-4.913330078125	-2.651214599609375	10.002974536132811	-0.04249707946777344	-0.201112939453125	3.665924072265625	-4.638671875	-2.246856689453125	
138	0.552	0.0	0.0	0.0	0.0	0.003	0.003	0.003	0.003	9.84435867614746	-0.009576806640625	0.10654197387695312	2.5787353515625	-3.414154052734375	-0.659942626953125	9.76175871887207	0.16879121704101563	0.20051438903808594	0.110626220703125	-4.98199462890625	-3.078460693359375	9.984419473266602	-0.03591302490234375	-0.18136077575683593	3.51715087890625	-4.665374755859375	-2.193450927734375	
139	0.556	0.0	0.0	0.0	0.0	0.003	0.003	0.006	0.006	9.8311905670166	-0.025737667846679687	0.1274912384033203	2.5634765625	-3.47137451171875	-0.640869140625	9.755773214721678	0.15382745666503905	0.22385785522460935	0.179290771484375	-4.894256591796875	-2.864837646484375	9.982623822021484	-0.044292730712890624	-0.16340426330566404	3.627777099609375	-4.589080810546875	-2.11334228515625	
140	0.56	0.0	0.0	0.0	0.0	0.006	0.006	0.003	0.006	9.849745629882811	-0.02454056701660156	0.10414777221679687	2.52532958984375	-3.726959228515625	-0.80108642578125	9.778518130493163	0.13946224670410157	0.1927332336425781	0.20599365234375	-5.07354736328125	-2.86102294921875	9.988609326171874	-0.08678981018066406	-0.1897404815673828	3.7384033203125	-4.61578369140625	-2.20489501953125	
141	0.5640000000000001	0.0	0.0	0.0	0.0	0.006	0.006	0.003	0.003	9.87668039855957	0.00718260498046875	0.08379705810546874	2.6397705078125	-3.582000732421875	-0.774383544921875	9.79348189086914	0.20051438903808594	0.17178396911621094	0.1373291015625	-4.657745361328125	-2.773284912109375	10.00417163696289	-0.02154781494140625	-0.20470424194335937	3.42559814453125	-4.2877197265625	-2.06756591796875	
142	0.5680000000000001	0.0	0.0	0.0	0.0	0.003	0.006	0.003	0.006	9.867103591918944	0.03411737365722656	0.10654197387695312	2.7008056640625	-3.50189208984375	-0.583648681640625	9.785102185058593	0.22206220397949217	0.18255787658691405	0.396728515625	-4.89044189453125	-2.81524658203125	10.008960040283203	0.01975216369628906	-0.19572598571777342	3.72314453125	-4.66156005859375	-2.094268798828125	
143	0.5720000000000001	0.0	0.0	0.0	0.0	0.009000000000000001	0.006	0.003	0.003	9.880870251464843	0.03651157531738281	0.0987608184814453	2.666473388671875	-3.60107421875	-0.9002685546875	9.784503634643555	0.1927332336425781	0.1562216583251953	0.415802001953125	-4.98199462890625	-2.899169921875	10.00417163696289	-0.022744915771484374	-0.22864625854492185	3.726959228515625	-4.756927490234375	-2.166748046875	
144	0.5760000000000001	0.0	0.0	0.0	0.0	0.003	0.003	0.003	0.006	9.897031112670899	0.07841010437011718	0.0652419952392578	2.727508544921875	-3.71551513671875	-0.911712646484375	9.80724855041504	0.26815058593749996	0.1227028350830078	0.400543212890625	-5.031585693359375	-2.895355224609375	10.022128149414062	0.05327098693847656	-0.2651578338623047	3.704071044921875	-4.608154296875	-2.155303955078125	
145	0.58	0.0	0.0	0.0	0.0	0.006	0.003	0.006	0.006	9.894038360595703	0.08140285644531249	0.08140285644531249	2.64739990234375	-3.4332275390625	-0.5950927734375	9.801263046264648	0.27293898925781246	0.14125789794921875	0.0457763671875	-4.688262939453125	-2.750396728515625	10.031704956054687	0.07900865478515624	-0.26396073303222656	3.841400146484375	-4.7454833984375	-2.307891845703125	
146	0.584	0.0	0.0	0.0	0.0	0.003	0.003	0.006	0.006	9.87668039855957	0.05327098693847656	0.07900865478515624	2.51007080078125	-3.513336181640625	-0.70953369140625	9.7928833404541	0.21308394775390624	0.13946224670410157	0.41961669921875	-4.756927490234375	-2.96783447265625	10.00417163696289	-0.004189852905273437	-0.2765302917480469	3.753662109375	-4.6234130859375	-2.08282470703125	
147	0.588	0.0	0.0	0.0	0.0	0.003	0.006	0.003	0.003	9.85094273071289	0.07781155395507812	0.04129997863769531	2.513885498046875	-3.753662109375	-0.8392333984375	9.782109432983399	0.2645592834472656	0.10714052429199218	0.3814697265625	-4.78363037109375	-2.605438232421875	9.994594830322265	0.04548983154296875	-0.28909985046386716	3.917694091796875	-4.69207763671875	-2.071380615234375	
148	0.592	0.0	0.0	0.0	0.0	0.003	0.003	0.006	0.003	9.835380419921874	0.08439560852050781	0.05686228942871093	2.666473388671875	-3.662109375	-0.843048095703125	9.750386260986328	0.26815058593749996	0.11192892761230468	0.385284423828125	-4.95147705078125	-2.8228759765625	9.982025271606444	0.07601590270996093	-0.29269115295410153	3.6773681640625	-4.5013427734375	-2.269744873046875	
149	0.596	0.0	0.0	0.0	0.0	0.003	0.006	0.006	0.003	9.834183319091796	0.0718260498046875	0.055066638183593745	2.513885498046875	-3.665924072265625	-0.835418701171875	9.76116016845703	0.22385785522460935	0.12150573425292968	0.518798828125	-5.10406494140625	-2.8076171875	9.983222372436522	0.011372457885742187	-0.2819172454833984	3.7994384765625	-4.82177734375	-2.162933349609375	
150	0.6	0.0	0.0	0.0	0.0	0.006	0.006	0.003	0.006	9.892841259765625	0.11013327636718749	0.06105214233398437	2.765655517578125	-3.437042236328125	-0.80108642578125	9.801263046264648	0.2813186950683594	0.1005564697265625	0.148773193359375	-4.669189453125	-2.643585205078125	10.02392380065918	0.055066638183593745	-0.2980781066894531	3.726959228515625	-4.8675537109375	-2.346038818359375	
151	0.604	0.0	0.0	0.0	0.0	0.006	0.003	0.003	0.003	9.904812268066406	0.1197100830078125	0.04608838195800781	2.70843505859375	-3.658294677734375	-0.667572021484375	9.818022457885741	0.3016694091796875	0.12150573425292968	0.35858154296875	-4.848480224609375	-3.009796142578125	10.02990930480957	0.09636661682128905	-0.297479556274414	3.742218017578125	-4.70733642578125	-2.132415771484375	
152	0.608	0.0	0.0	0.0	0.0	0.006	0.003	0.003	0.003	9.868899243164062	0.09576806640624999	0.061650692749023434	2.552032470703125	-3.60107421875	-0.881195068359375	9.798868844604492	0.25797522888183594	0.12330138549804687	0.28228759765625	-5.157470703125	-2.864837646484375	10.00955859069824	0.047884033203124995	-0.27832594299316404	3.620147705078125	-4.589080810546875	-2.17437744140625	
153	0.612	0.0	0.0	0.0	0.0	0.006	0.003	0.006	0.003	9.865906491088866	0.10773907470703124	0.059256491088867186	2.399444580078125	-3.482818603515625	-0.66375732421875	9.78629928588867	0.2759317413330078	0.10893617553710937	0.118255615234375	-4.9285888671875	-2.64739990234375	9.999383233642577	0.05686228942871093	-0.2693476867675781	3.7078857421875	-4.78363037109375	-2.1820068359375	
154	0.616	0.0	0.0	0.0	0.0	0.003	0.006	0.003	0.003	9.861716638183593	0.09756371765136718	0.055066638183593745	2.529144287109375	-3.353118896484375	-0.732421875	9.785102185058593	0.277727392578125	0.12988544006347655	0.213623046875	-4.7454833984375	-2.7618408203125	10.002974536132811	0.0718260498046875	-0.2561795776367187	3.6468505859375	-4.55474853515625	-2.399444580078125	
155	0.62	0.0	0.0	0.0	0.0	0.006	0.006	0.003	0.003	9.853336932373047	0.07302315063476562	0.07601590270996093	2.651214599609375	-3.513336181640625	-0.89263916015625	9.78031378173828	0.2328361114501953	0.14006079711914063	0.42724609375	-4.962921142578125	-2.841949462890625	9.993397729492187	0.030526071166992186	-0.23044190979003906	3.65447998046875	-4.3487548828125	-2.227783203125	
156	0.624	0.0	0.0	0.0	0.0	0.003	0.003	0.006	0.006	9.868300692749022	0.09277531433105468	0.07062894897460938	2.689361572265625	-3.765106201171875	-0.743865966796875	9.785102185058593	0.26336218261718747	0.1484405029296875	0.43487548828125	-4.863739013671875	-2.87628173828125	10.003573086547851	0.03232172241210937	-0.23044190979003906	3.749847412109375	-4.665374755859375	-2.3193359375	
157	0.628	0.0	0.0	0.0	0.0	0.006	0.006	0.006	0.006	9.878476049804688	0.09696516723632811	0.07062894897460938	2.55584716796875	-3.505706787109375	-0.728607177734375	9.792284790039062	0.2747346405029297	0.15203180541992187	0.5035400390625	-4.901885986328125	-2.704620361328125	10.006565838623047	0.06284779357910156	-0.2424129180908203	3.59344482421875	-4.57000732421875	-1.873016357421875	
158	0.632	0.0	0.0	0.0	0.0	0.006	0.003	0.003	0.003	9.861716638183593	0.08379705810546874	0.08140285644531249	2.685546875	-3.566741943359375	-0.9002685546875	9.779715231323241	0.2316390106201172	0.16819266662597654	0.133514404296875	-5.031585693359375	-2.902984619140625	9.988609326171874	0.03232172241210937	-0.22864625854492185	3.6468505859375	-4.535675048828125	-2.12860107421875	
159	0.636	0.0	0.0	0.0	0.0	0.003	0.003	0.003	0.003	9.859322436523437	0.0939724151611328	0.09696516723632811	2.918243408203125	-3.612518310546875	-0.83160400390625	9.782707983398437	0.25917232971191406	0.17298106994628906	0.02288818359375	-4.93621826171875	-2.773284912109375	9.992799179077148	0.04668693237304687	-0.2262520568847656	3.612518310546875	-4.558563232421875	-2.300262451171875	
160	0.64	0.0	0.0	0.0	0.0	0.006	0.006	0.006	0.003	9.880271701049804	0.10414777221679687	0.09277531433105468	2.40325927734375	-3.5552978515625	-0.79345703125	9.792284790039062	0.2813186950683594	0.17597382202148437	0.5950927734375	-4.947662353515625	-2.99072265625	10.017938296508788	0.08678981018066406	-0.229843359375	3.658294677734375	-4.69970703125	-2.040863037109375	
161	0.644	0.0	0.0	0.0	0.0	0.009000000000000001	0.003	0.003	0.003	9.884461553955077	0.08798691101074219	0.09516951599121093	2.83050537109375	-3.414154052734375	-0.732421875	9.798270294189452	0.2615665313720703	0.19093758239746092	0.28228759765625	-4.840850830078125	-2.849578857421875	10.015544094848632	0.05566518859863281	-0.2316390106201172	3.57818603515625	-4.421234130859375	-2.056121826171875	
162	0.648	0.0	0.0	0.0	0.0	0.003	0.003	0.003	0.006	9.87608184814453	0.08678981018066406	0.10714052429199218	2.857208251953125	-3.696441650390625	-0.80108642578125	9.794678991699218	0.2549824768066406	0.18375497741699218	0.19073486328125	-4.55474853515625	-2.880096435546875	10.013748443603514	0.05686228942871093	-0.21787235107421873	3.88336181640625	-4.72259521484375	-2.399444580078125	
163	0.652	0.0	0.0	0.0	0.0	0.003	0.003	0.003	0.006	9.852139831542969	0.0796072052001953	0.10295067138671875	2.597808837890625	-3.185272216796875	-0.7476806640625	9.785102185058593	0.26336218261718747	0.18734627990722655	0.31280517578125	-4.8675537109375	-2.83050537109375	10.005368737792969	0.06763619689941405	-0.22864625854492185	3.9520263671875	-4.680633544921875	-2.25067138671875	
164	0.656	0.0	0.0	0.0	0.0	0.006	0.003	0.003	0.006	9.841964474487304	0.06404489440917968	0.11133037719726561	2.716064453125	-3.711700439453125	-0.70953369140625	9.779116680908203	0.2262520568847656	0.18375497741699218	0.1983642578125	-4.57000732421875	-2.857208251953125	9.99220062866211	0.027533319091796873	-0.22086510314941404	3.856658935546875	-4.5166015625	-2.147674560546875	
165	0.66	0.0	0.0	0.0	0.0	0.006	0.003	0.003	0.003	9.85632968444824	0.06584054565429687	0.11671733093261719	2.651214599609375	-3.482818603515625	-0.732421875	9.778518130493163	0.23403321228027343	0.18555062866210936	0.3814697265625	-4.730224609375	-2.9449462890625	10.000580334472655	0.025139117431640625	-0.21428104858398436	3.70025634765625	-4.69207763671875	-2.35748291015625	
166	0.664	0.0	0.0	0.0	0.0	0.003	0.003	0.003	0.006	9.875483297729492	0.06703764648437499	0.11013327636718749	2.506256103515625	-3.79180908203125	-0.583648681640625	9.798270294189452	0.24001871643066405	0.19213468322753904	0.316619873046875	-4.955291748046875	-2.773284912109375	10.014346994018554	0.031124621582031248	-0.21188684692382811	3.753662109375	-4.6234130859375	-2.140045166015625	
167	0.668	0.0	0.0	0.0	0.0	0.006	0.003	0.003	0.003	9.884461553955077	0.05686228942871093	0.11552023010253906	2.76947021484375	-3.73077392578125	-0.67901611328125	9.795876092529296	0.2346317626953125	0.1867477294921875	0.23651123046875	-4.791259765625	-2.613067626953125	10.02392380065918	0.020350714111328123	-0.21727380065917967	3.704071044921875	-4.5928955078125	-2.20489501953125	
168	0.672	0.0	0.0	0.0	0.0	0.003	0.003	0.003	0.003	9.871293444824218	0.05027823486328125	0.1388636962890625	2.582550048828125	-3.711700439453125	-0.789642333984375	9.791087689208984	0.22565350646972654	0.19093758239746092	0.3204345703125	-4.833221435546875	-2.76947021484375	10.013149893188476	0.013168109130859374	-0.2088940948486328	3.734588623046875	-4.673004150390625	-2.22015380859375	
169	0.676	0.0	0.0	0.0	0.0	0.003	0.003	0.006	0.003	9.85094273071289	0.047884033203124995	0.1352723937988281	2.5482177734375	-3.3416748046875	-0.69427490234375	9.785102185058593	0.21487959899902342	0.19213468322753904	0.392913818359375	-4.8065185546875	-2.712249755859375	9.999981784057617	0.013766659545898436	-0.20709844360351562	3.787994384765625	-4.913330078125	-2.1514892578125	
170	0.68	0.0	0.0	0.0	0.0	0.006	0.003	0.006	0.006	9.86411083984375	0.03950432739257812	0.12868833923339842	2.6092529296875	-3.6773681640625	-0.644683837890625	9.780912332153319	0.19632453613281248	0.1849520782470703	0.3509521484375	-4.63104248046875	-2.742767333984375	9.995193380737303	0.011372457885742187	-0.20350714111328125	3.8299560546875	-4.840850830078125	-2.353668212890625	
171	0.684	0.0	0.0	0.0	0.0	0.003	0.003	0.003	0.006	9.868899243164062	0.03411737365722656	0.12150573425292968	2.55584716796875	-3.612518310546875	-0.820159912109375	9.788693487548828	0.1867477294921875	0.19692308654785154	0.362396240234375	-4.72259521484375	-2.9754638671875	9.9981861328125	-0.004189852905273437	-0.1849520782470703	3.56292724609375	-4.650115966796875	-2.063751220703125	
172	0.6880000000000001	0.0	0.0	0.0	0.0	0.006	0.003	0.003	0.003	9.875483297729492	0.029328970336914062	0.11552023010253906	2.349853515625	-3.41033935546875	-0.9002685546875	9.788693487548828	0.19093758239746092	0.19812018737792966	0.156402587890625	-5.039215087890625	-2.956390380859375	10.013748443603514	-0.017956512451171875	-0.19512743530273435	3.8604736328125	-4.63104248046875	-2.101898193359375	
173	0.6920000000000001	0.0	0.0	0.0	0.0	0.003	0.006	0.003	0.003	9.87668039855957	0.03411737365722656	0.11372457885742186	2.796173095703125	-3.63922119140625	-0.57220458984375	9.790489138793944	0.19812018737792966	0.18076222534179687	0.049591064453125	-4.7149658203125	-2.81524658203125	10.020931048583984	-0.02154781494140625	-0.1927332336425781	3.44085693359375	-4.573822021484375	-2.048492431640625	
174	0.6960000000000001	0.0	0.0	0.0	0.0	0.009000000000000001	0.003	0.003	0.006	9.859322436523437	0.023343466186523436	0.11911153259277343	2.6702880859375	-3.925323486328125	-0.79345703125	9.782707983398437	0.20350714111328125	0.18136077575683593	0.186920166015625	-4.82177734375	-2.76947021484375	9.992799179077148	-0.02154781494140625	-0.1927332336425781	3.662109375	-4.756927490234375	-2.044677734375	
175	0.7000000000000001	0.0	0.0	0.0	0.0	0.003	0.006	0.006	0.006	9.859322436523437	0.028131869506835935	0.1131260284423828	2.651214599609375	-3.8604736328125	-0.881195068359375	9.78031378173828	0.19812018737792966	0.18315642700195311	0.469207763671875	-4.96673583984375	-2.716064453125	9.995791931152343	-0.010773907470703125	-0.19213468322753904	3.5858154296875	-4.726409912109375	-2.101898193359375	
176	0.704	0.0	0.0	0.0	0.0	0.003	0.003	0.006	0.006	9.873687646484374	0.040701428222656245	0.09576806640624999	2.521514892578125	-3.765106201171875	-1.0223388671875	9.80066449584961	0.20470424194335937	0.17776947326660156	0.54931640625	-4.99725341796875	-2.69317626953125	10.01075569152832	-0.0005985504150390625	-0.2154781494140625	3.971099853515625	-4.962921142578125	-2.132415771484375	
177	0.708	0.0	0.0	0.0	0.0	0.003	0.003	0.003	0.006	9.87727894897461	0.04189852905273437	0.09038111267089843	2.658843994140625	-3.559112548828125	-0.850677490234375	9.794678991699218	0.21727380065917967	0.16519991455078123	0.469207763671875	-4.795074462890625	-2.8533935546875	10.01674119567871	0.013766659545898436	-0.2316390106201172	3.62396240234375	-4.61578369140625	-2.166748046875	
178	0.712	0.0	0.0	0.0	0.0	0.006	0.003	0.006	0.003	9.879673150634765	0.05386953735351562	0.09816226806640624	2.536773681640625	-3.566741943359375	-0.537872314453125	9.790489138793944	0.21487959899902342	0.15741875915527342	0.217437744140625	-4.89044189453125	-2.826690673828125	10.006565838623047	0.011372457885742187	-0.2328361114501953	3.74603271484375	-4.66156005859375	-2.117156982421875	
179	0.716	0.0	0.0	0.0	0.0	0.003	0.003	0.003	0.006	9.868899243164062	0.052073886108398436	0.07781155395507812	2.5177001953125	-3.39508056640625	-0.682830810546875	9.784503634643555	0.22565350646972654	0.15382745666503905	0.324249267578125	-4.718780517578125	-2.8228759765625	10.012551342773437	0.017357962036132813	-0.25438392639160157	3.86810302734375	-4.47845458984375	-2.26593017578125	
180	0.72	0.0	0.0	0.0	0.0	0.003	0.003	0.006	0.006	9.871293444824218	0.05985504150390625	0.0652419952392578	2.582550048828125	-3.6468505859375	-0.713348388671875	9.77432827758789	0.2346317626953125	0.13407529296874998	0.446319580078125	-4.63104248046875	-2.777099609375	10.002974536132811	0.027533319091796873	-0.2651578338623047	3.604888916015625	-4.70733642578125	-2.231597900390625	
181	0.724	0.0	0.0	0.0	0.0	0.003	0.003	0.006	0.006	9.86411083984375	0.07422025146484375	0.062249243164062495	2.895355224609375	-3.635406494140625	-0.789642333984375	9.78629928588867	0.23702596435546874	0.1292868896484375	0.293731689453125	-5.054473876953125	-2.9754638671875	10.00417163696289	0.027533319091796873	-0.258573779296875	3.734588623046875	-4.528045654296875	-2.0294189453125	
182	0.728	0.0	0.0	0.0	0.0	0.009000000000000001	0.003	0.003	0.003	9.861716638183593	0.07541735229492187	0.06643909606933593	2.544403076171875	-3.810882568359375	-0.57220458984375	9.788094937133788	0.24480711975097655	0.1304839904785156	0.331878662109375	-4.90570068359375	-2.777099609375	10.013748443603514	0.03950432739257812	-0.2855085479736328	3.84521484375	-4.7607421875	-2.101898193359375	
183	0.732	0.0	0.0	0.0	0.0	0.006	0.003	0.006	0.006	9.867103591918944	0.08439560852050781	0.054468087768554684	2.773284912109375	-3.60870361328125	-0.827789306640625	9.789890588378906	0.2561795776367187	0.13287819213867186	0.32806396484375	-4.99725341796875	-2.696990966796875	10.00417163696289	0.04908113403320312	-0.2819172454833984	3.658294677734375	-4.695892333984375	-2.288818359375	
184	0.736	0.0	0.0	0.0	0.0	0.0	0.003	0.003	0.006	9.868300692749022	0.0909796630859375	0.07062894897460938	2.452850341796875	-3.513336181640625	-0.843048095703125	9.785102185058593	0.2609679809570312	0.14006079711914063	0.1983642578125	-4.863739013671875	-2.849578857421875	10.006565838623047	0.04848258361816406	-0.2753331909179687	3.5858154296875	-4.627227783203125	-2.166748046875	
185	0.74	0.0	0.0	0.0	0.0	0.006	0.003	0.006	0.003	9.87009634399414	0.10354922180175781	0.05805939025878906	2.468109130859375	-3.574371337890625	-0.83160400390625	9.781510882568359	0.2657563842773437	0.14006079711914063	0.31280517578125	-4.87518310546875	-2.788543701171875	10.001178884887695	0.06284779357910156	-0.2723404388427734	3.66973876953125	-4.66156005859375	-2.28118896484375	
186	0.744	0.0	0.0	0.0	0.0	0.006	0.003	0.003	0.006	9.8694977935791	0.09816226806640624	0.05027823486328125	2.582550048828125	-3.582000732421875	-0.8087158203125	9.782109432983399	0.2759317413330078	0.1406593475341797	0.118255615234375	-5.153656005859375	-2.773284912109375	10.007164389038085	0.059256491088867186	-0.26396073303222656	3.33404541015625	-4.497528076171875	-2.147674560546875	
187	0.748	0.0	0.0	0.0	0.0	0.003	0.003	0.006	0.006	9.8694977935791	0.09816226806640624	0.05626373901367187	2.582550048828125	-3.39508056640625	-0.682830810546875	9.788693487548828	0.2651578338623047	0.14484920043945312	0.22125244140625	-4.718780517578125	-2.90679931640625	10.016142645263672	0.06404489440917968	-0.2519897247314453	3.589630126953125	-4.72259521484375	-2.079010009765625	
188	0.752	0.0	0.0	0.0	0.0	0.003	0.003	0.003	0.003	9.879074600219726	0.1083376251220703	0.06464344482421874	2.685546875	-3.665924072265625	-0.804901123046875	9.788693487548828	0.25737667846679685	0.15203180541992187	0.247955322265625	-4.669189453125	-2.727508544921875	10.01075569152832	0.06105214233398437	-0.2519897247314453	3.53240966796875	-4.5623779296875	-2.03704833984375	
189	0.756	0.0	0.0	0.0	0.0	0.003	0.006	0.003	0.006	9.873089096069336	0.09277531433105468	0.06703764648437499	2.4871826171875	-3.406524658203125	-0.766754150390625	9.787496386718749	0.2561795776367187	0.1640028137207031	0.35858154296875	-4.871368408203125	-2.87628173828125	10.001777435302733	0.05566518859863281	-0.24061726684570311	3.4942626953125	-4.79888916015625	-2.300262451171875	
190	0.76	0.0	0.0	0.0	0.0	0.0	0.003	0.003	0.003	9.87009634399414	0.07841010437011718	0.06464344482421874	2.605438232421875	-3.795623779296875	-0.5645751953125	9.785102185058593	0.2549824768066406	0.16280571289062498	0.385284423828125	-4.886627197265625	-2.872467041015625	9.998784683227539	0.037110125732421874	-0.2346317626953125	3.6468505859375	-4.734039306640625	-2.29644775390625	
191	0.764	0.0	0.0	0.0	0.0	0.015	0.003	0.003	0.003	9.86351228942871	0.08020575561523437	0.08798691101074219	2.758026123046875	-3.734588623046875	-0.743865966796875	9.785102185058593	0.2549824768066406	0.16699556579589842	0.4119873046875	-4.7607421875	-2.719879150390625	9.991003527832031	0.03890577697753906	-0.22445640563964842	3.704071044921875	-4.535675048828125	-2.048492431640625	
192	0.768	0.0	0.0	0.0	0.0	0.003	0.003	0.006	0.006	9.860519537353515	0.08798691101074219	0.08738836059570312	2.716064453125	-3.5552978515625	-0.621795654296875	9.78629928588867	0.2609679809570312	0.17118541870117188	0.152587890625	-4.878997802734375	-2.895355224609375	9.999383233642577	0.0383072265625	-0.2232593048095703	3.60870361328125	-4.638671875	-2.02178955078125	
193	0.772	0.0	0.0	0.0	0.0	0.003	0.006	0.003	0.003	9.874884747314452	0.08738836059570312	0.09277531433105468	2.52532958984375	-3.292083740234375	-0.518798828125	9.79348189086914	0.2549824768066406	0.1592144104003906	0.38909912109375	-4.932403564453125	-3.002166748046875	10.017938296508788	0.055066638183593745	-0.23223756103515625	3.60107421875	-4.634857177734375	-1.964569091796875	
194	0.776	0.0	0.0	0.0	0.0	0.003	0.003	0.006	0.006	9.871891995239258	0.086191259765625	0.09457096557617187	2.544403076171875	-3.51715087890625	-0.93841552734375	9.78629928588867	0.25139117431640623	0.1610100616455078	0.34332275390625	-4.817962646484375	-2.70843505859375	10.00955859069824	0.04608838195800781	-0.23642741394042968	3.658294677734375	-4.604339599609375	-2.025604248046875	
195	0.78	0.0	0.0	0.0	0.0	0.003	0.003	0.003	0.003	9.862315188598632	0.08200140686035155	0.10115502014160156	2.658843994140625	-3.5400390625	-0.701904296875	9.789890588378906	0.24361001892089842	0.17896657409667968	0.308990478515625	-4.787445068359375	-2.895355224609375	10.01015714111328	0.047285482788085934	-0.22685060729980466	3.917694091796875	-4.7760009765625	-2.1820068359375	
196	0.784	0.0	0.0	0.0	0.0	0.003	0.003	0.003	0.003	9.858723886108399	0.07422025146484375	0.09457096557617187	2.655029296875	-3.505706787109375	-0.78582763671875	9.788693487548828	0.24361001892089842	0.1693897674560547	0.396728515625	-4.810333251953125	-2.750396728515625	10.01075569152832	0.04908113403320312	-0.22266075439453123	3.7078857421875	-4.57763671875	-1.995086669921875	
197	0.788	0.0	0.0	0.0	0.0	0.006	0.006	0.003	0.003	9.867103591918944	0.07003039855957031	0.10893617553710937	2.685546875	-3.5247802734375	-0.70953369140625	9.784503634643555	0.23702596435546874	0.17178396911621094	0.545501708984375	-4.734039306640625	-2.76947021484375	10.008960040283203	0.03950432739257812	-0.22086510314941404	3.6773681640625	-4.467010498046875	-2.2125244140625	
198	0.792	0.0	0.0	0.0	0.0	0.003	0.003	0.006	0.006	9.878476049804688	0.07422025146484375	0.11192892761230468	2.79998779296875	-3.47137451171875	-0.86212158203125	9.783905084228515	0.2316390106201172	0.17178396911621094	0.244140625	-4.95147705078125	-2.872467041015625	10.004770187377929	0.02693476867675781	-0.23044190979003906	3.570556640625	-4.61578369140625	-2.1820068359375	
199	0.796	0.0	0.0	0.0	0.0	0.006	0.003	0.003	0.006	9.866505041503906	0.06344634399414062	0.10953472595214843	2.5177001953125	-3.41033935546875	-0.659942626953125	9.78629928588867	0.22385785522460935	0.16280571289062498	0.3509521484375	-4.92095947265625	-2.872467041015625	10.01015714111328	0.027533319091796873	-0.22864625854492185	3.688812255859375	-4.58526611328125	-2.071380615234375	
200	0.8	0.0	0.0	0.0	0.0	0.003	0.006	0.003	0.003	9.872490545654296	0.06105214233398437	0.11133037719726561	2.689361572265625	-3.44085693359375	-0.946044921875	9.785102185058593	0.21727380065917967	0.17477672119140625	0.54168701171875	-4.78363037109375	-2.685546875	10.012551342773437	0.016759411621093748	-0.22385785522460935	3.772735595703125	-4.638671875	-2.1514892578125	
201	0.804	0.0	0.0	0.0	0.0	0.006	0.003	0.003	0.003	9.865307940673828	0.047285482788085934	0.11252747802734374	2.613067626953125	-3.7078857421875	-0.705718994140625	9.785102185058593	0.20171148986816406	0.18555062866210936	0.125885009765625	-4.974365234375	-2.73895263671875	10.012551342773437	0.012569558715820313	-0.20829554443359374	3.452301025390625	-4.657745361328125	-2.15911865234375	
202	0.808	0.0	0.0	0.0	0.0	0.006	0.003	0.006	0.006	9.868899243164062	0.03531447448730469	0.10953472595214843	2.60162353515625	-3.551483154296875	-0.732421875	9.78629928588867	0.19931728820800781	0.19213468322753904	0.152587890625	-4.726409912109375	-2.98309326171875	10.000580334472655	0.003591302490234375	-0.21308394775390624	3.726959228515625	-4.791259765625	-2.3345947265625	
203	0.812	0.0	0.0	0.0	0.0	0.006	0.006	0.003	0.006	9.880870251464843	0.028131869506835935	0.11432312927246092	2.666473388671875	-3.582000732421875	-0.79345703125	9.795876092529296	0.19632453613281248	0.18734627990722655	0.30517578125	-5.107879638671875	-3.0364990234375	9.9981861328125	-0.008379705810546874	-0.21248539733886718	3.6468505859375	-4.482269287109375	-2.117156982421875	
204	0.8160000000000001	0.0	0.0	0.0	0.0	0.006	0.003	0.003	0.006	9.868899243164062	0.028730419921875	0.10893617553710937	2.62451171875	-3.589630126953125	-0.843048095703125	9.78629928588867	0.19033903198242186	0.17298106994628906	0.377655029296875	-4.924774169921875	-2.887725830078125	10.008960040283203	-0.02154781494140625	-0.22206220397949217	3.665924072265625	-4.795074462890625	-2.414703369140625	
205	0.8200000000000001	0.0	0.0	0.0	0.0	0.003	0.006	0.003	0.003	9.860519537353515	0.017357962036132813	0.10714052429199218	2.635955810546875	-3.566741943359375	-0.6866455078125	9.78629928588867	0.1897404815673828	0.17896657409667968	0.28228759765625	-4.886627197265625	-2.780914306640625	10.007762939453125	-0.02154781494140625	-0.22086510314941404	3.4942626953125	-4.63104248046875	-2.170562744140625	
206	0.8240000000000001	0.0	0.0	0.0	0.0	0.003	0.003	0.003	0.009000000000000001	9.855132583618163	0.02454056701660156	0.10175357055664062	2.58636474609375	-3.719329833984375	-0.701904296875	9.784503634643555	0.1849520782470703	0.1879448303222656	0.34332275390625	-4.8828125	-2.8533935546875	10.01015714111328	-0.02154781494140625	-0.21308394775390624	3.574371337890625	-4.764556884765625	-2.117156982421875	
207	0.8280000000000001	0.0	0.0	0.0	0.0	0.003	0.003	0.006	0.006	9.865906491088866	0.02454056701660156	0.10354922180175781	2.643585205078125	-3.44085693359375	-0.820159912109375	9.783905084228515	0.18136077575683593	0.18315642700195311	0.492095947265625	-4.78363037109375	-2.87628173828125	10.01075569152832	-0.02693476867675781	-0.20949264526367187	3.681182861328125	-4.604339599609375	-2.12860107421875	
208	0.8320000000000001	0.0	0.0	0.0	0.0	0.003	0.003	0.003	0.003	9.868899243164062	0.025737667846679687	0.08918401184082031	2.605438232421875	-3.551483154296875	-0.720977783203125	9.788693487548828	0.181959326171875	0.18136077575683593	0.48828125	-4.711151123046875	-2.8839111328125	10.007164389038085	-0.023942016601562498	-0.2184709014892578	3.80706787109375	-4.69207763671875	-2.124786376953125	
209	0.836	0.0	0.0	0.0	0.0	0.003	0.003	0.003	0.006	9.873687646484374	0.023942016601562498	0.08918401184082031	2.75421142578125	-3.635406494140625	-0.698089599609375	9.785102185058593	0.1879448303222656	0.17238251953125	0.064849853515625	-4.92095947265625	-2.60162353515625	10.007762939453125	-0.012569558715820313	-0.2154781494140625	3.826141357421875	-4.543304443359375	-2.117156982421875	
210	0.84	0.0	0.0	0.0	0.0	-0.003	0.006	0.003	0.006	9.872490545654296	0.025737667846679687	0.0796072052001953	2.925872802734375	-3.60107421875	-0.79345703125	9.791087689208984	0.19632453613281248	0.16220716247558592	0.446319580078125	-4.98199462890625	-3.009796142578125	10.01015714111328	-0.02154781494140625	-0.229843359375	3.749847412109375	-4.482269287109375	-2.0751953125	
211	0.844	0.0	0.0	0.0	0.0	0.006	0.003	0.003	0.006	9.867702142333984	0.037708676147460936	0.08439560852050781	2.74658203125	-3.51715087890625	-0.797271728515625	9.780912332153319	0.20470424194335937	0.1592144104003906	0.03814697265625	-4.75311279296875	-2.777099609375	10.008960040283203	-0.00239420166015625	-0.24181436767578124	3.612518310546875	-4.779815673828125	-2.147674560546875	
212	0.848	0.0	0.0	0.0	0.0	0.006	0.003	0.003	0.003	9.86411083984375	0.04668693237304687	0.08379705810546874	2.750396728515625	-3.692626953125	-0.67138671875	9.789292037963866	0.21128829650878905	0.14784195251464843	0.213623046875	-4.8675537109375	-2.75421142578125	10.00417163696289	0.0047884033203125	-0.2454056701660156	3.53240966796875	-4.638671875	-1.9989013671875	
213	0.852	0.0	0.0	0.0	0.0	0.003	0.006	0.006	0.003	9.87668039855957	0.05566518859863281	0.08020575561523437	2.590179443359375	-3.566741943359375	-0.667572021484375	9.788693487548828	0.2262520568847656	0.14484920043945312	0.331878662109375	-4.947662353515625	-2.712249755859375	10.008960040283203	0.015562310791015624	-0.25258827514648435	3.765106201171875	-4.70733642578125	-2.300262451171875	
214	0.856	0.0	0.0	0.0	0.0	0.006	0.003	0.006	0.003	9.874286196899414	0.06284779357910156	0.06883329772949218	2.613067626953125	-3.574371337890625	-0.988006591796875	9.789890588378906	0.2328361114501953	0.1352723937988281	0.335693359375	-5.016326904296875	-2.742767333984375	10.006565838623047	0.025737667846679687	-0.25258827514648435	3.79180908203125	-4.49371337890625	-1.9378662109375	
215	0.86	0.0	0.0	0.0	0.0	0.0	0.003	0.003	0.006	9.871293444824218	0.0718260498046875	0.07601590270996093	2.674102783203125	-3.56292724609375	-0.81634521484375	9.78629928588867	0.23403321228027343	0.1370680450439453	0.1983642578125	-4.64630126953125	-2.67791748046875	10.013748443603514	0.040102877807617184	-0.2663549346923828	3.482818603515625	-4.276275634765625	-2.0904541015625	
216	0.864	0.0	0.0	0.0	0.0	0.003	0.003	0.006	0.003	9.86351228942871	0.07900865478515624	0.07422025146484375	2.704620361328125	-3.662109375	-0.87738037109375	9.782707983398437	0.24959552307128904	0.13826514587402344	0.1983642578125	-4.627227783203125	-2.86865234375	10.013748443603514	0.0383072265625	-0.2645592834472656	3.6773681640625	-4.505157470703125	-2.193450927734375	
217	0.868	0.0	0.0	0.0	0.0	0.006	0.003	0.003	0.006	9.867103591918944	0.08080430603027343	0.06823474731445311	2.323150634765625	-3.47900390625	-0.8392333984375	9.785102185058593	0.25139117431640623	0.13108254089355467	0.213623046875	-4.85992431640625	-2.75421142578125	10.007762939453125	0.05566518859863281	-0.2561795776367187	3.5858154296875	-4.52423095703125	-2.147674560546875	
218	0.872	0.0	0.0	0.0	0.0	0.009000000000000001	0.006	0.006	0.006	9.867702142333984	0.09516951599121093	0.07721300354003906	2.69317626953125	-3.57818603515625	-0.732421875	9.78629928588867	0.2657563842773437	0.13108254089355467	0.270843505859375	-4.8370361328125	-2.7923583984375	10.016142645263672	0.054468087768554684	-0.2651578338623047	3.66973876953125	-4.642486572265625	-2.002716064453125	
219	0.876	0.0	0.0	0.0	0.0	0.006	0.006	0.003	0.006	9.883264453125	0.09516951599121093	0.08499415893554688	2.54058837890625	-3.6163330078125	-0.81634521484375	9.785102185058593	0.26336218261718747	0.15083470458984374	0.446319580078125	-4.85992431640625	-2.918243408203125	10.01075569152832	0.0652419952392578	-0.24121581726074218	3.88336181640625	-4.52423095703125	-2.23541259765625	
220	0.88	0.0	0.0	0.0	0.0	0.003	0.003	0.006	0.003	9.87668039855957	0.09995791931152344	0.07781155395507812	2.590179443359375	-3.330230712890625	-1.003265380859375	9.78629928588867	0.2609679809570312	0.1610100616455078	0.19073486328125	-4.85992431640625	-3.040313720703125	10.007762939453125	0.06284779357910156	-0.25318682556152344	3.551483154296875	-4.558563232421875	-2.140045166015625	
221	0.884	0.0	0.0	0.0	0.0	0.003	0.003	0.006	0.003	9.871293444824218	0.10115502014160156	0.0796072052001953	2.74658203125	-3.6773681640625	-0.667572021484375	9.78689783630371	0.2645592834472656	0.15263035583496093	-0.1068115234375	-4.917144775390625	-2.880096435546875	10.005967288208007	0.05805939025878906	-0.23702596435546874	3.5552978515625	-4.573822021484375	-1.9989013671875	
222	0.888	0.0	0.0	0.0	0.0	0.003	0.003	0.003	0.003	9.87009634399414	0.1005564697265625	0.08020575561523437	2.552032470703125	-3.387451171875	-0.850677490234375	9.785102185058593	0.26815058593749996	0.1514332550048828	0.354766845703125	-4.8370361328125	-2.742767333984375	10.012551342773437	0.06883329772949218	-0.22565350646972654	3.753662109375	-4.734039306640625	-2.11334228515625	
223	0.892	0.0	0.0	0.0	0.0	0.006	0.003	0.003	0.006	9.867702142333984	0.0987608184814453	0.08738836059570312	2.5634765625	-3.5858154296875	-0.69427490234375	9.78629928588867	0.2645592834472656	0.16220716247558592	0.240325927734375	-4.6539306640625	-2.93731689453125	10.008361489868163	0.06105214233398437	-0.21727380065917967	3.597259521484375	-4.82177734375	-2.12860107421875	
224	0.896	0.0	0.0	0.0	0.0	0.006	0.006	0.006	0.006	9.871891995239258	0.09995791931152344	0.08559270935058594	2.529144287109375	-3.5247802734375	-0.7171630859375	9.783306533813477	0.2663549346923828	0.17238251953125	0.40435791015625	-4.95147705078125	-2.925872802734375	9.999981784057617	0.06284779357910156	-0.21068974609375	3.757476806640625	-4.547119140625	-2.216339111328125	
225	0.9	0.0	0.0	0.0	0.0	0.006	0.003	0.003	0.006	9.867702142333984	0.0987608184814453	0.08319850769042968	2.716064453125	-3.673553466796875	-0.77056884765625	9.791686239624022	0.2741360900878906	0.17417817077636719	0.3509521484375	-4.98199462890625	-2.910614013671875	10.00955859069824	0.05985504150390625	-0.20290859069824219	3.475189208984375	-4.596710205078125	-2.208709716796875	
226	0.904	0.0	0.0	0.0	0.0	0.006	0.003	0.003	0.006	9.871891995239258	0.09636661682128905	0.09457096557617187	2.66265869140625	-3.688812255859375	-0.797271728515625	9.785700735473633	0.26815058593749996	0.1640028137207031	0.28228759765625	-4.848480224609375	-2.796173095703125	10.000580334472655	0.06344634399414062	-0.21487959899902342	3.68499755859375	-4.665374755859375	-2.28118896484375	
227	0.908	0.0	0.0	0.0	0.0	0.003	0.006	0.003	0.006	9.875483297729492	0.10235212097167969	0.09516951599121093	2.376556396484375	-3.28826904296875	-0.835418701171875	9.785102185058593	0.26815058593749996	0.17238251953125	0.255584716796875	-5.123138427734375	-2.765655517578125	10.008960040283203	0.05746083984375	-0.21128829650878905	3.673553466796875	-4.512786865234375	-1.96075439453125	
228	0.912	0.0	0.0	0.0	0.0	0.006	0.006	0.003	0.003	9.871293444824218	0.10295067138671875	0.09636661682128905	2.758026123046875	-3.444671630859375	-0.614166259765625	9.788693487548828	0.2657563842773437	0.16220716247558592	0.32806396484375	-4.84466552734375	-2.826690673828125	9.998784683227539	0.06404489440917968	-0.2184709014892578	3.795623779296875	-4.82177734375	-2.11334228515625	
229	0.916	0.0	0.0	0.0	0.0	0.006	0.003	0.006	0.006	9.87727894897461	0.105344873046875	0.1005564697265625	2.758026123046875	-3.871917724609375	-0.86212158203125	9.783306533813477	0.2705447875976562	0.17238251953125	0.0	-4.795074462890625	-2.719879150390625	10.008960040283203	0.05985504150390625	-0.21966800231933592	3.631591796875	-4.589080810546875	-2.05230712890625	
230	0.92	0.0	0.0	0.0	0.0	0.006	0.006	0.003	0.003	9.871891995239258	0.09756371765136718	0.08738836059570312	2.696990966796875	-3.818511962890625	-0.850677490234375	9.781510882568359	0.25737667846679685	0.17118541870117188	0.51116943359375	-4.856109619140625	-2.712249755859375	10.014346994018554	0.05985504150390625	-0.21607669982910155	3.5247802734375	-4.55474853515625	-2.346038818359375	
231	0.924	0.0	0.0	0.0	0.0	0.003	0.003	0.006	0.006	9.879673150634765	0.08080430603027343	0.09816226806640624	2.73895263671875	-3.673553466796875	-0.885009765625	9.783905084228515	0.2561795776367187	0.17238251953125	0.270843505859375	-4.8370361328125	-2.83050537109375	10.01015714111328	0.05566518859863281	-0.21787235107421873	3.57818603515625	-4.5166015625	-2.010345458984375	
232	0.928	0.0	0.0	0.0	0.0	0.003	0.003	0.003	0.006	9.871293444824218	0.08319850769042968	0.08559270935058594	2.696990966796875	-3.66973876953125	-0.591278076171875	9.785102185058593	0.24361001892089842	0.16879121704101563	0.18310546875	-4.970550537109375	-2.750396728515625	10.005368737792969	0.047285482788085934	-0.22565350646972654	3.7689208984375	-4.81414794921875	-1.91497802734375	
233	0.932	0.0	0.0	0.0	0.0	0.006	0.003	0.003	0.003	9.8694977935791	0.07422025146484375	0.11013327636718749	2.471923828125	-3.711700439453125	-0.69427490234375	9.785102185058593	0.2424129180908203	0.17836802368164062	0.278472900390625	-4.8828125	-2.880096435546875	10.007762939453125	0.03531447448730469	-0.23104046020507812	3.528594970703125	-4.657745361328125	-2.349853515625	
234	0.936	0.0	0.0	0.0	0.0	0.006	0.006	0.003	0.006	9.867103591918944	0.06703764648437499	0.11372457885742186	2.685546875	-3.3416748046875	-0.83160400390625	9.784503634643555	0.23523031311035156	0.17238251953125	0.400543212890625	-4.93621826171875	-2.712249755859375	10.007762939453125	0.022146365356445312	-0.22685060729980466	3.726959228515625	-4.66156005859375	-2.18963623046875	
235	0.9400000000000001	0.0	0.0	0.0	0.0	0.006	0.003	0.003	0.003	9.87069489440918	0.061650692749023434	0.09935936889648436	2.674102783203125	-3.711700439453125	-0.736236572265625	9.788693487548828	0.2262520568847656	0.1693897674560547	0.030517578125	-4.741668701171875	-2.76947021484375	10.008960040283203	0.01915361328125	-0.22744915771484372	3.65447998046875	-4.528045654296875	-2.178192138671875	
236	0.9440000000000001	0.0	0.0	0.0	0.0	0.009000000000000001	0.003	0.003	0.003	9.87608184814453	0.04249707946777344	0.08978256225585937	2.536773681640625	-3.559112548828125	-0.865936279296875	9.785102185058593	0.2154781494140625	0.15861585998535155	0.370025634765625	-5.008697509765625	-2.918243408203125	10.00417163696289	0.006584054565429687	-0.23223756103515625	3.742218017578125	-4.619598388671875	-1.983642578125	
237	0.9480000000000001	0.0	0.0	0.0	0.0	0.006	0.003	0.003	0.003	9.875483297729492	0.04189852905273437	0.0909796630859375	2.51007080078125	-3.48663330078125	-0.896453857421875	9.787496386718749	0.20470424194335937	0.1693897674560547	0.438690185546875	-4.848480224609375	-3.0364990234375	10.007762939453125	0.004189852905273437	-0.21966800231933592	3.68499755859375	-4.6234130859375	-2.23541259765625	
238	0.9520000000000001	0.0	0.0	0.0	0.0	0.003	0.003	0.003	0.006	9.86291373901367	0.03232172241210937	0.0909796630859375	2.61688232421875	-3.681182861328125	-0.766754150390625	9.78629928588867	0.19393033447265623	0.17118541870117188	0.274658203125	-4.932403564453125	-2.8839111328125	10.003573086547851	-0.005985504150390624	-0.2154781494140625	3.620147705078125	-4.512786865234375	-2.2735595703125	
239	0.9560000000000001	0.0	0.0	0.0	0.0	0.003	0.006	0.003	0.003	9.867702142333984	0.030526071166992186	0.09337386474609374	2.685546875	-3.177642822265625	-0.70953369140625	9.785102185058593	0.19213468322753904	0.17178396911621094	0.408172607421875	-4.840850830078125	-2.834320068359375	10.005967288208007	-0.01915361328125	-0.2214636535644531	3.856658935546875	-4.5623779296875	-1.972198486328125	
240	0.96	0.0	0.0	0.0	0.0	0.003	0.003	0.003	0.003	9.871293444824218	0.02633621826171875	0.10115502014160156	2.5634765625	-3.35693359375	-0.79345703125	9.785102185058593	0.18555062866210936	0.16998831787109375	0.4119873046875	-4.8980712890625	-2.83050537109375	10.012551342773437	-0.02154781494140625	-0.2280477081298828	3.9520263671875	-4.61578369140625	-2.3193359375	
241	0.964	0.0	0.0	0.0	0.0	0.003	0.003	0.003	0.003	9.874884747314452	0.0143652099609375	0.09636661682128905	2.506256103515625	-3.574371337890625	-0.652313232421875	9.783306533813477	0.18555062866210936	0.17357962036132812	0.354766845703125	-4.955291748046875	-2.76947021484375	10.011354241943359	-0.02154781494140625	-0.22445640563964842	3.7689208984375	-4.550933837890625	-2.239227294921875	
242	0.968	0.0	0.0	0.0	0.0	0.006	0.003	0.006	0.003	9.8694977935791	0.018555062866210937	0.08858546142578125	2.4871826171875	-3.66973876953125	-0.87738037109375	9.787496386718749	0.17657237243652343	0.17238251953125	0.232696533203125	-5.02777099609375	-2.880096435546875	10.002375985717773	-0.02154781494140625	-0.23104046020507812	3.662109375	-4.57763671875	-2.17437744140625	
243	0.972	0.0	0.0	0.0	0.0	0.003	0.003	0.003	0.006	9.866505041503906	0.023343466186523436	0.08200140686035155	2.506256103515625	-3.803253173828125	-0.6866455078125	9.795876092529296	0.18136077575683593	0.16280571289062498	0.2593994140625	-4.917144775390625	-2.93731689453125	10.005368737792969	-0.02154781494140625	-0.23642741394042968	3.8299560546875	-4.642486572265625	-2.2125244140625	
244	0.976	0.0	0.0	0.0	0.0	0.003	0.006	0.003	0.006	9.871293444824218	0.01915361328125	0.08978256225585937	2.567291259765625	-3.681182861328125	-0.60272216796875	9.788094937133788	0.18375497741699218	0.1657984649658203	0.2899169921875	-4.909515380859375	-2.9754638671875	9.992799179077148	-0.017357962036132813	-0.24001871643066405	3.68499755859375	-4.7454833984375	-2.2125244140625	
245	0.98	0.0	0.0	0.0	0.0	0.006	0.003	0.006	0.006	9.872490545654296	0.025139117431640625	0.08798691101074219	2.452850341796875	-3.696441650390625	-0.782012939453125	9.783905084228515	0.18854338073730467	0.15502455749511718	0.446319580078125	-4.90570068359375	-2.819061279296875	10.004770187377929	-0.02154781494140625	-0.2501940734863281	3.688812255859375	-4.7607421875	-2.2430419921875	
246	0.984	0.0	0.0	0.0	0.0	0.006	0.003	0.006	0.006	9.87009634399414	0.0383072265625	0.08200140686035155	2.87628173828125	-3.70025634765625	-0.79345703125	9.78689783630371	0.19393033447265623	0.1610100616455078	0.0762939453125	-4.840850830078125	-2.887725830078125	10.012551342773437	-0.010773907470703125	-0.2454056701660156	3.7384033203125	-4.642486572265625	-2.03704833984375	
247	0.988	0.0	0.0	0.0	0.0	0.006	0.003	0.006	0.006	9.873687646484374	0.034715924072265626	0.07362170104980469	2.811431884765625	-3.662109375	-0.9002685546875	9.785102185058593	0.20709844360351562	0.15322890625	0.408172607421875	-4.76837158203125	-2.83050537109375	10.01015714111328	-0.017956512451171875	-0.24660277099609373	3.89862060546875	-4.810333251953125	-2.3040771484375	
248	0.992	0.0	0.0	0.0	0.0	0.006	0.003	0.003	0.003	9.86411083984375	0.04129997863769531	0.07302315063476562	2.674102783203125	-3.50189208984375	-0.804901123046875	9.785102185058593	0.21787235107421873	0.14963760375976562	0.46539306640625	-4.795074462890625	-2.834320068359375	10.00955859069824	0.001197100830078125	-0.24181436767578124	3.59344482421875	-4.894256591796875	-2.208709716796875	
249	0.996	0.0	0.0	0.0	0.0	0.003	0.003	0.003	0.006	9.867702142333984	0.03890577697753906	0.08200140686035155	2.5177001953125	-3.574371337890625	-0.81634521484375	9.785102185058593	0.21487959899902342	0.15382745666503905	0.41961669921875	-5.035400390625	-3.082275390625	10.007762939453125	0.010175357055664061	-0.25258827514648435	3.65447998046875	-4.608154296875	-2.09808349609375	
250	1.0	0.0	0.0	0.0	0.0	0.0	0.003	0.003	0.003	9.868899243164062	0.059256491088867186	0.08678981018066406	2.5787353515625	-3.753662109375	-0.621795654296875	9.787496386718749	0.23044190979003906	0.15023615417480468	0.31280517578125	-4.85992431640625	-2.918243408203125	10.013149893188476	0.018555062866210937	-0.25917232971191406	3.803253173828125	-4.642486572265625	-2.109527587890625	
251	1.004	0.0	0.0	0.0	0.0	0.006	0.006	0.003	0.006	9.880870251464843	0.06763619689941405	0.086191259765625	2.796173095703125	-3.726959228515625	-0.720977783203125	9.78629928588867	0.229843359375	0.14784195251464843	0.308990478515625	-4.47845458984375	-2.899169921875	10.008960040283203	0.02693476867675781	-0.24121581726074218	3.570556640625	-4.58526611328125	-2.29644775390625	
252	1.008	0.0	0.0	0.0	0.0	0.006	0.003	0.006	0.003	9.874884747314452	0.06464344482421874	0.07481880187988281	2.716064453125	-3.631591796875	-0.9002685546875	9.784503634643555	0.239420166015625	0.1580173095703125	0.385284423828125	-4.93621826171875	-2.79998779296875	10.007164389038085	0.031124621582031248	-0.2472013214111328	3.696441650390625	-5.100250244140625	-2.239227294921875	
253	1.012	0.0	0.0	0.0	0.0	0.003	0.003	0.003	0.003	9.873687646484374	0.076614453125	0.07302315063476562	2.55584716796875	-3.50189208984375	-0.843048095703125	9.783905084228515	0.24301146850585936	0.15382745666503905	0.392913818359375	-4.913330078125	-2.750396728515625	9.9981861328125	0.04668693237304687	-0.2472013214111328	3.589630126953125	-4.764556884765625	-2.29644775390625	
254	1.016	0.0	0.0	0.0	0.0	0.003	0.003	0.003	0.003	9.86411083984375	0.08020575561523437	0.08858546142578125	2.4871826171875	-3.53240966796875	-0.74005126953125	9.782109432983399	0.2597708801269531	0.15382745666503905	0.1983642578125	-5.06591796875	-3.108978271484375	10.013748443603514	0.0526724365234375	-0.24361001892089842	3.387451171875	-4.58526611328125	-2.079010009765625	
255	1.02	0.0	0.0	0.0	0.0	0.006	0.006	0.003	0.006	9.865307940673828	0.08379705810546874	0.08559270935058594	2.4261474609375	-3.360748291015625	-0.682830810546875	9.78629928588867	0.2651578338623047	0.15981296081542967	0.40435791015625	-4.9591064453125	-2.8533935546875	10.011354241943359	0.06344634399414062	-0.2292448089599609	3.57818603515625	-4.436492919921875	-2.239227294921875	
256	1.024	0.0	0.0	0.0	0.0	0.006	0.006	0.003	0.0	9.864709390258788	0.086191259765625	0.09636661682128905	2.666473388671875	-3.6773681640625	-0.667572021484375	9.78629928588867	0.2561795776367187	0.16160861206054686	0.301361083984375	-4.894256591796875	-2.918243408203125	10.014346994018554	0.06763619689941405	-0.22505495605468748	3.772735595703125	-4.734039306640625	-2.285003662109375	
257	1.028	0.0	0.0	0.0	0.0	0.006	0.003	0.003	0.003	9.87727894897461	0.07481880187988281	0.12629413757324218	2.597808837890625	-3.47137451171875	-0.74005126953125	9.779116680908203	0.22685060729980466	0.19632453613281248	0.08392333984375	-4.73785400390625	-2.765655517578125	10.007762939453125	0.03531447448730469	-0.22744915771484372	3.74603271484375	-4.673004150390625	-2.269744873046875	
258	1.032	0.0	0.0	0.0	0.0	0.003	0.003	0.003	0.003	9.874286196899414	0.1131260284423828	0.08978256225585937	2.5634765625	-3.5858154296875	-0.858306884765625	9.807847100830077	0.27293898925781246	0.16041151123046873	0.194549560546875	-4.611968994140625	-2.90679931640625	10.046668716430663	0.06464344482421874	-0.2705447875976562	3.692626953125	-4.6844482421875	-2.25830078125	
259	1.036	0.0	0.0	0.0	0.0	0.006	0.003	0.003	0.003	9.868899243164062	0.0987608184814453	0.15562310791015624	2.590179443359375	-3.467559814453125	-0.823974609375	9.776722479248047	0.2932897033691406	0.20470424194335937	0.213623046875	-4.795074462890625	-2.834320068359375	9.9981861328125	0.11013327636718749	-0.22445640563964842	3.894805908203125	-4.863739013671875	-2.23541259765625	
260	1.04	0.0	0.0	0.0	0.0	0.003	0.003	0.003	0.006	9.865307940673828	0.04369418029785156	0.08858546142578125	2.185821533203125	-3.47137451171875	-0.9613037109375	9.817423907470703	0.14724340209960937	0.14784195251464843	0.274658203125	-4.947662353515625	-3.04412841796875	10.043675964355469	-0.07781155395507812	-0.27293898925781246	3.936767578125	-4.627227783203125	-2.43377685546875	
261	1.044	0.0	0.0	0.0	0.0	0.003	0.003	0.003	0.0	9.894038360595703	0.031124621582031248	0.10115502014160156	2.8076171875	-3.543853759765625	-0.919342041015625	9.787496386718749	0.3651157531738281	0.20949264526367187	0.49591064453125	-5.01251220703125	-2.872467041015625	10.041281762695311	0.17896657409667968	-0.21966800231933592	3.54766845703125	-4.53948974609375	-2.155303955078125	
262	1.048	0.0	0.0	0.0	0.0	0.003	0.006	0.003	0.006	9.86291373901367	0.1083376251220703	0.08379705810546874	2.620697021484375	-3.398895263671875	-1.186370849609375	9.798270294189452	0.26276363220214843	0.1352723937988281	0.675201416015625	-4.917144775390625	-2.70843505859375	10.038887561035155	0.03411737365722656	-0.26276363220214843	3.658294677734375	-4.634857177734375	-1.9989013671875	
263	1.052	0.0	0.0	0.0	0.0	0.006	0.003	0.003	0.003	9.903615167236328	0.2059013427734375	0.09935936889648436	2.70843505859375	-3.505706787109375	-0.637054443359375	9.783306533813477	0.3076549133300781	0.2088940948486328	0.110626220703125	-4.817962646484375	-2.895355224609375	10.012551342773437	0.09576806640624999	-0.21727380065917967	3.665924072265625	-4.70733642578125	-2.03704833984375	
264	1.056	0.0	0.0	0.0	0.0	0.006	0.006	0.003	0.003	9.87009634399414	0.10175357055664062	0.08858546142578125	2.20489501953125	-3.36456298828125	-1.190185546875	9.846752877807617	0.21487959899902342	0.11013327636718749	0.156402587890625	-5.0811767578125	-2.75421142578125	10.095749850463866	-0.025139117431640625	-0.29568390502929687	3.582000732421875	-4.718780517578125	-2.292633056640625	
265	1.06	0.0	0.0	0.0	0.0	0.006	0.006	0.003	0.003	9.910797772216796	0.2723404388427734	0.08978256225585937	2.704620361328125	-3.307342529296875	-0.888824462890625	9.7683427734375	0.45190556335449217	0.19572598571777342	0.316619873046875	-4.8065185546875	-2.696990966796875	10.012551342773437	0.2442085693359375	-0.21487959899902342	3.787994384765625	-4.497528076171875	-2.11334228515625	
266	1.064	0.0	0.0	0.0	0.0	0.003	0.003	0.003	0.003	9.892242709350585	0.14903905334472656	0.05566518859863281	3.154754638671875	-3.955841064453125	-0.530242919921875	9.80665	0.16280571289062498	0.17298106994628906	0.118255615234375	-4.909515380859375	-2.74658203125	10.016142645263672	-0.047884033203124995	-0.31543606872558594	3.60107421875	-4.695892333984375	-2.071380615234375	
267	1.068	0.0	0.0	0.0	0.0	0.003	0.006	0.003	0.006	9.938331091308592	0.2549824768066406	0.09277531433105468	2.613067626953125	-3.543853759765625	-0.835418701171875	9.80605144958496	0.40462008056640625	0.20290859069824219	0.431060791015625	-4.913330078125	-2.93731689453125	10.067617980957031	0.1693897674560547	-0.2214636535644531	3.753662109375	-4.611968994140625	-2.361297607421875	
268	1.072	0.0	0.0	0.0	0.0	0.006	0.003	0.006	0.006	9.90122096557617	0.15981296081542967	0.04668693237304687	3.3111572265625	-3.864288330078125	-0.492095947265625	9.815029705810547	0.19393033447265623	0.17357962036132812	0.091552734375	-5.130767822265625	-2.6397705078125	10.049661468505859	-0.025737667846679687	-0.32501287536621093	3.6773681640625	-4.978179931640625	-2.033233642578125	
269	1.076	0.0	0.0	0.0	0.0	0.006	0.003	0.003	0.003	9.928155734252929	0.3094505645751953	0.086191259765625	2.445220947265625	-3.513336181640625	-0.850677490234375	9.7545761138916	0.2711433380126953	0.1693897674560547	0.194549560546875	-4.642486572265625	-3.139495849609375	9.91438907470703	0.14245499877929688	-0.17477672119140625	3.704071044921875	-4.47845458984375	-2.307891845703125	
270	1.08	0.0	0.0	0.0	0.0	0.003	0.003	0.003	0.006	9.882067352294921	0.12689268798828124	0.037708676147460936	3.41796875	-3.894805908203125	-0.25177001953125	9.828197814941406	0.12569558715820311	0.1867477294921875	0.06103515625	-4.787445068359375	-2.796173095703125	10.064026678466796	-0.09038111267089843	-0.3274070770263672	3.620147705078125	-4.55474853515625	-2.14385986328125	
271	1.084	0.0	0.0	0.0	0.0	0.003	0.003	0.006	0.006	9.8694977935791	0.04548983154296875	0.10654197387695312	3.3416748046875	-3.88336181640625	-0.4730224609375	9.783306533813477	0.23882161560058593	0.17357962036132812	0.423431396484375	-4.66156005859375	-3.139495849609375	9.954491952514648	0.11731588134765625	-0.17118541870117188	3.612518310546875	-4.38690185546875	-2.32696533203125	
272	1.088	0.0	0.0	0.0	0.0	0.006	0.006	0.003	0.003	9.898826763916015	0.1580173095703125	0.022744915771484374	3.444671630859375	-4.058837890625	-0.32806396484375	9.743802206420899	0.19692308654785154	0.11671733093261719	0.31280517578125	-4.82940673828125	-2.7008056640625	9.87727894897461	0.07062894897460938	-0.1640028137207031	3.612518310546875	-4.53948974609375	-2.14385986328125	
273	1.092	0.0	0.0	0.0	0.0	0.003	0.003	0.006	0.006	9.86411083984375	0.03651157531738281	0.1388636962890625	3.406524658203125	-3.856658935546875	-0.431060791015625	9.759963067626952	0.2555810272216797	0.1801636749267578	0.400543212890625	-4.955291748046875	-3.070831298828125	9.920374578857421	0.12509703674316405	-0.13587094421386717	3.711700439453125	-4.779815673828125	-2.5177001953125	
274	1.096	0.0	0.0	0.0	0.0	0.006	0.003	0.003	0.003	9.911994873046874	0.11671733093261719	0.13347674255371092	2.288818359375	-3.696441650390625	-0.896453857421875	9.734225399780273	0.15382745666503905	0.1197100830078125	0.057220458984375	-5.023956298828125	-2.64739990234375	9.900023864746093	0.034715924072265626	-0.15562310791015624	3.6163330078125	-4.63104248046875	-2.13623046875	
275	1.1	0.0	0.0	0.0	0.0	0.003	0.003	0.003	0.003	9.87668039855957	0.01975216369628906	0.12689268798828124	3.5400390625	-3.879547119140625	-0.492095947265625	9.810839852905273	0.08678981018066406	0.06045359191894531	0.3509521484375	-4.6234130859375	-3.047943115234375	9.906607919311522	0.1304839904785156	-0.15203180541992187	3.65447998046875	-4.669189453125	-2.277374267578125	
276	1.104	0.0	0.0	0.0	0.0	0.003	0.003	0.006	0.003	9.830592016601562	-0.18614917907714842	-0.010773907470703125	2.040863037109375	-3.582000732421875	-0.545501708984375	9.712079034423828	0.17657237243652343	0.15442600708007811	0.3814697265625	-4.92095947265625	-2.765655517578125	9.84555577697754	0.07781155395507812	-0.15203180541992187	3.7689208984375	-4.299163818359375	-1.739501953125	
277	1.108	0.0	0.0	0.0	0.0	0.006	0.003	0.003	0.003	9.868899243164062	-0.025139117431640625	0.14963760375976562	3.658294677734375	-4.1046142578125	-0.408172607421875	9.812036953735351	0.06823474731445311	0.05746083984375	0.20599365234375	-4.764556884765625	-3.139495849609375	10.020931048583984	-0.13646949462890623	-0.2501940734863281	3.864288330078125	-4.489898681640625	-2.582550048828125	
278	1.112	0.0	0.0	0.0	0.0	0.006	0.003	0.003	0.003	9.84435867614746	-0.24001871643066405	-0.02454056701660156	2.399444580078125	-3.3416748046875	-0.61798095703125	9.782109432983399	0.3333925811767578	0.19991583862304688	0.621795654296875	-4.73785400390625	-2.69317626953125	9.880271701049804	0.05087678527832031	-0.1801636749267578	3.60107421875	-4.787445068359375	-2.231597900390625	
279	1.116	0.0	0.0	0.0	0.0	0.003	0.006	0.003	0.003	9.848548529052733	-0.3393780853271484	-0.03411737365722656	1.56402587890625	-3.398895263671875	-1.1444091796875	9.79348189086914	0.0987608184814453	0.07242460021972656	0.2593994140625	-4.7760009765625	-3.009796142578125	9.996989031982421	-0.12030863342285156	-0.26336218261718747	3.688812255859375	-4.5928955078125	-2.66265869140625	
280	1.12	0.0	0.0	0.0	0.0	0.0	0.003	0.003	0.003	9.849147079467773	-0.25797522888183594	0.005985504150390624	2.18963623046875	-3.459930419921875	-0.74005126953125	9.777919580078125	0.36212300109863277	0.19931728820800781	0.240325927734375	-4.92095947265625	-2.73895263671875	10.014346994018554	0.14305354919433594	-0.16998831787109375	3.73077392578125	-4.72259521484375	-2.044677734375	
281	1.124	0.0	0.0	0.0	0.0	0.003	0.006	0.003	0.003	9.852139831542969	-0.37289690856933594	-0.05027823486328125	1.7242431640625	-3.3416748046875	-1.216888427734375	9.813832604980469	0.06284779357910156	0.03651157531738281	0.446319580078125	-4.970550537109375	-2.75421142578125	10.022128149414062	-0.14604630126953125	-0.27952304382324217	3.749847412109375	-4.680633544921875	-2.66265869140625	
282	1.1280000000000001	0.0	0.0	0.0	0.0	0.003	0.003	0.003	0.003	9.8449572265625	-0.2807201446533203	-0.003591302490234375	2.03704833984375	-3.345489501953125	-0.782012939453125	9.769539874267577	0.3854664672851562	0.16998831787109375	0.240325927734375	-4.825592041015625	-2.712249755859375	10.02392380065918	0.12449848632812499	-0.19033903198242186	3.810882568359375	-4.5623779296875	-2.185821533203125	
283	1.1320000000000001	0.0	0.0	0.0	0.0	0.003	0.003	0.003	0.003	9.82460651245117	-0.3699041564941406	-0.03172317199707031	1.2664794921875	-2.95257568359375	-1.354217529296875	9.879673150634765	0.09636661682128905	0.08439560852050781	0.64849853515625	-5.07354736328125	-3.025054931640625	10.151415039062499	-0.36092590026855464	-0.3327940307617187	3.787994384765625	-4.5928955078125	-2.1514892578125	
284	1.1360000000000001	0.0	0.0	0.0	0.0	0.006	0.003	0.006	0.003	9.798868844604492	0.22864625854492185	0.35194764404296874	2.1514892578125	-2.796173095703125	-0.74005126953125	9.762955819702148	0.38307226562499996	0.17477672119140625	0.362396240234375	-4.85992431640625	-2.8076171875	10.038289010620117	0.13587094421386717	-0.1753752716064453	3.6468505859375	-4.730224609375	-2.05230712890625	
285	1.1400000000000001	0.0	0.0	0.0	0.0	0.003	0.006	0.003	0.006	9.826402163696288	-0.3902548706054687	-0.047285482788085934	1.422882080078125	-2.89154052734375	-1.1444091796875	9.885060104370117	0.09157821350097656	0.055066638183593745	0.72479248046875	-5.035400390625	-2.986907958984375	10.200496173095702	-0.4273649963378906	-0.36152445068359373	3.726959228515625	-4.75311279296875	-1.983642578125	
286	1.1440000000000001	0.0	0.0	0.0	0.0	0.003	0.003	0.003	0.003	9.80066449584961	0.2980781066894531	0.3687070556640625	2.132415771484375	-3.063201904296875	-0.743865966796875	9.710881933593749	0.42437224426269526	0.41419688720703124	0.19073486328125	-4.75311279296875	-2.655029296875	10.026318002319336	0.1610100616455078	-0.16220716247558592	3.620147705078125	-4.665374755859375	-2.056121826171875	
287	1.1480000000000001	0.0	0.0	0.0	0.0	0.0	0.003	0.003	0.003	9.819219558715819	-0.35015199279785153	-0.025737667846679687	2.506256103515625	-3.261566162109375	-1.04522705078125	9.878476049804688	0.12629413757324218	0.05386953735351562	0.675201416015625	-4.718780517578125	-2.887725830078125	10.180145458984374	-0.430956298828125	-0.36152445068359373	3.662109375	-4.53948974609375	-2.044677734375	
288	1.1520000000000001	0.0	0.0	0.0	0.0	0.003	0.003	0.003	0.003	9.817423907470703	0.3872621185302734	0.36571430358886714	2.41851806640625	-3.44085693359375	-0.7171630859375	9.737816702270507	0.44053310546874996	0.39863457641601563	0.171661376953125	-4.94384765625	-2.849578857421875	10.08677159423828	0.24361001892089842	-0.17477672119140625	3.559112548828125	-4.61578369140625	-1.934051513671875	
289	1.156	0.0	0.0	0.0	0.0	0.006	0.003	0.006	0.003	9.90241806640625	0.4213794921875	0.20051438903808594	2.593994140625	-3.570556640625	-1.041412353515625	9.836577520751952	0.023343466186523436	0.1879448303222656	-0.2288818359375	-4.665374755859375	-2.54058837890625	10.196904870605469	-0.4686649749755859	-0.37888241271972656	3.589630126953125	-4.5013427734375	-2.349853515625	
290	1.16	0.0	0.0	0.0	0.0	0.003	0.003	0.006	0.009000000000000001	9.804854348754882	0.5195417602539062	0.39324762268066404	2.44903564453125	-3.22723388671875	-0.64849853515625	9.737816702270507	0.44592005920410155	0.4285620971679687	0.438690185546875	-4.772186279296875	-2.758026123046875	10.06223102722168	0.24959552307128904	-0.14724340209960937	3.574371337890625	-4.82940673828125	-2.044677734375	
291	1.164	0.0	0.0	0.0	0.0	0.003	0.003	0.003	0.0	9.932345587158203	0.49320554199218747	0.17178396911621094	2.99835205078125	-3.7841796875	-0.713348388671875	9.848548529052733	0.05327098693847656	0.18375497741699218	0.1373291015625	-4.76837158203125	-2.742767333984375	10.032902056884765	-0.1514332550048828	-0.3920505218505859	3.353118896484375	-4.4708251953125	-1.983642578125	
292	1.168	0.0	0.0	0.0	0.0	0.003	0.006	0.003	0.003	9.980229620361328	0.5434837768554687	-0.03232172241210937	4.4403076171875	-4.383087158203125	-0.408172607421875	9.81862100830078	0.26755203552246093	0.11851298217773437	-0.05340576171875	-4.85992431640625	-2.643585205078125	10.069413632202147	0.22685060729980466	-0.14784195251464843	3.66973876953125	-4.558563232421875	-1.949310302734375	
293	1.172	0.0	0.0	0.0	0.0	0.006	0.003	0.006	0.003	9.935338339233398	0.5159504577636719	0.17178396911621094	3.35693359375	-4.169464111328125	-0.675201416015625	9.85094273071289	0.011971008300781249	0.18854338073730467	0.06866455078125	-5.039215087890625	-2.719879150390625	10.028113653564452	-0.20470424194335937	-0.3908534210205078	3.536224365234375	-4.7607421875	-1.94549560546875	
294	1.176	0.0	0.0	0.0	0.0	0.003	0.003	0.003	0.006	9.961076007080077	0.5207388610839844	-0.047884033203124995	4.2572021484375	-4.589080810546875	-0.51116943359375	9.80066449584961	0.31483751831054685	0.10773907470703124	0.102996826171875	-4.817962646484375	-2.643585205078125	9.861716638183593	0.4722562774658203	-0.17058686828613281	3.620147705078125	-4.46319580078125	-2.532958984375	
295	1.18	0.0	0.0	0.0	0.0	0.003	0.003	0.003	0.006	9.944316595458984	0.5530605834960938	0.1352723937988281	3.71551513671875	-4.14276123046875	-0.308990478515625	9.749189160156249	0.14724340209960937	0.10654197387695312	0.026702880859375	-4.779815673828125	-2.35748291015625	10.019733947753906	-0.20709844360351562	-0.39803602600097654	3.68499755859375	-4.61578369140625	-1.64031982421875	
296	1.184	0.0	0.0	0.0	0.0	0.0	0.003	0.006	0.003	9.911994873046874	0.41958384094238277	-0.05626373901367187	4.34112548828125	-4.367828369140625	-0.606536865234375	9.798270294189452	0.24121581726074218	0.13467384338378904	0.06866455078125	-4.726409912109375	-2.788543701171875	9.855132583618163	0.421978042602539	-0.16819266662597654	3.780364990234375	-4.5318603515625	-2.6397705078125	
297	1.188	0.0	0.0	0.0	0.0	0.003	0.003	0.003	0.003	9.82580361328125	-0.022146365356445312	-0.00239420166015625	2.5482177734375	-3.7384033203125	-0.606536865234375	9.749189160156249	0.14903905334472656	0.09816226806640624	-0.095367431640625	-4.825592041015625	-2.28118896484375	10.013748443603514	-0.25797522888183594	-0.3280056274414062	3.8909912109375	-4.730224609375	-2.25067138671875	
298	1.192	0.0	0.0	0.0	0.0	0.006	0.003	0.003	0.006	9.885658654785155	0.3363853332519531	-0.08319850769042968	3.997802734375	-4.32586669921875	-0.74005126953125	9.708487731933593	0.3441664886474609	0.08439560852050781	0.23651123046875	-4.81414794921875	-3.30352783203125	9.849147079467773	0.49021278991699213	-0.18914193115234373	3.6468505859375	-4.49371337890625	-2.3651123046875	
299	1.196	0.0	0.0	0.0	0.0	0.006	0.003	0.003	0.006	9.795876092529296	-0.14006079711914063	0.023343466186523436	1.842498779296875	-3.47900390625	-0.5340576171875	9.758167416381836	0.06344634399414062	0.08080430603027343	-0.0457763671875	-4.66156005859375	-2.574920654296875	9.814431155395507	0.3130418670654297	-0.16340426330566404	3.936767578125	-4.673004150390625	-2.166748046875	
300	1.2	0.0	0.0	0.0	0.0	-0.003	0.003	0.003	0.003	9.860519537353515	0.19572598571777342	-0.07003039855957031	0.42724609375	-2.44140625	-1.430511474609375	9.714473236083984	0.33758243408203126	0.10235212097167969	0.3204345703125	-4.787445068359375	-3.360748291015625	9.86411083984375	0.48123453369140623	-0.16340426330566404	3.505706787109375	-4.543304443359375	-2.788543701171875	
301	1.204	0.0	0.0	0.0	0.0	0.003	0.003	0.003	0.003	9.776123928833007	-0.1879448303222656	0.040701428222656245	1.39617919921875	-3.021240234375	-0.87738037109375	9.753379013061522	0.09935936889648436	0.08259995727539061	0.614166259765625	-4.82177734375	-3.200531005859375	9.815029705810547	0.3573345977783203	-0.15382745666503905	3.681182861328125	-4.566192626953125	-1.949310302734375	
302	1.208	0.0	0.0	0.0	0.0	0.003	0.003	0.003	0.003	9.847351428222655	-0.6296750366210937	0.09636661682128905	0.041961669921875	-2.368927001953125	-1.5869140625	9.693523971557617	0.3441664886474609	0.11911153259277343	0.30517578125	-4.840850830078125	-3.0975341796875	9.981426721191406	-0.018555062866210937	-0.24181436767578124	3.696441650390625	-4.4403076171875	-2.73895263671875	
303	1.212	0.0	0.0	0.0	0.0	0.003	0.003	0.003	0.003	9.766547122192382	-0.26755203552246093	0.0526724365234375	0.79345703125	-2.8228759765625	-1.003265380859375	9.719860189819336	0.6194996795654296	0.13946224670410157	0.553131103515625	-4.9896240234375	-3.2196044921875	9.83178911743164	0.24480711975097655	-0.14544775085449219	3.79180908203125	-4.5623779296875	-2.376556396484375	
304	1.216	0.0	0.0	0.0	0.0	0.003	0.003	0.003	0.003	9.890447058105469	-0.6212953308105469	0.07003039855957031	-0.011444091796875	-2.37274169921875	-1.506805419921875	9.689932669067382	0.36092590026855464	0.12868833923339842	0.713348388671875	-4.024505615234375	-3.368377685546875	9.988010775756836	-0.011971008300781249	-0.21308394775390624	3.765106201171875	-4.35638427734375	-3.1280517578125	
305	1.22	0.0	0.0	0.0	0.0	0.003	0.003	0.006	0.003	9.999383233642577	-0.17238251953125	0.12808978881835936	1.667022705078125	-2.79998779296875	-0.5950927734375	9.702502227783203	0.6554127044677734	0.12629413757324218	0.75531005859375	-4.787445068359375	-2.704620361328125	10.037690460205077	0.2214636535644531	-0.0909796630859375	3.5400390625	-4.932403564453125	-1.712799072265625	
306	1.224	0.0	0.0	0.0	0.0	0.003	0.003	0.003	0.006	9.909600671386718	-0.6260837341308594	0.05327098693847656	-0.064849853515625	-2.407073974609375	-1.537322998046875	9.868300692749022	0.32022447204589843	0.14006079711914063	0.67901611328125	-4.642486572265625	-3.177642822265625	9.957484704589843	-0.06763619689941405	-0.1849520782470703	3.658294677734375	-4.40216064453125	-3.082275390625	
307	1.228	0.0	0.0	0.0	0.0	0.006	0.003	0.006	0.009000000000000001	10.015544094848632	-0.09157821350097656	0.16699556579589842	2.25067138671875	-3.520965576171875	-0.7476806640625	9.702502227783203	0.6236895324707031	0.143652099609375	0.8544921875	-5.25665283203125	-3.002166748046875	10.046668716430663	0.18914193115234373	-0.08738836059570312	3.665924072265625	-4.5623779296875	-1.667022705078125	
308	1.232	0.0	0.0	0.0	0.0	0.009000000000000001	0.006	0.006	0.006	9.935936889648437	-0.5829881042480468	0.029328970336914062	0.3814697265625	-2.62451171875	-1.514434814453125	9.848548529052733	0.3315969299316406	0.1388636962890625	0.354766845703125	-4.90570068359375	-3.116607666015625	10.27232222290039	-0.6057330200195312	-0.5722141967773438	3.528594970703125	-4.45556640625	-2.01416015625	
