	time	dac1	dac2	dac3	dac4	adc1.3	adc2.3	adc3.3	adc4.3	imu1accx	imu1accy	imu1accz	imu1gyrox	imu1gyroy	imu1gyroz	imu2accx	imu2accy	imu2accz	imu2gyrox	imu2gyroy	imu2gyroz	imu3accx	imu3accy	imu3accz	imu3gyrox	imu3gyroy	imu3gyroz	log
0	0.0	0.0	0.0	0.0	0.0	0.006	0.003	0.006	0.003	9.87009634399414	0.05805939025878906	0.12030863342285156	2.628326416015625	-3.551483154296875	-0.698089599609375	9.780912332153319	0.2154781494140625	0.19931728820800781	0.3814697265625	-4.79888916015625	-2.735137939453125	9.998784683227539	0.023343466186523436	-0.20769699401855468	3.692626953125	-4.558563232421875	-2.109527587890625	Estabilizou em 9s, 1839 rpm
1	0.004	0.0	0.0	0.0	0.0	0.003	0.003	0.003	0.003	9.867103591918944	0.0526724365234375	0.11552023010253906	2.651214599609375	-3.59344482421875	-0.904083251953125	9.784503634643555	0.21487959899902342	0.18435352783203124	0.4730224609375	-5.054473876953125	-2.75421142578125	10.000580334472655	0.01915361328125	-0.22505495605468748	3.643035888671875	-4.61578369140625	-1.888275146484375	Started
2	0.008	0.0	0.0	0.0	0.0	0.006	0.003	0.006	0.006	9.871293444824218	0.05027823486328125	0.1149216796875	2.498626708984375	-3.307342529296875	-0.690460205078125	9.787496386718749	0.20829554443359374	0.17597382202148437	0.54931640625	-4.848480224609375	-2.674102783203125	10.01674119567871	0.001197100830078125	-0.2166752502441406	3.692626953125	-4.730224609375	-2.01416015625	IMU1|LSM6DS3|0x6A|I2C-1|±2g (±19,6m/s²)|±125º/s|400Hz
3	0.012	0.0	0.0	0.0	0.0	0.0	0.003	0.006	0.0	9.879074600219726	0.04608838195800781	0.12330138549804687	2.79998779296875	-3.665924072265625	-0.87738037109375	9.78629928588867	0.1975216369628906	0.1801636749267578	0.57220458984375	-4.825592041015625	-3.0059814453125	10.020931048583984	0.002992752075195312	-0.21308394775390624	3.60107421875	-4.856109619140625	-2.03704833984375	IMU2|LSM6DS3|0x6B|I2C-1|±2g (±19,6m/s²)|±125º/s|400Hz
4	0.016	0.0	0.0	0.0	0.0	0.006	0.003	0.006	0.003	9.878476049804688	0.054468087768554684	0.08798691101074219	2.66265869140625	-3.536224365234375	-0.858306884765625	9.785102185058593	0.20171148986816406	0.15562310791015624	0.141143798828125	-4.95147705078125	-2.605438232421875	10.016142645263672	0.011372457885742187	-0.23403321228027343	3.696441650390625	-4.688262939453125	-2.170562744140625	IMU3|LSM6DS3|0x6B|I2C-2|±2g (±19,6m/s²)|±125º/s|400Hz
5	0.02	0.0	0.0	0.0	0.0	0.0	0.003	0.003	0.003	9.865307940673828	0.04548983154296875	0.105344873046875	2.460479736328125	-3.795623779296875	-0.37384033203125	9.780912332153319	0.20709844360351562	0.17058686828613281	-0.019073486328125	-4.93621826171875	-2.758026123046875	10.006565838623047	0.00239420166015625	-0.2184709014892578	3.574371337890625	-4.50897216796875	-2.15911865234375	ADC|ADS1015|0|0|1|0|±6,144 V|2400 SPS
6	0.024	0.0	0.0	0.0	0.0	0.006	0.003	0.003	0.003	9.853336932373047	0.03950432739257812	0.09935936889648436	2.63214111328125	-3.528594970703125	-0.659942626953125	9.782707983398437	0.19692308654785154	0.17118541870117188	0.3662109375	-5.05828857421875	-2.971649169921875	9.994594830322265	-0.0143652099609375	-0.2214636535644531	3.70025634765625	-4.787445068359375	-2.155303955078125	Gen1|Disabled
7	0.028	0.0	0.0	0.0	0.0	0.003	0.006	0.003	0.003	9.865307940673828	0.047884033203124995	0.08738836059570312	2.55584716796875	-3.551483154296875	-0.86212158203125	9.783905084228515	0.20171148986816406	0.1592144104003906	0.270843505859375	-4.718780517578125	-2.8076171875	10.008960040283203	-0.008379705810546874	-0.23882161560058593	3.7841796875	-4.634857177734375	-2.010345458984375	Gen2|Enabled|Noise|0.0|10.0|1668
8	0.032	0.0	0.0	0.0	0.0	0.006	0.003	0.003	0.003	9.882067352294921	0.06105214233398437	0.08559270935058594	2.72369384765625	-3.72314453125	-0.621795654296875	9.790489138793944	0.2214636535644531	0.15263035583496093	0.20599365234375	-4.840850830078125	-2.803802490234375	10.021529598999022	0.017956512451171875	-0.239420166015625	3.83758544921875	-4.779815673828125	-2.23541259765625	Gen3|Enabled|Noise|0.0|10.0|128
9	0.036000000000000004	0.0	0.0	0.0	0.0	0.006	0.003	0.003	0.003	9.891644158935547	0.04668693237304687	0.09038111267089843	2.5482177734375	-3.662109375	-0.823974609375	9.78629928588867	0.20350714111328125	0.16340426330566404	0.2288818359375	-4.619598388671875	-2.8228759765625	10.014346994018554	0.007781155395507812	-0.21906945190429686	3.635406494140625	-4.756927490234375	-2.231597900390625	Gen4|Enabled|Noise|0.0|10.0|128
10	0.04	0.0	0.0	0.0	0.0	0.003	0.003	0.003	0.006	9.874884747314452	0.05027823486328125	0.08259995727539061	2.44140625	-3.3721923828125	-0.5645751953125	9.789890588378906	0.20231004028320312	0.16519991455078123	0.23651123046875	-4.840850830078125	-2.796173095703125	10.005368737792969	0.003591302490234375	-0.2292448089599609	3.80706787109375	-4.70733642578125	-2.12860107421875	Ctrl|Disabled
11	0.044	0.0	0.0	0.0	0.0	0.003	0.003	0.003	0.003	9.87009634399414	0.0652419952392578	0.07541735229492187	2.89154052734375	-3.688812255859375	-0.7781982421875	9.785102185058593	0.22445640563964842	0.14784195251464843	0.316619873046875	-4.64630126953125	-3.017425537109375	9.988609326171874	0.023343466186523436	-0.23882161560058593	3.51715087890625	-4.619598388671875	-2.246856689453125	
12	0.048	0.0	0.0	0.0	0.0	0.003	0.003	0.003	0.003	9.86411083984375	0.06404489440917968	0.06883329772949218	2.6702880859375	-3.696441650390625	-0.67138671875	9.785102185058593	0.22086510314941404	0.15263035583496093	0.762939453125	-4.99725341796875	-2.780914306640625	9.995791931152343	0.02454056701660156	-0.2328361114501953	3.803253173828125	-4.5928955078125	-2.216339111328125	
13	0.052000000000000005	0.0	0.0	0.0	0.0	0.006	0.003	0.003	0.006	9.87727894897461	0.06703764648437499	0.05327098693847656	2.61688232421875	-3.8604736328125	-0.6256103515625	9.782707983398437	0.21787235107421873	0.12808978881835936	0.209808349609375	-4.852294921875	-2.78472900390625	10.007164389038085	0.013766659545898436	-0.23523031311035156	3.582000732421875	-4.665374755859375	-2.13623046875	
14	0.056	0.0	0.0	0.0	0.0	0.006	0.006	0.003	0.003	9.87727894897461	0.08379705810546874	0.059256491088867186	2.750396728515625	-3.505706787109375	-0.942230224609375	9.794678991699218	0.239420166015625	0.1292868896484375	0.38909912109375	-4.787445068359375	-2.92205810546875	10.019733947753906	0.03531447448730469	-0.2645592834472656	3.696441650390625	-4.72259521484375	-2.288818359375	
15	0.06	0.0	0.0	0.0	0.0	0.003	0.003	0.003	0.003	9.8694977935791	0.0939724151611328	0.07003039855957031	2.941131591796875	-3.704071044921875	-0.67138671875	9.78629928588867	0.2454056701660156	0.14185644836425781	0.392913818359375	-4.909515380859375	-2.742767333984375	10.008960040283203	0.051475335693359374	-0.2645592834472656	3.673553466796875	-4.589080810546875	-2.3040771484375	
16	0.064	0.0	0.0	0.0	0.0	0.003	0.006	0.003	0.003	9.85632968444824	0.09576806640624999	0.06464344482421874	2.628326416015625	-3.582000732421875	-0.72479248046875	9.784503634643555	0.23582886352539062	0.14604630126953125	0.186920166015625	-4.82940673828125	-2.704620361328125	9.995791931152343	0.04548983154296875	-0.2555810272216797	3.85284423828125	-4.52423095703125	-2.08282470703125	
17	0.068	0.0	0.0	0.0	0.0	0.003	0.006	0.003	0.006	9.86411083984375	0.10594342346191406	0.06105214233398437	2.513885498046875	-3.4637451171875	-0.759124755859375	9.788693487548828	0.2603694305419922	0.12449848632812499	0.35858154296875	-4.82940673828125	-2.8839111328125	10.005368737792969	0.05985504150390625	-0.2711433380126953	3.787994384765625	-4.756927490234375	-2.155303955078125	
18	0.07200000000000001	0.0	0.0	0.0	0.0	0.003	0.003	0.003	0.003	9.871293444824218	0.12629413757324218	0.062249243164062495	2.727508544921875	-3.665924072265625	-0.545501708984375	9.789890588378906	0.26874913635253905	0.13587094421386717	0.2593994140625	-4.791259765625	-2.81524658203125	10.007762939453125	0.07302315063476562	-0.2765302917480469	3.84521484375	-4.852294921875	-2.109527587890625	
19	0.076	0.0	0.0	0.0	0.0	0.006	0.006	0.006	0.003	9.879673150634765	0.12150573425292968	0.07362170104980469	2.6397705078125	-3.559112548828125	-0.507354736328125	9.784503634643555	0.2651578338623047	0.13646949462890623	0.20599365234375	-4.638671875	-2.712249755859375	10.012551342773437	0.06344634399414062	-0.26336218261718747	3.841400146484375	-4.550933837890625	-1.82342529296875	
20	0.08	0.0	0.0	0.0	0.0	0.003	0.003	0.003	0.003	9.88386300354004	0.11611878051757812	0.06763619689941405	2.422332763671875	-3.414154052734375	-0.835418701171875	9.785102185058593	0.2693476867675781	0.13168109130859373	0.45013427734375	-4.993438720703125	-2.643585205078125	10.016142645263672	0.07362170104980469	-0.26755203552246093	3.643035888671875	-4.619598388671875	-2.338409423828125	
21	0.084	0.0	0.0	0.0	0.0	0.003	0.003	0.003	0.003	9.871293444824218	0.11671733093261719	0.07900865478515624	2.777099609375	-3.70025634765625	-0.79345703125	9.785102185058593	0.2753331909179687	0.1370680450439453	0.274658203125	-4.608154296875	-2.6397705078125	10.004770187377929	0.07721300354003906	-0.258573779296875	3.83758544921875	-4.543304443359375	-1.96075439453125	
22	0.088	0.0	0.0	0.0	0.0	0.003	0.006	0.006	0.003	9.858723886108399	0.11372457885742186	0.08798691101074219	2.49481201171875	-3.551483154296875	-0.579833984375	9.784503634643555	0.2609679809570312	0.15263035583496093	0.11444091796875	-4.734039306640625	-2.8839111328125	10.001777435302733	0.06763619689941405	-0.2424129180908203	3.60107421875	-4.878997802734375	-2.17437744140625	
23	0.092	0.0	0.0	0.0	0.0	0.003	0.003	0.006	0.003	9.871891995239258	0.11372457885742186	0.09576806640624999	2.288818359375	-3.631591796875	-0.659942626953125	9.787496386718749	0.2705447875976562	0.16220716247558592	0.492095947265625	-5.05828857421875	-2.69317626953125	10.018536846923828	0.06883329772949218	-0.23702596435546874	3.742218017578125	-4.53948974609375	-2.166748046875	
24	0.096	0.0	0.0	0.0	0.0	0.003	0.003	0.006	0.009000000000000001	9.880271701049804	0.11731588134765625	0.08559270935058594	2.544403076171875	-3.490447998046875	-0.8087158203125	9.785102185058593	0.27174188842773433	0.16998831787109375	0.0152587890625	-4.901885986328125	-2.73895263671875	10.011354241943359	0.07841010437011718	-0.22565350646972654	3.612518310546875	-4.604339599609375	-2.147674560546875	
25	0.1	0.0	0.0	0.0	0.0	0.006	0.003	0.006	0.003	9.874884747314452	0.0939724151611328	0.10354922180175781	2.536773681640625	-3.963470458984375	-0.75531005859375	9.792284790039062	0.25797522888183594	0.18435352783203124	0.194549560546875	-4.962921142578125	-2.8839111328125	10.004770187377929	0.06883329772949218	-0.21727380065917967	3.509521484375	-4.573822021484375	-2.040863037109375	
26	0.10400000000000001	0.0	0.0	0.0	0.0	0.003	0.003	0.003	0.003	9.867103591918944	0.09516951599121093	0.11372457885742186	2.50244140625	-3.421783447265625	-0.629425048828125	9.783905084228515	0.2609679809570312	0.19812018737792966	0.270843505859375	-4.89044189453125	-2.689361572265625	9.99160207824707	0.05027823486328125	-0.2041056915283203	3.76129150390625	-4.5928955078125	-2.06756591796875	
27	0.108	0.0	0.0	0.0	0.0	0.003	0.003	0.003	0.003	9.87009634399414	0.09995791931152344	0.10714052429199218	2.468109130859375	-3.41033935546875	-0.743865966796875	9.785102185058593	0.2561795776367187	0.1945288848876953	0.11444091796875	-4.726409912109375	-2.51007080078125	10.001178884887695	0.04908113403320312	-0.18914193115234373	3.88336181640625	-4.528045654296875	-2.13623046875	
28	0.112	0.0	0.0	0.0	0.0	0.003	0.003	0.003	0.006	9.860519537353515	0.0939724151611328	0.12629413757324218	2.6702880859375	-3.5247802734375	-0.659942626953125	9.78629928588867	0.24001871643066405	0.2059013427734375	0.3662109375	-4.840850830078125	-2.838134765625	10.012551342773437	0.04369418029785156	-0.18435352783203124	3.5858154296875	-4.627227783203125	-2.2735595703125	
29	0.116	0.0	0.0	0.0	0.0	0.003	0.003	0.003	0.006	9.875483297729492	0.09038111267089843	0.13287819213867186	2.414703369140625	-3.688812255859375	-0.7171630859375	9.788693487548828	0.22864625854492185	0.20051438903808594	0.026702880859375	-4.974365234375	-2.60162353515625	10.014945544433592	0.04908113403320312	-0.18136077575683593	3.719329833984375	-4.627227783203125	-2.101898193359375	
30	0.12	0.0	0.0	0.0	0.0	0.006	0.003	0.003	0.006	9.879673150634765	0.086191259765625	0.1352723937988281	2.410888671875	-3.681182861328125	-0.55694580078125	9.78629928588867	0.23822306518554687	0.19512743530273435	0.408172607421875	-4.756927490234375	-2.727508544921875	10.011952792358398	0.05566518859863281	-0.1849520782470703	3.753662109375	-4.695892333984375	-2.140045166015625	
31	0.124	0.0	0.0	0.0	0.0	0.003	0.003	0.003	0.006	9.874286196899414	0.07541735229492187	0.12629413757324218	2.666473388671875	-3.509521484375	-0.64849853515625	9.779715231323241	0.22864625854492185	0.19991583862304688	0.396728515625	-4.787445068359375	-2.666473388671875	10.005368737792969	0.0383072265625	-0.17896657409667968	3.818511962890625	-4.669189453125	-2.239227294921875	
32	0.128	0.0	0.0	0.0	0.0	0.003	0.003	0.006	0.006	9.86411083984375	0.06943184814453125	0.12808978881835936	2.6397705078125	-3.7994384765625	-0.6561279296875	9.781510882568359	0.2280477081298828	0.2041056915283203	0.18310546875	-4.695892333984375	-2.74658203125	9.995193380737303	0.03172317199707031	-0.1801636749267578	3.681182861328125	-4.69207763671875	-2.185821533203125	
33	0.132	0.0	0.0	0.0	0.0	0.003	0.003	0.003	0.006	9.874884747314452	0.06823474731445311	0.13407529296874998	2.83050537109375	-3.543853759765625	-0.629425048828125	9.780912332153319	0.2262520568847656	0.1975216369628906	0.20599365234375	-4.76837158203125	-2.72369384765625	10.000580334472655	0.03651157531738281	-0.19393033447265623	3.45611572265625	-4.619598388671875	-2.117156982421875	
34	0.136	0.0	0.0	0.0	0.0	0.006	0.003	0.003	0.003	9.86291373901367	0.06883329772949218	0.12569558715820311	2.712249755859375	-3.704071044921875	-0.530242919921875	9.788693487548828	0.22206220397949217	0.17836802368164062	0.38909912109375	-4.886627197265625	-2.86102294921875	10.008361489868163	0.027533319091796873	-0.19692308654785154	3.543853759765625	-4.638671875	-2.09808349609375	
35	0.14	0.0	0.0	0.0	0.0	0.003	0.003	0.006	0.003	9.868300692749022	0.04967968444824218	0.12210428466796874	2.63214111328125	-3.82232666015625	-0.640869140625	9.788693487548828	0.21308394775390624	0.1879448303222656	0.408172607421875	-4.84466552734375	-2.6702880859375	10.005368737792969	0.01915361328125	-0.1927332336425781	3.70025634765625	-4.779815673828125	-2.094268798828125	
36	0.14400000000000002	0.0	0.0	0.0	0.0	0.0	0.003	0.003	0.003	9.87668039855957	0.05327098693847656	0.11252747802734374	2.70843505859375	-3.337860107421875	-0.70953369140625	9.790489138793944	0.21428104858398436	0.1771709228515625	0.14495849609375	-4.85992431640625	-2.788543701171875	10.005368737792969	0.020350714111328123	-0.2136824981689453	3.77655029296875	-4.589080810546875	-2.15911865234375	
37	0.148	0.0	0.0	0.0	0.0	0.0	0.006	0.006	0.0	9.878476049804688	0.05746083984375	0.11671733093261719	2.60162353515625	-3.337860107421875	-0.995635986328125	9.788693487548828	0.21188684692382811	0.15861585998535155	0.247955322265625	-4.75311279296875	-2.651214599609375	10.007164389038085	0.013168109130859374	-0.22266075439453123	3.509521484375	-4.638671875	-2.08282470703125	
38	0.152	0.0	0.0	0.0	0.0	0.006	0.003	0.006	0.003	9.85752678527832	0.0526724365234375	0.11911153259277343	2.64739990234375	-3.4027099609375	-0.6866455078125	9.779715231323241	0.20709844360351562	0.16819266662597654	0.26702880859375	-4.79888916015625	-2.777099609375	10.008361489868163	0.003591302490234375	-0.22864625854492185	3.467559814453125	-4.69970703125	-2.1209716796875	
39	0.156	0.0	0.0	0.0	0.0	0.006	0.003	0.006	0.006	9.86411083984375	0.03890577697753906	0.09576806640624999	2.658843994140625	-3.627777099609375	-0.804901123046875	9.785102185058593	0.20649989318847656	0.17417817077636719	0.164031982421875	-4.848480224609375	-2.72369384765625	10.001777435302733	-0.005985504150390624	-0.22385785522460935	3.574371337890625	-4.558563232421875	-2.105712890625	
40	0.16	0.0	0.0	0.0	0.0	0.003	0.003	0.003	0.003	9.874884747314452	0.05386953735351562	0.09217676391601562	2.7618408203125	-3.51715087890625	-0.743865966796875	9.785102185058593	0.2059013427734375	0.17118541870117188	0.339508056640625	-4.840850830078125	-2.86102294921875	10.014346994018554	0.00239420166015625	-0.2262520568847656	3.7689208984375	-4.69970703125	-2.384185791015625	
41	0.164	0.0	0.0	0.0	0.0	0.003	0.003	0.003	0.006	9.875483297729492	0.04967968444824218	0.086191259765625	2.685546875	-3.7994384765625	-0.7476806640625	9.785700735473633	0.20649989318847656	0.1693897674560547	0.09918212890625	-5.031585693359375	-2.838134765625	10.008960040283203	0.0017956512451171875	-0.22565350646972654	3.726959228515625	-4.84466552734375	-2.18963623046875	
42	0.168	0.0	0.0	0.0	0.0	0.006	0.003	0.006	0.006	9.87009634399414	0.0526724365234375	0.08738836059570312	2.811431884765625	-3.7841796875	-0.67138671875	9.78629928588867	0.20051438903808594	0.1514332550048828	0.156402587890625	-4.756927490234375	-2.803802490234375	10.012551342773437	0.006584054565429687	-0.22445640563964842	3.559112548828125	-4.547119140625	-2.0599365234375	
43	0.17200000000000001	0.0	0.0	0.0	0.0	0.006	0.003	0.003	0.006	9.872490545654296	0.04369418029785156	0.07003039855957031	2.6397705078125	-3.82232666015625	-0.713348388671875	9.787496386718749	0.20051438903808594	0.14484920043945312	0.400543212890625	-4.730224609375	-2.86865234375	10.01015714111328	0.001197100830078125	-0.2280477081298828	3.7689208984375	-4.6234130859375	-2.071380615234375	
44	0.176	0.0	0.0	0.0	0.0	0.003	0.003	0.003	0.0	9.882067352294921	0.044292730712890624	0.06943184814453125	2.574920654296875	-3.7384033203125	-0.823974609375	9.789890588378906	0.20649989318847656	0.15203180541992187	0.335693359375	-4.89044189453125	-2.7923583984375	10.007164389038085	-0.0005985504150390625	-0.2346317626953125	3.68499755859375	-4.802703857421875	-2.18963623046875	
45	0.18	0.0	0.0	0.0	0.0	0.009000000000000001	0.006	0.003	0.003	9.87727894897461	0.047884033203124995	0.07900865478515624	2.521514892578125	-3.68499755859375	-0.591278076171875	9.795876092529296	0.20649989318847656	0.14724340209960937	0.072479248046875	-5.130767822265625	-2.78472900390625	10.003573086547851	0.0	-0.2424129180908203	3.681182861328125	-4.730224609375	-2.105712890625	
46	0.184	0.0	0.0	0.0	0.0	0.003	0.003	0.003	0.003	9.886257205200195	0.054468087768554684	0.07122749938964844	2.628326416015625	-3.7841796875	-0.6256103515625	9.789890588378906	0.21727380065917967	0.13168109130859373	0.255584716796875	-4.8065185546875	-2.651214599609375	10.011354241943359	0.008379705810546874	-0.2555810272216797	3.570556640625	-4.79888916015625	-2.124786376953125	
47	0.188	0.0	0.0	0.0	0.0	0.006	0.003	0.003	0.006	9.875483297729492	0.06344634399414062	0.07601590270996093	2.57110595703125	-3.60107421875	-0.797271728515625	9.784503634643555	0.21128829650878905	0.13766659545898435	0.133514404296875	-4.8675537109375	-2.788543701171875	9.995791931152343	0.017357962036132813	-0.2501940734863281	3.803253173828125	-4.70733642578125	-2.0904541015625	
48	0.192	0.0	0.0	0.0	0.0	0.006	0.003	0.003	0.003	9.859322436523437	0.06344634399414062	0.07541735229492187	2.7008056640625	-3.513336181640625	-0.743865966796875	9.782109432983399	0.22086510314941404	0.13467384338378904	0.54168701171875	-4.894256591796875	-2.72369384765625	9.995791931152343	0.022744915771484374	-0.24959552307128904	3.673553466796875	-4.6539306640625	-2.11334228515625	
49	0.196	0.0	0.0	0.0	0.0	0.003	0.003	0.003	0.006	9.86411083984375	0.07242460021972656	0.07122749938964844	2.376556396484375	-3.528594970703125	-0.713348388671875	9.785102185058593	0.22086510314941404	0.14006079711914063	0.26702880859375	-4.974365234375	-2.7618408203125	10.005368737792969	0.011971008300781249	-0.25258827514648435	3.696441650390625	-4.45556640625	-2.1514892578125	
50	0.2	0.0	0.0	0.0	0.0	0.006	0.006	0.003	0.006	9.878476049804688	0.07841010437011718	0.07122749938964844	2.567291259765625	-3.4637451171875	-0.9613037109375	9.78629928588867	0.23403321228027343	0.1406593475341797	0.31280517578125	-5.077362060546875	-3.04412841796875	10.014945544433592	0.02693476867675781	-0.2651578338623047	3.566741943359375	-4.764556884765625	-2.0904541015625	
51	0.20400000000000001	0.0	0.0	0.0	0.0	0.003	0.003	0.006	0.003	9.89583401184082	0.08200140686035155	0.06703764648437499	2.574920654296875	-3.467559814453125	-0.80108642578125	9.789890588378906	0.23223756103515625	0.1514332550048828	0.232696533203125	-4.955291748046875	-2.712249755859375	10.019733947753906	0.03651157531738281	-0.2501940734863281	3.665924072265625	-4.7149658203125	-2.227783203125	
52	0.20800000000000002	0.0	0.0	0.0	0.0	0.0	0.006	0.006	0.0	9.882067352294921	0.07721300354003906	0.06703764648437499	2.7313232421875	-3.582000732421875	-0.6561279296875	9.78629928588867	0.23702596435546874	0.15023615417480468	0.2899169921875	-4.96673583984375	-2.75421142578125	10.011354241943359	0.040102877807617184	-0.24181436767578124	3.80706787109375	-4.734039306640625	-2.166748046875	
53	0.212	0.0	0.0	0.0	0.0	0.006	0.006	0.003	0.003	9.868899243164062	0.07481880187988281	0.06763619689941405	2.681732177734375	-3.3416748046875	-0.629425048828125	9.78629928588867	0.23104046020507812	0.14724340209960937	0.16021728515625	-4.72259521484375	-2.803802490234375	10.01075569152832	0.03950432739257812	-0.2346317626953125	3.673553466796875	-4.58526611328125	-2.002716064453125	
54	0.216	0.0	0.0	0.0	0.0	0.006	0.003	0.003	0.006	9.8694977935791	0.08020575561523437	0.09157821350097656	2.597808837890625	-3.673553466796875	-0.732421875	9.775525378417969	0.24001871643066405	0.16639701538085935	0.316619873046875	-5.123138427734375	-2.696990966796875	10.00417163696289	0.0430956298828125	-0.22744915771484372	3.459930419921875	-4.43267822265625	-2.03704833984375	
55	0.22	0.0	0.0	0.0	0.0	0.006	0.003	0.003	0.003	9.86291373901367	0.08319850769042968	0.08858546142578125	2.811431884765625	-3.73077392578125	-0.637054443359375	9.779715231323241	0.2472013214111328	0.16879121704101563	0.293731689453125	-4.848480224609375	-2.727508544921875	10.012551342773437	0.04967968444824218	-0.22565350646972654	3.704071044921875	-4.52423095703125	-2.1209716796875	
56	0.224	0.0	0.0	0.0	0.0	0.003	0.006	0.003	0.003	9.87009634399414	0.08918401184082031	0.09995791931152344	2.544403076171875	-3.4942626953125	-0.652313232421875	9.781510882568359	0.24061726684570311	0.16639701538085935	-0.080108642578125	-4.947662353515625	-2.72369384765625	10.016142645263672	0.03651157531738281	-0.21428104858398436	3.582000732421875	-4.688262939453125	-2.140045166015625	
57	0.228	0.0	0.0	0.0	0.0	0.003	0.003	0.003	0.003	9.871293444824218	0.09157821350097656	0.09576806640624999	2.811431884765625	-3.589630126953125	-0.751495361328125	9.787496386718749	0.25318682556152344	0.17238251953125	0.29754638671875	-4.886627197265625	-2.838134765625	10.006565838623047	0.054468087768554684	-0.2184709014892578	3.5858154296875	-4.779815673828125	-2.2430419921875	
58	0.232	0.0	0.0	0.0	0.0	0.006	0.006	0.003	0.006	9.878476049804688	0.09756371765136718	0.10474632263183593	2.5482177734375	-3.543853759765625	-0.7476806640625	9.778518130493163	0.2472013214111328	0.1801636749267578	-0.064849853515625	-4.6539306640625	-2.613067626953125	10.016142645263672	0.047285482788085934	-0.2041056915283203	3.83758544921875	-4.7607421875	-2.124786376953125	
59	0.23600000000000002	0.0	0.0	0.0	0.0	0.006	0.003	0.003	0.006	9.871293444824218	0.09516951599121093	0.09696516723632811	2.552032470703125	-3.45611572265625	-0.67138671875	9.778518130493163	0.2561795776367187	0.17417817077636719	0.209808349609375	-4.795074462890625	-2.81524658203125	10.007164389038085	0.04668693237304687	-0.20709844360351562	3.650665283203125	-4.5928955078125	-2.147674560546875	
60	0.24	0.0	0.0	0.0	0.0	0.006	0.003	0.006	0.003	9.873089096069336	0.10474632263183593	0.09696516723632811	2.620697021484375	-3.82232666015625	-0.797271728515625	9.789890588378906	0.2657563842773437	0.1693897674560547	0.03814697265625	-4.79888916015625	-2.78472900390625	10.007762939453125	0.06464344482421874	-0.20949264526367187	3.627777099609375	-4.657745361328125	-2.1820068359375	
61	0.244	0.0	0.0	0.0	0.0	0.003	0.003	0.003	0.003	9.868300692749022	0.105344873046875	0.10414777221679687	2.5787353515625	-3.734588623046875	-0.720977783203125	9.785700735473633	0.25737667846679685	0.17836802368164062	0.286102294921875	-4.909515380859375	-2.857208251953125	10.005368737792969	0.06105214233398437	-0.20949264526367187	3.74603271484375	-4.6844482421875	-2.162933349609375	
62	0.248	0.0	0.0	0.0	0.0	0.003	0.003	0.003	0.006	9.874884747314452	0.10175357055664062	0.09516951599121093	2.58636474609375	-3.444671630859375	-0.55694580078125	9.789890588378906	0.2549824768066406	0.16819266662597654	0.52642822265625	-4.78363037109375	-2.735137939453125	10.012551342773437	0.05566518859863281	-0.22266075439453123	3.73077392578125	-4.66156005859375	-2.185821533203125	
63	0.252	0.0	0.0	0.0	0.0	0.003	0.003	0.003	0.009000000000000001	9.868899243164062	0.10474632263183593	0.09756371765136718	2.696990966796875	-3.627777099609375	-0.762939453125	9.791087689208984	0.26695348510742184	0.17238251953125	0.621795654296875	-4.627227783203125	-2.811431884765625	10.012551342773437	0.07242460021972656	-0.21248539733886718	3.692626953125	-4.730224609375	-2.056121826171875	
64	0.256	0.0	0.0	0.0	0.0	0.003	0.003	0.003	0.006	9.861716638183593	0.11252747802734374	0.10354922180175781	2.681732177734375	-3.60870361328125	-0.713348388671875	9.788094937133788	0.26216508178710934	0.181959326171875	0.14495849609375	-4.730224609375	-2.742767333984375	9.999383233642577	0.06284779357910156	-0.22565350646972654	3.6468505859375	-4.695892333984375	-2.20489501953125	
65	0.26	0.0	0.0	0.0	0.0	0.003	0.003	0.006	0.003	9.85632968444824	0.10594342346191406	0.10235212097167969	2.872467041015625	-3.475189208984375	-0.797271728515625	9.785102185058593	0.2567781280517578	0.16699556579589842	0.32806396484375	-4.894256591796875	-2.6397705078125	9.995791931152343	0.06584054565429687	-0.22026655273437498	3.818511962890625	-4.730224609375	-2.094268798828125	
66	0.264	0.0	0.0	0.0	0.0	0.009000000000000001	0.003	0.003	0.003	9.866505041503906	0.1083376251220703	0.10714052429199218	2.593994140625	-3.814697265625	-0.640869140625	9.788693487548828	0.26396073303222656	0.16220716247558592	0.156402587890625	-4.772186279296875	-2.643585205078125	10.008361489868163	0.0652419952392578	-0.229843359375	3.749847412109375	-4.5166015625	-2.094268798828125	
67	0.268	0.0	0.0	0.0	0.0	0.003	0.003	0.003	0.003	9.868899243164062	0.10295067138671875	0.09636661682128905	2.483367919921875	-3.57818603515625	-0.732421875	9.790489138793944	0.25318682556152344	0.1657984649658203	0.396728515625	-5.04302978515625	-2.803802490234375	10.012551342773437	0.05566518859863281	-0.22266075439453123	3.57818603515625	-4.688262939453125	-2.26593017578125	
68	0.272	0.0	0.0	0.0	0.0	0.003	0.003	0.003	0.006	9.868899243164062	0.09995791931152344	0.09337386474609374	2.5482177734375	-3.597259521484375	-0.728607177734375	9.785102185058593	0.24779987182617186	0.16998831787109375	0.02288818359375	-5.016326904296875	-2.899169921875	10.002974536132811	0.05805939025878906	-0.21727380065917967	3.88336181640625	-4.6844482421875	-2.1209716796875	
69	0.276	0.0	0.0	0.0	0.0	0.006	0.003	0.003	0.006	9.867103591918944	0.09696516723632811	0.08499415893554688	2.5177001953125	-3.85284423828125	-0.78582763671875	9.785102185058593	0.25737667846679685	0.15263035583496093	0.247955322265625	-4.90570068359375	-2.727508544921875	10.022128149414062	0.05805939025878906	-0.22206220397949217	3.8909912109375	-4.482269287109375	-2.140045166015625	
70	0.28	0.0	0.0	0.0	0.0	0.003	0.003	0.003	0.006	9.865906491088866	0.08259995727539061	0.09756371765136718	2.8076171875	-3.711700439453125	-0.6561279296875	9.783306533813477	0.24959552307128904	0.15382745666503905	0.2288818359375	-4.6844482421875	-2.8839111328125	10.00417163696289	0.04249707946777344	-0.23044190979003906	3.8909912109375	-4.791259765625	-1.85394287109375	
71	0.28400000000000003	0.0	0.0	0.0	0.0	0.006	0.003	0.006	0.006	9.871293444824218	0.08259995727539061	0.10295067138671875	2.532958984375	-3.574371337890625	-0.713348388671875	9.785102185058593	0.24181436767578124	0.15263035583496093	0.423431396484375	-5.27191162109375	-2.933502197265625	9.999383233642577	0.030526071166992186	-0.2316390106201172	3.66973876953125	-4.4708251953125	-2.00653076171875	
72	0.28800000000000003	0.0	0.0	0.0	0.0	0.003	0.003	0.003	0.006	9.87727894897461	0.07900865478515624	0.09337386474609374	2.4871826171875	-3.63922119140625	-0.89263916015625	9.787496386718749	0.24121581726074218	0.16220716247558592	0.41961669921875	-4.99725341796875	-2.780914306640625	10.011354241943359	0.03950432739257812	-0.23343466186523437	3.70025634765625	-4.46319580078125	-2.166748046875	
73	0.292	0.0	0.0	0.0	0.0	0.003	0.003	0.003	0.003	9.8694977935791	0.07541735229492187	0.09337386474609374	2.6702880859375	-3.31878662109375	-0.865936279296875	9.794678991699218	0.2292448089599609	0.16819266662597654	-0.209808349609375	-4.734039306640625	-2.796173095703125	10.002974536132811	0.03172317199707031	-0.21787235107421873	3.704071044921875	-4.7607421875	-2.1820068359375	
74	0.296	0.0	0.0	0.0	0.0	0.006	0.006	0.003	0.006	9.872490545654296	0.06643909606933593	0.11013327636718749	2.727508544921875	-3.368377685546875	-0.762939453125	9.783905084228515	0.21966800231933592	0.16519991455078123	0.331878662109375	-4.657745361328125	-2.7923583984375	10.000580334472655	0.033518823242187495	-0.21248539733886718	3.448486328125	-4.596710205078125	-2.18963623046875	
75	0.3	0.0	0.0	0.0	0.0	0.003	0.003	0.003	0.006	9.8694977935791	0.06643909606933593	0.09995791931152344	2.64739990234375	-3.5552978515625	-0.911712646484375	9.789890588378906	0.2262520568847656	0.15861585998535155	0.278472900390625	-4.852294921875	-2.605438232421875	9.996390481567381	0.03172317199707031	-0.2262520568847656	3.84521484375	-4.589080810546875	-2.288818359375	
76	0.304	0.0	0.0	0.0	0.0	0.006	0.003	0.003	0.003	9.868300692749022	0.06643909606933593	0.09516951599121093	2.49481201171875	-3.4942626953125	-0.591278076171875	9.788693487548828	0.21966800231933592	0.1580173095703125	0.209808349609375	-5.039215087890625	-2.8076171875	10.013748443603514	0.00718260498046875	-0.2280477081298828	3.604888916015625	-4.589080810546875	-2.13623046875	
77	0.308	0.0	0.0	0.0	0.0	0.003	0.006	0.003	0.003	9.879673150634765	0.0526724365234375	0.09337386474609374	2.61688232421875	-3.70025634765625	-0.87738037109375	9.787496386718749	0.20949264526367187	0.16041151123046873	0.385284423828125	-4.7607421875	-2.742767333984375	10.00417163696289	0.0053869537353515625	-0.22026655273437498	3.63922119140625	-4.53948974609375	-2.155303955078125	
78	0.312	0.0	0.0	0.0	0.0	0.003	0.003	0.006	0.006	9.878476049804688	0.040102877807617184	0.08319850769042968	2.651214599609375	-3.60870361328125	-0.675201416015625	9.78629928588867	0.21248539733886718	0.15562310791015624	0.331878662109375	-4.7760009765625	-2.826690673828125	10.014346994018554	0.0017956512451171875	-0.21966800231933592	3.85284423828125	-4.573822021484375	-2.0904541015625	
79	0.316	0.0	0.0	0.0	0.0	0.003	0.003	0.003	0.006	9.875483297729492	0.052073886108398436	0.08379705810546874	2.7313232421875	-3.826141357421875	-0.789642333984375	9.788693487548828	0.21009119567871093	0.14903905334472656	0.28228759765625	-4.72259521484375	-2.613067626953125	10.002974536132811	0.00239420166015625	-0.2154781494140625	3.681182861328125	-4.730224609375	-2.20489501953125	
80	0.32	0.0	0.0	0.0	0.0	0.006	0.003	0.003	0.003	9.866505041503906	0.044292730712890624	0.09157821350097656	2.685546875	-3.772735595703125	-0.732421875	9.782707983398437	0.20051438903808594	0.15322890625	0.31280517578125	-4.57763671875	-2.7618408203125	9.995193380737303	-0.00239420166015625	-0.22086510314941404	3.7841796875	-4.314422607421875	-2.12860107421875	
81	0.324	0.0	0.0	0.0	0.0	0.003	0.003	0.003	0.003	9.867103591918944	0.04249707946777344	0.0939724151611328	2.597808837890625	-3.56292724609375	-0.621795654296875	9.783306533813477	0.1975216369628906	0.15562310791015624	0.560760498046875	-5.077362060546875	-2.716064453125	10.011354241943359	0.006584054565429687	-0.23044190979003906	3.84521484375	-4.669189453125	-2.25067138671875	
82	0.328	0.0	0.0	0.0	0.0	0.006	0.006	0.003	0.003	9.871891995239258	0.047285482788085934	0.07422025146484375	2.6397705078125	-3.528594970703125	-0.823974609375	9.787496386718749	0.19632453613281248	0.15502455749511718	0.2593994140625	-4.8980712890625	-2.78472900390625	10.013149893188476	0.003591302490234375	-0.2262520568847656	3.71551513671875	-4.535675048828125	-2.262115478515625	
83	0.332	0.0	0.0	0.0	0.0	0.003	0.003	0.003	0.003	9.871293444824218	0.051475335693359374	0.09696516723632811	2.765655517578125	-3.8299560546875	-1.007080078125	9.789890588378906	0.2059013427734375	0.16340426330566404	0.457763671875	-4.8980712890625	-2.803802490234375	10.01015714111328	0.0053869537353515625	-0.2232593048095703	3.68499755859375	-4.772186279296875	-2.25830078125	
84	0.336	0.0	0.0	0.0	0.0	0.006	0.006	0.003	0.003	9.87069489440918	0.05686228942871093	0.0909796630859375	2.765655517578125	-3.734588623046875	-0.83160400390625	9.788693487548828	0.2041056915283203	0.16280571289062498	0.362396240234375	-4.7760009765625	-2.685546875	10.01015714111328	0.0047884033203125	-0.2280477081298828	3.711700439453125	-4.520416259765625	-2.166748046875	
85	0.34	0.0	0.0	0.0	0.0	0.003	0.003	0.003	0.003	9.862315188598632	0.05626373901367187	0.1005564697265625	2.57110595703125	-3.73077392578125	-0.823974609375	9.787496386718749	0.20051438903808594	0.17058686828613281	0.11444091796875	-4.87518310546875	-2.628326416015625	10.008361489868163	-0.001197100830078125	-0.21787235107421873	3.95965576171875	-4.5928955078125	-2.11334228515625	
86	0.34400000000000003	0.0	0.0	0.0	0.0	0.003	0.003	0.003	0.003	9.860519537353515	0.051475335693359374	0.10175357055664062	2.727508544921875	-3.44085693359375	-0.736236572265625	9.784503634643555	0.20350714111328125	0.17597382202148437	0.270843505859375	-5.14984130859375	-2.872467041015625	10.00417163696289	0.003591302490234375	-0.22086510314941404	3.70025634765625	-4.589080810546875	-2.227783203125	
87	0.34800000000000003	0.0	0.0	0.0	0.0	0.006	0.003	0.006	0.006	9.87009634399414	0.0526724365234375	0.1005564697265625	2.826690673828125	-3.62396240234375	-0.621795654296875	9.788693487548828	0.201112939453125	0.17836802368164062	0.370025634765625	-4.87518310546875	-2.8533935546875	9.9981861328125	0.016160861206054686	-0.22026655273437498	3.826141357421875	-4.467010498046875	-2.1209716796875	
88	0.352	0.0	0.0	0.0	0.0	0.003	0.003	0.003	0.003	9.871891995239258	0.052073886108398436	0.10773907470703124	2.57110595703125	-3.45611572265625	-0.934600830078125	9.79408044128418	0.20949264526367187	0.1693897674560547	0.48828125	-4.726409912109375	-2.76947021484375	10.001777435302733	0.012569558715820313	-0.22266075439453123	3.658294677734375	-4.47845458984375	-2.13623046875	
89	0.356	0.0	0.0	0.0	0.0	0.003	0.003	0.003	0.006	9.868300692749022	0.0652419952392578	0.10354922180175781	2.529144287109375	-3.71551513671875	-0.957489013671875	9.78629928588867	0.22385785522460935	0.17118541870117188	0.438690185546875	-5.084991455078125	-2.81524658203125	10.014945544433592	0.016160861206054686	-0.22026655273437498	3.63922119140625	-4.596710205078125	-1.979827880859375	
90	0.36	0.0	0.0	0.0	0.0	0.003	0.006	0.006	0.006	9.85632968444824	0.06105214233398437	0.10474632263183593	2.532958984375	-3.48663330078125	-0.67138671875	9.785102185058593	0.22086510314941404	0.17896657409667968	0.3814697265625	-4.779815673828125	-2.902984619140625	10.001178884887695	0.017956512451171875	-0.2136824981689453	3.7841796875	-4.72259521484375	-2.2125244140625	
91	0.364	0.0	0.0	0.0	0.0	0.003	0.003	0.003	0.006	9.867103591918944	0.062249243164062495	0.09217676391601562	2.712249755859375	-3.50189208984375	-0.63323974609375	9.773131176757811	0.22565350646972654	0.1753752716064453	0.34332275390625	-4.7149658203125	-3.040313720703125	10.006565838623047	0.01975216369628906	-0.20530279235839843	3.59344482421875	-4.79888916015625	-2.285003662109375	
92	0.368	0.0	0.0	0.0	0.0	0.003	0.003	0.003	0.006	9.868300692749022	0.07601590270996093	0.09636661682128905	2.6702880859375	-3.65447998046875	-0.6561279296875	9.782707983398437	0.2232593048095703	0.16699556579589842	0.278472900390625	-5.008697509765625	-2.803802490234375	10.002974536132811	0.02154781494140625	-0.20530279235839843	3.570556640625	-4.78363037109375	-2.223968505859375	
93	0.372	0.0	0.0	0.0	0.0	0.006	0.003	0.003	0.0	9.879673150634765	0.08140285644531249	0.08978256225585937	2.704620361328125	-3.787994384765625	-0.7171630859375	9.784503634643555	0.22864625854492185	0.16879121704101563	0.02288818359375	-4.985809326171875	-2.719879150390625	10.00417163696289	0.031124621582031248	-0.21068974609375	3.658294677734375	-4.550933837890625	-2.201080322265625	
94	0.376	0.0	0.0	0.0	0.0	0.003	0.006	0.003	0.006	9.87069489440918	0.08798691101074219	0.09337386474609374	2.651214599609375	-3.5400390625	-0.682830810546875	9.791087689208984	0.2376245147705078	0.16699556579589842	0.263214111328125	-4.78363037109375	-2.780914306640625	10.008960040283203	0.040701428222656245	-0.20709844360351562	3.753662109375	-4.6234130859375	-2.147674560546875	
95	0.38	0.0	0.0	0.0	0.0	0.003	0.003	0.003	0.003	9.872490545654296	0.08798691101074219	0.1149216796875	2.60162353515625	-3.753662109375	-0.579833984375	9.791087689208984	0.2472013214111328	0.1562216583251953	0.400543212890625	-4.932403564453125	-2.941131591796875	10.012551342773437	0.04129997863769531	-0.2088940948486328	3.6163330078125	-4.566192626953125	-2.14385986328125	
96	0.384	0.0	0.0	0.0	0.0	0.003	0.003	0.003	0.006	9.86351228942871	0.11192892761230468	0.09038111267089843	2.655029296875	-3.986358642578125	-0.5645751953125	9.78031378173828	0.2424129180908203	0.16879121704101563	0.05340576171875	-4.810333251953125	-2.73895263671875	10.018536846923828	0.028131869506835935	-0.24959552307128904	3.63922119140625	-4.5318603515625	-2.140045166015625	
97	0.388	0.0	0.0	0.0	0.0	0.006	0.003	0.003	0.006	9.861716638183593	0.16639701538085935	0.08918401184082031	2.52532958984375	-3.72314453125	-0.5950927734375	9.782707983398437	0.31064766540527344	0.18614917907714842	0.316619873046875	-4.932403564453125	-2.67791748046875	9.974842666625976	0.14185644836425781	-0.19812018737792966	3.849029541015625	-4.70733642578125	-2.277374267578125	
98	0.392	0.0	0.0	0.0	0.0	0.003	0.003	0.003	0.003	9.879074600219726	0.08140285644531249	0.08499415893554688	2.7618408203125	-3.8299560546875	-0.598907470703125	9.791087689208984	0.16340426330566404	0.15502455749511718	0.20599365234375	-4.89044189453125	-2.70843505859375	10.044274514770507	-0.06823474731445311	-0.26755203552246093	3.62396240234375	-4.72259521484375	-2.445220947265625	
99	0.396	0.0	0.0	0.0	0.0	0.006	0.006	0.003	0.003	9.87727894897461	0.1753752716064453	0.08379705810546874	2.99835205078125	-3.795623779296875	-0.789642333984375	9.776722479248047	0.3178302703857422	0.1753752716064453	0.31280517578125	-4.57000732421875	-2.98309326171875	9.996390481567381	0.14006079711914063	-0.18914193115234373	3.818511962890625	-4.79888916015625	-2.185821533203125	
100	0.4	0.0	0.0	0.0	0.0	0.003	0.003	0.003	0.003	9.878476049804688	0.15741875915527342	0.0987608184814453	2.716064453125	-3.47900390625	-0.682830810546875	9.78031378173828	0.23582886352539062	0.17836802368164062	0.213623046875	-4.913330078125	-2.78472900390625	9.964667309570311	0.08200140686035155	-0.19991583862304688	3.665924072265625	-4.52423095703125	-2.017974853515625	
101	0.404	0.0	0.0	0.0	0.0	0.003	0.006	0.003	0.006	9.862315188598632	0.16519991455078123	0.08439560852050781	2.941131591796875	-4.085540771484375	-0.469207763671875	9.756371765136718	0.2723404388427734	0.16220716247558592	0.1678466796875	-4.69207763671875	-2.95257568359375	9.969455712890625	0.105344873046875	-0.19393033447265623	3.72314453125	-4.5623779296875	-2.086639404296875	
102	0.40800000000000003	0.0	0.0	0.0	0.0	0.003	0.003	0.003	0.003	9.86411083984375	0.09756371765136718	0.013766659545898436	3.01361083984375	-3.688812255859375	-0.63323974609375	9.776123928833007	0.25438392639160157	0.13946224670410157	0.28228759765625	-5.046844482421875	-2.788543701171875	9.966462960815429	0.040701428222656245	-0.21487959899902342	3.4637451171875	-4.6234130859375	-1.9989013671875	
103	0.41200000000000003	0.0	0.0	0.0	0.0	0.003	0.006	0.003	0.003	9.87727894897461	0.19333178405761717	0.08140285644531249	3.147125244140625	-3.765106201171875	-0.606536865234375	9.765350021362304	0.33518823242187495	0.16639701538085935	0.484466552734375	-4.791259765625	-2.838134765625	9.990404977416992	0.07601590270996093	-0.24361001892089842	3.74603271484375	-4.673004150390625	-2.033233642578125	
104	0.41600000000000004	0.0	0.0	0.0	0.0	0.003	0.003	0.003	0.003	9.878476049804688	0.10714052429199218	0.002992752075195312	2.933502197265625	-3.910064697265625	-0.51116943359375	9.775525378417969	0.2519897247314453	0.12090718383789062	0.30517578125	-4.985809326171875	-2.857208251953125	9.928754284667969	0.029328970336914062	-0.20769699401855468	3.74603271484375	-4.772186279296875	-2.0751953125	
105	0.42	0.0	0.0	0.0	0.0	0.006	0.003	0.003	0.006	9.8449572265625	-0.0047884033203125	0.06643909606933593	2.47955322265625	-3.5552978515625	-0.8697509765625	9.763554370117188	0.3232172241210937	0.17178396911621094	0.41961669921875	-4.85992431640625	-3.017425537109375	9.9981861328125	0.03411737365722656	-0.24361001892089842	3.448486328125	-4.43267822265625	-2.41851806640625	
106	0.424	0.0	0.0	0.0	0.0	0.003	0.003	0.003	0.006	9.87608184814453	0.0987608184814453	-0.009576806640625	2.89154052734375	-3.917694091796875	-0.67901611328125	9.770736975097655	0.27892449340820313	0.1304839904785156	0.362396240234375	-4.604339599609375	-2.50244140625	9.998784683227539	0.1592144104003906	-0.2166752502441406	3.76129150390625	-4.665374755859375	-2.0904541015625	
107	0.428	0.0	0.0	0.0	0.0	0.006	0.006	0.003	0.003	9.841964474487304	-0.0383072265625	0.040701428222656245	2.651214599609375	-3.673553466796875	-0.7171630859375	9.797073193359374	0.18555062866210936	0.06943184814453125	0.415802001953125	-4.78363037109375	-2.872467041015625	9.956287603759765	0.008978256225585938	-0.24361001892089842	3.467559814453125	-4.60052490234375	-2.2430419921875	
108	0.432	0.0	0.0	0.0	0.0	0.003	0.006	0.003	0.006	9.872490545654296	0.0939724151611328	-0.007781155395507812	2.99072265625	-3.90625	-0.499725341796875	9.76175871887207	0.2741360900878906	0.13108254089355467	0.31280517578125	-4.749298095703125	-2.613067626953125	9.988010775756836	0.143652099609375	-0.18315642700195311	3.7689208984375	-4.5318603515625	-2.197265625	
109	0.436	0.0	0.0	0.0	0.0	0.012	0.003	0.003	0.006	9.8449572265625	-0.0796072052001953	0.055066638183593745	2.6397705078125	-3.437042236328125	-0.70953369140625	9.816825357055663	0.17058686828613281	0.07003039855957031	0.5340576171875	-4.791259765625	-2.78472900390625	9.969455712890625	0.010773907470703125	-0.23882161560058593	3.849029541015625	-4.5166015625	-2.410888671875	
110	0.44	0.0	0.0	0.0	0.0	0.006	0.003	0.003	0.006	9.810839852905273	0.0143652099609375	0.18914193115234373	1.728057861328125	-3.15093994140625	-0.988006591796875	9.783905084228515	0.33518823242187495	0.21787235107421873	-0.02288818359375	-4.8828125	-2.74658203125	9.97244846496582	0.13826514587402344	-0.19512743530273435	4.024505615234375	-4.58526611328125	-1.926422119140625	
111	0.444	0.0	0.0	0.0	0.0	0.006	0.003	0.003	0.006	9.823409411621093	-0.12868833923339842	0.054468087768554684	2.23541259765625	-3.41796875	-0.90789794921875	9.814431155395507	0.16819266662597654	0.07541735229492187	0.2899169921875	-4.79888916015625	-3.11279296875	10.095151300048828	-0.14006079711914063	-0.29568390502929687	4.00543212890625	-4.726409912109375	-2.34222412109375	
112	0.448	0.0	0.0	0.0	0.0	0.006	0.003	0.003	0.003	9.804255798339844	-0.023942016601562498	0.2041056915283203	1.5106201171875	-3.19671630859375	-0.972747802734375	9.792284790039062	0.33518823242187495	0.21009119567871093	0.5645751953125	-4.78363037109375	-2.38037109375	9.98501802368164	0.15861585998535155	-0.1771709228515625	3.56292724609375	-4.72259521484375	-1.789093017578125	
113	0.452	0.0	0.0	0.0	0.0	0.0	0.003	0.006	0.003	9.819818109130859	-0.18614917907714842	0.029927520751953124	0.988006591796875	-2.849578857421875	-1.369476318359375	9.875483297729492	0.051475335693359374	0.07841010437011718	0.431060791015625	-4.76837158203125	-2.81524658203125	10.117297665405273	-0.181959326171875	-0.32620997619628905	3.841400146484375	-4.779815673828125	-2.277374267578125	
114	0.456	0.0	0.0	0.0	0.0	0.006	0.006	0.006	0.006	9.803657247924804	-0.010175357055664061	0.22206220397949217	1.689910888671875	-2.979278564453125	-0.926971435546875	9.773729727172851	0.3441664886474609	0.2214636535644531	0.35858154296875	-5.008697509765625	-2.605438232421875	10.070610733032225	0.2136824981689453	-0.1945288848876953	3.45611572265625	-4.44793701171875	-2.193450927734375	
115	0.46	0.0	0.0	0.0	0.0	0.006	0.006	0.003	0.003	9.866505041503906	-0.012569558715820313	0.15562310791015624	1.293182373046875	-2.78472900390625	-1.27410888671875	9.871293444824218	0.030526071166992186	0.07900865478515624	0.408172607421875	-4.970550537109375	-2.735137939453125	10.146626635742187	-0.2059013427734375	-0.3274070770263672	3.7994384765625	-4.688262939453125	-2.216339111328125	
116	0.464	0.0	0.0	0.0	0.0	0.0	0.006	0.003	0.003	9.79946739501953	-0.02454056701660156	0.2346317626953125	1.468658447265625	-3.15093994140625	-1.190185546875	9.75517466430664	0.3860650177001953	0.26695348510742184	0.438690185546875	-4.79888916015625	-3.08990478515625	10.067617980957031	0.18854338073730467	-0.201112939453125	3.780364990234375	-4.8065185546875	-2.040863037109375	
117	0.468	0.0	0.0	0.0	0.0	0.003	0.003	0.006	0.003	9.865307940673828	-0.003591302490234375	0.16699556579589842	1.01470947265625	-2.521514892578125	-1.22833251953125	9.861716638183593	0.03232172241210937	0.08978256225585937	0.45013427734375	-5.023956298828125	-2.67791748046875	10.074202035522461	-0.18914193115234373	-0.3190273712158203	3.467559814453125	-4.787445068359375	-1.873016357421875	
118	0.47200000000000003	0.0	0.0	0.0	0.0	0.006	0.003	0.003	0.0	9.979631069946288	0.3226186737060547	0.11731588134765625	2.593994140625	-3.7078857421875	-0.70953369140625	9.747393508911133	0.39863457641601563	0.28371289672851563	0.11444091796875	-4.802703857421875	-2.73895263671875	10.070012182617187	0.21068974609375	-0.18375497741699218	3.650665283203125	-4.772186279296875	-2.1514892578125	
119	0.47600000000000003	0.0	0.0	0.0	0.0	0.003	0.006	0.003	0.006	9.868899243164062	0.004189852905273437	0.17118541870117188	1.01470947265625	-2.696990966796875	-1.44195556640625	9.803058697509766	0.028131869506835935	0.18076222534179687	0.2593994140625	-4.825592041015625	-2.758026123046875	10.085574493408203	-0.23044190979003906	-0.3178302703857422	3.509521484375	-4.680633544921875	-1.8463134765625	
120	0.48	0.0	0.0	0.0	0.0	0.003	0.003	0.003	0.006	10.00955859069824	0.34057518615722654	0.09217676391601562	2.87628173828125	-3.459930419921875	-0.6866455078125	9.7545761138916	0.3920505218505859	0.2759317413330078	0.396728515625	-4.791259765625	-2.941131591796875	10.084377392578125	0.18435352783203124	-0.18734627990722655	3.734588623046875	-4.58526611328125	-2.628326416015625	
121	0.484	0.0	0.0	0.0	0.0	0.006	0.006	0.003	0.0	9.879673150634765	0.04129997863769531	0.18555062866210936	1.12152099609375	-2.880096435546875	-1.2969970703125	9.792284790039062	0.037708676147460936	0.20769699401855468	0.23651123046875	-4.92095947265625	-2.788543701171875	10.075997686767577	-0.23822306518554687	-0.3136404174804687	3.448486328125	-4.547119140625	-1.941680908203125	
122	0.488	0.0	0.0	0.0	0.0	0.003	0.003	0.003	0.003	10.021529598999022	0.3908534210205078	0.07541735229492187	3.22723388671875	-3.7078857421875	-0.720977783203125	9.7928833404541	0.2663549346923828	0.1304839904785156	0.61798095703125	-4.688262939453125	-3.01361083984375	9.906607919311522	0.18734627990722655	-0.12689268798828124	3.635406494140625	-4.573822021484375	-2.193450927734375	
123	0.492	0.0	0.0	0.0	0.0	0.003	0.006	0.006	0.003	9.962273107910155	0.2962824554443359	-0.01915361328125	4.634857177734375	-4.66156005859375	0.110626220703125	9.802460147094726	0.00718260498046875	0.21068974609375	0.270843505859375	-4.726409912109375	-2.521514892578125	10.092757098388672	-0.25797522888183594	-0.3429693878173828	3.612518310546875	-4.856109619140625	-2.063751220703125	
124	0.496	0.0	0.0	0.0	0.0	0.003	0.003	0.003	0.003	10.018536846923828	0.4381389038085937	0.10175357055664062	3.604888916015625	-3.90625	-0.652313232421875	9.789890588378906	0.26396073303222656	0.13646949462890623	0.32806396484375	-4.82940673828125	-2.971649169921875	9.89523546142578	0.20051438903808594	-0.12509703674316405	3.70025634765625	-4.55474853515625	-2.315521240234375	
125	0.5	0.0	0.0	0.0	0.0	0.003	0.003	0.003	0.003	9.962273107910155	0.3489548919677734	-0.011971008300781249	4.703521728515625	-4.486083984375	0.286102294921875	9.804255798339844	0.05805939025878906	0.1580173095703125	0.18310546875	-4.9591064453125	-2.445220947265625	9.868899243164062	0.054468087768554684	-0.2232593048095703	3.726959228515625	-4.669189453125	-1.895904541015625	
126	0.504	0.0	0.0	0.0	0.0	0.006	0.003	0.003	0.006	10.036493359375	0.4944026428222656	0.08978256225585937	4.6844482421875	-4.67681884765625	-0.118255615234375	9.80066449584961	0.2807201446533203	0.12689268798828124	0.186920166015625	-4.703521728515625	-2.872467041015625	9.898826763916015	0.24181436767578124	-0.13946224670410157	3.6163330078125	-4.451751708984375	-2.13623046875	
127	0.508	0.0	0.0	0.0	0.0	0.006	0.006	0.003	0.0	9.961674557495117	0.3806780639648437	-0.0143652099609375	5.0506591796875	-5.2032470703125	0.14495849609375	9.70968483276367	0.17776947326660156	0.1514332550048828	0.247955322265625	-4.985809326171875	-2.5177001953125	9.87009634399414	0.051475335693359374	-0.22086510314941404	3.704071044921875	-4.901885986328125	-1.979827880859375	
128	0.512	0.0	0.0	0.0	0.0	0.003	0.006	0.006	0.0	9.85692823486328	0.03531447448730469	0.0987608184814453	4.45556640625	-4.642486572265625	0.102996826171875	9.803657247924804	0.28371289672851563	0.12629413757324218	0.362396240234375	-4.848480224609375	-3.009796142578125	9.928754284667969	0.037708676147460936	-0.20769699401855468	3.566741943359375	-4.638671875	-2.536773681640625	
129	0.516	0.0	0.0	0.0	0.0	0.006	0.003	0.003	0.006	9.961076007080077	0.4321533996582031	-0.011971008300781249	5.24139404296875	-4.940032958984375	0.40435791015625	9.710881933593749	0.2088940948486328	0.14604630126953125	-0.0152587890625	-4.688262939453125	-2.300262451171875	9.8694977935791	0.13467384338378904	-0.24660277099609373	3.551483154296875	-4.57763671875	-1.983642578125	
130	0.52	0.0	0.0	0.0	0.0	0.003	0.003	0.003	0.006	9.847351428222655	-0.029328970336914062	0.0796072052001953	4.058837890625	-4.3182373046875	-0.2593994140625	9.80665	0.12090718383789062	0.044891281127929686	0.286102294921875	-4.772186279296875	-3.154754638671875	9.928754284667969	0.07242460021972656	-0.21906945190429686	3.82232666015625	-4.528045654296875	-2.593994140625	
131	0.524	0.0	0.0	0.0	0.0	0.006	0.003	0.003	0.003	9.813832604980469	-0.373495458984375	0.03531447448730469	0.93841552734375	-2.811431884765625	-1.15966796875	9.709086282348633	0.15442600708007811	0.15981296081542967	0.08392333984375	-4.772186279296875	-2.4871826171875	9.873687646484374	0.12090718383789062	-0.24839842224121092	3.73077392578125	-4.817962646484375	-2.0599365234375	
132	0.528	0.0	0.0	0.0	0.0	0.003	0.003	0.003	0.006	9.849147079467773	-0.06943184814453125	0.08140285644531249	3.51715087890625	-3.948211669921875	-0.370025634765625	9.80066449584961	0.18555062866210936	0.028131869506835935	0.3814697265625	-4.772186279296875	-3.055572509765625	9.923965881347655	0.13946224670410157	-0.2280477081298828	3.72314453125	-4.0740966796875	-2.60162353515625	
133	0.532	0.0	0.0	0.0	0.0	0.003	0.003	0.003	0.006	9.837176071166992	-0.4147954376220703	0.0383072265625	0.54931640625	-2.899169921875	-1.2359619140625	9.76894132385254	0.44891281127929683	0.14006079711914063	0.518798828125	-4.93621826171875	-2.643585205078125	9.96586441040039	0.23104046020507812	-0.07062894897460938	3.887176513671875	-4.642486572265625	-1.873016357421875	
134	0.536	0.0	0.0	0.0	0.0	0.006	0.003	0.003	0.003	9.827599264526366	-0.14604630126953125	0.09636661682128905	3.41033935546875	-3.92913818359375	-0.629425048828125	9.79348189086914	0.12868833923339842	0.02693476867675781	0.064849853515625	-4.573822021484375	-3.246307373046875	9.928155734252929	0.09816226806640624	-0.21727380065917967	3.719329833984375	-4.5928955078125	-2.811431884765625	
135	0.54	0.0	0.0	0.0	0.0	0.0	0.003	0.003	0.006	9.847949978637695	-0.48183308410644526	0.011971008300781249	0.133514404296875	-2.38800048828125	-1.2664794921875	9.78031378173828	0.479438882446289	0.12808978881835936	0.40435791015625	-4.894256591796875	-2.849578857421875	9.974842666625976	0.2597708801269531	-0.0796072052001953	3.704071044921875	-4.627227783203125	-1.979827880859375	
136	0.544	0.0	0.0	0.0	0.0	0.006	0.006	0.003	0.006	9.851541281127929	-0.4381389038085937	-0.05746083984375	0.28228759765625	-2.391815185546875	-1.522064208984375	9.910797772216796	0.1657984649658203	0.014963760375976562	0.640869140625	-4.8828125	-2.841949462890625	10.199299072265624	-0.41419688720703124	-0.38666356811523434	3.543853759765625	-4.3792724609375	-2.399444580078125	
137	0.548	0.0	0.0	0.0	0.0	0.006	0.003	0.003	0.006	9.852738381958007	-0.5494692810058593	0.05087678527832031	0.003814697265625	-2.376556396484375	-1.667022705078125	9.764152920532226	0.42975919799804685	0.1197100830078125	0.354766845703125	-4.817962646484375	-2.788543701171875	9.975441217041014	0.20290859069824219	-0.076614453125	3.681182861328125	-4.66156005859375	-2.105712890625	
138	0.552	0.0	0.0	0.0	0.0	0.006	0.003	0.003	0.006	9.862315188598632	-0.4632780212402344	-0.07003039855957031	0.22125244140625	-2.471923828125	-1.6326904296875	9.916783276367187	0.1610100616455078	0.017357962036132813	0.99945068359375	-5.008697509765625	-3.02886962890625	10.225635290527343	-0.47704468078613277	-0.4016273284912109	3.631591796875	-4.35638427734375	-2.574920654296875	
139	0.556	0.0	0.0	0.0	0.0	0.006	0.003	0.003	0.0	9.865307940673828	-0.5925649108886718	0.04908113403320312	2.971649169921875	-3.83758544921875	-0.652313232421875	9.743203656005859	0.6105214233398437	0.38367081604003905	0.507354736328125	-5.01251220703125	-2.89154052734375	10.08078609008789	0.1975216369628906	-0.105344873046875	3.62396240234375	-4.791259765625	-1.842498779296875	
140	0.56	0.0	0.0	0.0	0.0	0.009000000000000001	0.003	0.003	0.003	9.879673150634765	-0.4531026641845703	-0.05686228942871093	0.522613525390625	-2.655029296875	-1.47247314453125	9.91558617553711	0.15322890625	-0.002992752075195312	0.720977783203125	-4.92095947265625	-3.18145751953125	10.20887587890625	-0.5183446594238281	-0.4010287780761719	3.826141357421875	-4.741668701171875	-2.52532958984375	
141	0.5640000000000001	0.0	0.0	0.0	0.0	0.006	0.006	0.006	0.006	9.773729727172851	0.6410474945068358	0.41419688720703124	3.452301025390625	-3.8604736328125	-0.48065185546875	9.77432827758789	0.5907692596435546	0.3950432739257812	0.457763671875	-4.932403564453125	-2.880096435546875	10.10712230834961	0.1227028350830078	-0.08678981018066406	3.566741943359375	-4.665374755859375	-1.926422119140625	
142	0.5680000000000001	0.0	0.0	0.0	0.0	0.006	0.006	0.003	0.006	9.905410818481444	-0.38786066894531246	-0.05746083984375	0.72479248046875	-2.422332763671875	-1.537322998046875	9.852139831542969	0.09457096557617187	0.19812018737792966	0.396728515625	-4.756927490234375	-2.765655517578125	10.237606298828124	-0.4746504791259765	-0.412401235961914	3.475189208984375	-4.69970703125	-1.667022705078125	
143	0.5720000000000001	0.0	0.0	0.0	0.0	0.003	0.006	0.003	0.006	9.773729727172851	0.7811082916259765	0.4165910888671875	3.9520263671875	-4.032135009765625	-0.423431396484375	9.744999307250977	0.6410474945068358	0.4052186309814453	0.568389892578125	-4.642486572265625	-2.7923583984375	10.066420880126952	0.14185644836425781	-0.06105214233398437	3.509521484375	-4.547119140625	-1.705169677734375	
144	0.5760000000000001	0.0	0.0	0.0	0.0	0.006	0.006	0.003	0.006	9.974244116210937	0.670975015258789	0.1753752716064453	4.856109619140625	-4.596710205078125	-0.030517578125	9.85632968444824	0.01975216369628906	0.20470424194335937	0.339508056640625	-4.947662353515625	-2.704620361328125	10.111312161254883	-0.4165910888671875	-0.39863457641601563	3.4637451171875	-4.98199462890625	-1.758575439453125	
145	0.58	0.0	0.0	0.0	0.0	0.003	0.003	0.003	0.003	9.801861596679688	0.8391676818847655	0.39983167724609375	4.825592041015625	-4.711151123046875	-0.20599365234375	9.804255798339844	0.39743747558593745	0.18136077575683593	0.080108642578125	-4.64630126953125	-2.956390380859375	10.09395419921875	0.1514332550048828	-0.0526724365234375	3.643035888671875	-4.764556884765625	-1.8768310546875	
146	0.584	0.0	0.0	0.0	0.0	0.003	0.003	0.006	0.0	9.98561657409668	0.7350199096679687	0.1640028137207031	5.176544189453125	-4.878997802734375	0.179290771484375	9.853336932373047	0.14245499877929688	0.2166752502441406	0.530242919921875	-4.749298095703125	-2.86102294921875	10.081983190917969	-0.2885013000488281	-0.38786066894531246	3.482818603515625	-4.66156005859375	-1.689910888671875	
147	0.588	0.0	0.0	0.0	0.0	0.006	0.003	0.006	0.003	9.822212310791015	0.9002198242187499	0.38307226562499996	4.852294921875	-4.642486572265625	0.019073486328125	9.791087689208984	0.4010287780761719	0.19812018737792966	0.0457763671875	-4.932403564453125	-2.742767333984375	9.84435867614746	0.40940848388671874	-0.105344873046875	3.6163330078125	-4.535675048828125	-2.37274169921875	
148	0.592	0.0	0.0	0.0	0.0	0.006	0.003	0.003	0.003	9.988609326171874	0.6548141540527344	0.1352723937988281	5.36346435546875	-4.787445068359375	0.164031982421875	9.858125335693359	0.06344634399414062	0.2059013427734375	-0.19073486328125	-5.02777099609375	-2.25067138671875	10.101136804199218	-0.3872621185302734	-0.3507505432128906	3.437042236328125	-4.650115966796875	-1.583099365234375	
149	0.596	0.0	0.0	0.0	0.0	0.006	0.003	0.003	0.003	9.798868844604492	0.4961982940673828	0.002992752075195312	4.92095947265625	-4.87518310546875	-0.377655029296875	9.79946739501953	0.4638765716552734	0.16759411621093748	0.453948974609375	-4.848480224609375	-2.99835205078125	9.878476049804688	0.42377369384765623	-0.11731588134765625	3.719329833984375	-4.69970703125	-2.593994140625	
150	0.6	0.0	0.0	0.0	0.0	0.006	0.003	0.003	0.006	9.967660061645507	0.7140706451416016	0.13826514587402344	5.878448486328125	-4.985809326171875	0.453948974609375	9.721655841064452	0.03950432739257812	0.2232593048095703	-0.3814697265625	-5.0048828125	-2.11334228515625	9.77432827758789	0.2059013427734375	-0.17477672119140625	3.726959228515625	-4.7760009765625	-2.117156982421875	
151	0.604	0.0	0.0	0.0	0.0	0.006	0.003	0.003	0.003	9.767145672607422	0.40940848388671874	0.029927520751953124	4.482269287109375	-4.6234130859375	-0.392913818359375	9.794678991699218	0.47704468078613277	0.16699556579589842	0.255584716796875	-4.840850830078125	-2.925872802734375	9.862315188598632	0.4435258575439453	-0.11791443176269531	3.47137451171875	-4.45556640625	-2.307891845703125	
152	0.608	0.0	0.0	0.0	0.0	0.006	0.006	0.003	0.006	9.976039767456054	0.5422866760253906	0.05327098693847656	0.87738037109375	-2.86102294921875	0.499725341796875	9.785102185058593	-0.08499415893554688	0.1370680450439453	-0.263214111328125	-4.825592041015625	-2.079010009765625	9.841365924072266	0.16041151123046873	-0.24779987182617186	3.77655029296875	-4.69970703125	-1.750946044921875	
153	0.612	0.0	0.0	0.0	0.0	0.009000000000000001	0.003	0.006	0.003	9.762955819702148	0.2519897247314453	0.03591302490234375	4.138946533203125	-4.253387451171875	-0.652313232421875	9.692925421142577	0.07062894897460938	0.13168109130859373	0.25177001953125	-4.772186279296875	-3.25775146484375	9.847351428222655	0.4291606475830078	-0.14006079711914063	3.91387939453125	-4.63104248046875	-3.04412841796875	
154	0.616	0.0	0.0	0.0	0.0	0.003	0.006	0.003	0.003	9.689334118652344	-0.14006079711914063	0.05626373901367187	-0.17547607421875	-2.719879150390625	-1.377105712890625	9.757568865966796	-0.013766659545898436	0.16819266662597654	-0.1983642578125	-5.05828857421875	-2.06756591796875	9.81862100830078	0.29388825378417965	-0.2549824768066406	3.8299560546875	-4.94384765625	-1.895904541015625	
155	0.62	0.0	0.0	0.0	0.0	0.009000000000000001	0.003	0.003	0.006	9.734823950195311	0.13287819213867186	0.044891281127929686	3.688812255859375	-3.810882568359375	-0.644683837890625	9.708487731933593	0.028131869506835935	0.10594342346191406	-0.05340576171875	-4.90570068359375	-2.956390380859375	9.916783276367187	0.12988544006347655	-0.19632453613281248	3.5552978515625	-4.528045654296875	-2.838134765625	
156	0.624	0.0	0.0	0.0	0.0	0.003	0.003	0.003	0.006	9.685742816162108	-0.31004911499023435	0.05327098693847656	-0.8544921875	-2.231597900390625	-1.9378662109375	9.719261639404296	0.30526071166992186	0.04548983154296875	0.6103515625	-4.8980712890625	-3.040313720703125	9.827000714111328	0.15442600708007811	-0.25258827514648435	3.498077392578125	-4.75311279296875	-2.002716064453125	
157	0.628	0.0	0.0	0.0	0.0	0.003	0.006	0.003	0.006	9.868899243164062	-0.7739256866455078	-0.07422025146484375	-1.4801025390625	-1.781463623046875	-2.285003662109375	9.697115274047851	0.19393033447265623	0.15442600708007811	-0.179290771484375	-4.673004150390625	-3.25775146484375	9.903016616821288	0.18555062866210936	-0.14784195251464843	3.88336181640625	-4.4097900390625	-3.0670166015625	
158	0.632	0.0	0.0	0.0	0.0	0.006	0.006	0.006	0.009000000000000001	9.695319622802733	-0.3124433166503906	0.08439560852050781	-1.834869384765625	-1.415252685546875	-1.8768310546875	9.682151513671874	0.43454760131835934	0.07422025146484375	0.55694580078125	-5.07354736328125	-2.410888671875	9.976638317871092	0.29269115295410153	0.022146365356445312	3.604888916015625	-4.741668701171875	-1.766204833984375	
159	0.636	0.0	0.0	0.0	0.0	0.0	0.003	0.006	0.006	9.880870251464843	-0.8607154968261719	-0.0987608184814453	-1.468658447265625	-1.560211181640625	-2.414703369140625	9.85094273071289	-0.05327098693847656	0.11192892761230468	0.54168701171875	-4.756927490234375	-3.192901611328125	9.910199221801758	-0.059256491088867186	-0.1466448516845703	3.559112548828125	-4.306793212890625	-3.1280517578125	
160	0.64	0.0	0.0	0.0	0.0	0.003	0.006	0.003	0.006	9.710881933593749	-0.41838674011230464	0.12150573425292968	-2.532958984375	-1.552581787109375	-2.29644775390625	9.727042794799804	0.17238251953125	0.11252747802734374	0.6256103515625	-5.1727294921875	-2.7008056640625	10.027515103149414	0.11432312927246092	0.014963760375976562	3.48663330078125	-4.634857177734375	-2.17437744140625	
161	0.644	0.0	0.0	0.0	0.0	0.006	0.003	0.003	0.003	9.91498762512207	-0.25438392639160157	-0.09995791931152344	-0.23651123046875	-2.292633056640625	-1.8157958984375	9.813832604980469	0.21188684692382811	0.15442600708007811	0.797271728515625	-4.932403564453125	-3.276824951171875	10.268730920410155	-0.42975919799804685	-0.49859249572753905	3.53240966796875	-4.57763671875	-2.3651123046875	
162	0.648	0.0	0.0	0.0	0.0	0.003	0.003	0.003	0.003	9.944316595458984	0.2603694305419922	0.3896563201904297	3.726959228515625	-3.948211669921875	0.148773193359375	9.782707983398437	0.29448680419921874	0.507570751953125	0.247955322265625	-4.64630126953125	-2.4566650390625	9.928155734252929	0.29448680419921874	0.07062894897460938	3.498077392578125	-4.642486572265625	-1.880645751953125	
163	0.652	0.0	0.0	0.0	0.0	0.006	0.003	0.003	0.0	10.01015714111328	0.2771288421630859	-0.10474632263183593	2.166748046875	-3.2501220703125	-0.858306884765625	9.834781869506836	0.4261678955078125	0.18555062866210936	1.094818115234375	-4.856109619140625	-3.208160400390625	10.327987411499024	-0.23882161560058593	-0.526125814819336	3.48663330078125	-4.505157470703125	-2.05230712890625	
164	0.656	0.0	0.0	0.0	0.0	0.006	0.003	0.003	0.003	9.830592016601562	0.5566518859863281	0.4578910675048828	6.04248046875	-5.0811767578125	-0.030517578125	9.787496386718749	0.052073886108398436	0.5291185668945312	0.43487548828125	-4.909515380859375	-2.38037109375	9.926958633422851	0.15861585998535155	0.08918401184082031	3.73077392578125	-4.55474853515625	-2.34222412109375	
165	0.66	0.0	0.0	0.0	0.0	0.003	0.003	0.006	0.006	9.90840357055664	0.10414777221679687	-0.011372457885742187	2.681732177734375	-3.635406494140625	-1.255035400390625	9.848548529052733	0.4495113616943359	0.09217676391601562	0.00762939453125	-4.787445068359375	-2.9449462890625	10.235212097167969	-0.13467384338378904	-0.4644751220703125	3.692626953125	-4.3182373046875	-2.208709716796875	
166	0.664	0.0	0.0	0.0	0.0	0.003	0.006	0.003	0.003	9.787496386718749	0.14006079711914063	0.5009866973876953	2.559661865234375	-3.253936767578125	-0.35858154296875	9.794678991699218	-0.01975216369628906	0.5799953521728515	-0.16021728515625	-4.76837158203125	-2.838134765625	10.108917959594725	0.14604630126953125	-0.18734627990722655	3.742218017578125	-4.421234130859375	-1.9989013671875	
167	0.668	0.0	0.0	0.0	0.0	0.003	0.003	0.003	0.006	10.034697708129881	0.5267243652343749	0.003591302490234375	3.139495849609375	-3.875732421875	-0.5340576171875	9.866505041503906	0.4513070129394531	0.09576806640624999	0.34332275390625	-4.833221435546875	-2.780914306640625	10.29147583618164	-0.17058686828613281	-0.4746504791259765	3.60107421875	-4.482269287109375	-1.97601318359375	
168	0.672	0.0	0.0	0.0	0.0	0.0	0.003	0.003	0.006	9.834781869506836	0.7727285858154297	0.4435258575439453	4.8065185546875	-4.405975341796875	0.0457763671875	9.782707983398437	0.13168109130859373	0.5039794494628906	-0.030517578125	-4.547119140625	-2.61688232421875	10.073004934692381	0.16220716247558592	-0.16759411621093748	3.63922119140625	-4.58526611328125	-2.079010009765625	
169	0.676	0.0	0.0	0.0	0.0	0.006	0.003	0.003	0.006	9.97783541870117	0.14724340209960937	-0.013168109130859374	3.536224365234375	-4.192352294921875	-0.530242919921875	9.847351428222655	0.3315969299316406	0.11192892761230468	0.40435791015625	-5.054473876953125	-2.3956298828125	10.022128149414062	-0.08559270935058594	-0.4608838195800781	3.7689208984375	-4.55474853515625	-1.97601318359375	
170	0.68	0.0	0.0	0.0	0.0	0.006	0.006	0.006	0.003	9.935936889648437	-0.2442085693359375	-0.1370680450439453	2.8533935546875	-3.620147705078125	-0.377655029296875	9.792284790039062	0.21009119567871093	0.06763619689941405	-0.011444091796875	-4.665374755859375	-2.872467041015625	10.108319409179687	0.12868833923339842	-0.15861585998535155	3.70025634765625	-4.596710205078125	-2.1209716796875	
171	0.684	0.0	0.0	0.0	0.0	0.006	0.003	0.003	0.003	10.003573086547851	0.20649989318847656	-0.08918401184082031	2.75421142578125	-3.528594970703125	-0.492095947265625	9.85752678527832	0.2454056701660156	0.061650692749023434	0.35858154296875	-4.82177734375	-2.5482177734375	10.02392380065918	-0.07422025146484375	-0.4590881683349609	3.68499755859375	-4.787445068359375	-2.14385986328125	
172	0.6880000000000001	0.0	0.0	0.0	0.0	0.003	0.003	0.003	0.003	9.929951385498047	-0.051475335693359374	-0.12389993591308593	3.818511962890625	-4.2266845703125	-0.537872314453125	9.78031378173828	0.3315969299316406	0.09816226806640624	-0.00762939453125	-4.917144775390625	-2.6092529296875	9.87009634399414	0.09457096557617187	-0.15502455749511718	3.53240966796875	-4.4403076171875	-2.09808349609375	
173	0.6920000000000001	0.0	0.0	0.0	0.0	0.003	0.003	0.006	0.006	9.965265859985351	0.2442085693359375	-0.10295067138671875	3.314971923828125	-4.28009033203125	-0.3814697265625	9.798270294189452	0.17118541870117188	0.015562310791015624	0.30517578125	-4.894256591796875	-2.887725830078125	10.034099157714843	-0.07422025146484375	-0.4417302062988281	3.62396240234375	-4.63104248046875	-2.170562744140625	
174	0.6960000000000001	0.0	0.0	0.0	0.0	0.003	0.003	0.003	0.006	9.875483297729492	-0.3429693878173828	-0.07900865478515624	2.239227294921875	-3.57818603515625	-1.18255615234375	9.766547122192382	0.3489548919677734	0.11372457885742186	-0.057220458984375	-4.64630126953125	-2.727508544921875	9.877877499389648	0.1083376251220703	-0.12988544006347655	3.74603271484375	-4.69207763671875	-2.410888671875	
175	0.7000000000000001	0.0	0.0	0.0	0.0	0.003	0.003	0.003	0.006	9.753977563476562	0.0987608184814453	0.13347674255371092	1.308441162109375	-3.15093994140625	-0.789642333984375	9.79408044128418	0.24181436767578124	0.02454056701660156	0.133514404296875	-4.73785400390625	-2.887725830078125	9.887454306030273	0.03950432739257812	-0.20470424194335937	3.559112548828125	-4.79888916015625	-2.094268798828125	
176	0.704	0.0	0.0	0.0	0.0	0.003	0.003	0.003	0.003	9.889848507690429	-0.13946224670410157	-0.02693476867675781	1.529693603515625	-3.0517578125	-1.155853271484375	9.699509475708007	0.2537853759765625	0.18614917907714842	0.209808349609375	-4.749298095703125	-2.933502197265625	9.861716638183593	0.1370680450439453	-0.09636661682128905	3.681182861328125	-4.638671875	-2.25067138671875	
177	0.708	0.0	0.0	0.0	0.0	0.006	0.003	0.003	0.006	9.822810861206055	0.21009119567871093	0.105344873046875	2.285003662109375	-3.50189208984375	-0.759124755859375	9.803058697509766	0.29448680419921874	0.013766659545898436	0.308990478515625	-4.886627197265625	-2.95257568359375	9.90241806640625	0.06045359191894531	-0.20769699401855468	3.53240966796875	-4.852294921875	-2.02178955078125	
178	0.712	0.0	0.0	0.0	0.0	0.006	0.003	0.003	0.006	9.913790524291992	-0.20709844360351562	-0.032920272827148434	2.376556396484375	-3.505706787109375	-1.678466796875	9.721655841064452	0.22744915771484372	0.15562310791015624	0.37384033203125	-4.909515380859375	-3.070831298828125	9.8694977935791	0.11611878051757812	-0.1406593475341797	3.719329833984375	-4.61578369140625	-2.490997314453125	
179	0.716	0.0	0.0	0.0	0.0	0.006	0.006	0.003	0.006	9.858125335693359	0.2472013214111328	0.09516951599121093	2.231597900390625	-3.36456298828125	-0.3662109375	9.667786303710937	0.2059013427734375	0.20231004028320312	0.438690185546875	-4.8675537109375	-2.841949462890625	9.841365924072266	0.1131260284423828	-0.16998831787109375	3.65447998046875	-4.791259765625	-2.170562744140625	
180	0.72	0.0	0.0	0.0	0.0	0.003	0.003	0.003	0.003	9.96586441040039	0.07242460021972656	0.15442600708007811	3.582000732421875	-4.238128662109375	-0.22125244140625	9.745597857666015	0.19153613281249998	0.1514332550048828	0.06866455078125	-4.8980712890625	-2.735137939453125	9.934739788818359	0.008978256225585938	-0.15861585998535155	3.894805908203125	-4.360198974609375	-2.44140625	
181	0.724	0.0	0.0	0.0	0.0	0.006	0.003	0.003	0.006	9.904812268066406	0.3178302703857422	0.037708676147460936	3.70025634765625	-4.2877197265625	-0.03814697265625	9.689932669067382	0.20949264526367187	0.18136077575683593	0.57220458984375	-4.970550537109375	-2.90679931640625	9.878476049804688	0.09696516723632811	-0.16160861206054686	3.60107421875	-4.67681884765625	-2.170562744140625	
182	0.728	0.0	0.0	0.0	0.0	0.006	0.003	0.003	0.006	9.891045608520507	-0.05686228942871093	0.21727380065917967	3.5247802734375	-4.009246826171875	-0.225067138671875	9.80665	0.25917232971191406	0.16759411621093748	0.6866455078125	-4.482269287109375	-2.704620361328125	9.909600671386718	-0.015562310791015624	-0.1131260284423828	3.91387939453125	-4.60052490234375	-2.216339111328125	
183	0.732	0.0	0.0	0.0	0.0	0.006	0.003	0.003	0.003	9.878476049804688	-0.07362170104980469	0.09576806640624999	2.22015380859375	-3.665924072265625	-0.873565673828125	9.667187753295899	0.19213468322753904	0.17896657409667968	0.57220458984375	-4.718780517578125	-2.55584716796875	9.959280355834961	0.11911153259277343	0.023942016601562498	3.6773681640625	-4.913330078125	-2.040863037109375	
184	0.736	0.0	0.0	0.0	0.0	0.006	0.003	0.003	0.0	9.91498762512207	-0.04908113403320312	0.21727380065917967	3.2958984375	-3.688812255859375	-0.35858154296875	9.830592016601562	0.26216508178710934	0.19213468322753904	0.54931640625	-4.5318603515625	-2.8533935546875	9.955689053344726	-0.04129997863769531	-0.12030863342285156	3.8604736328125	-4.49371337890625	-2.323150634765625	
185	0.74	0.0	0.0	0.0	0.0	0.006	0.006	0.003	0.003	9.907206469726562	-0.007781155395507812	0.14484920043945312	2.410888671875	-3.513336181640625	-1.087188720703125	9.821613760375977	0.1657984649658203	0.36152445068359373	0.278472900390625	-5.138397216796875	-2.834320068359375	9.986813674926758	0.03950432739257812	0.058657940673828124	3.704071044921875	-4.390716552734375	-2.162933349609375	
186	0.744	0.0	0.0	0.0	0.0	0.003	0.003	0.003	0.003	9.87668039855957	0.10474632263183593	0.23523031311035156	3.719329833984375	-3.871917724609375	-0.22125244140625	9.78629928588867	0.32022447204589843	0.16160861206054686	0.614166259765625	-4.947662353515625	-2.803802490234375	10.18373676147461	-0.010175357055664061	-0.42018239135742186	3.787994384765625	-4.474639892578125	-2.09808349609375	
187	0.748	0.0	0.0	0.0	0.0	0.006	0.003	0.003	0.003	9.917980377197265	-0.1370680450439453	0.15981296081542967	2.414703369140625	-3.643035888671875	-1.056671142578125	9.83178911743164	0.143652099609375	0.3220201232910156	0.316619873046875	-5.1116943359375	-2.5787353515625	9.988609326171874	0.0909796630859375	0.009576806640625	3.467559814453125	-4.70733642578125	-2.08282470703125	
188	0.752	0.0	0.0	0.0	0.0	0.003	0.006	0.003	0.003	9.938331091308592	-0.034715924072265626	-0.16819266662597654	1.0833740234375	-2.857208251953125	-1.41143798828125	9.83238766784668	0.2472013214111328	0.17956512451171874	0.652313232421875	-4.627227783203125	-2.597808837890625	10.313023651123046	-0.062249243164062495	-0.4991910461425781	3.5858154296875	-4.444122314453125	-2.0599365234375	
189	0.756	0.0	0.0	0.0	0.0	0.006	0.003	0.003	0.006	9.888651406860351	-0.03591302490234375	0.25737667846679685	3.387451171875	-3.7689208984375	-0.720977783203125	9.783905084228515	0.16220716247558592	0.33758243408203126	0.213623046875	-5.28717041015625	-2.7923583984375	9.889249957275391	0.06703764648437499	0.0718260498046875	3.60107421875	-5.741119384765625	-2.079010009765625	
190	0.76	0.0	0.0	0.0	0.0	0.003	0.003	0.003	0.0	9.88266590270996	0.12389993591308593	-0.13467384338378904	1.60980224609375	-3.2806396484375	-1.255035400390625	9.89523546142578	0.4064157318115234	-0.04249707946777344	0.93841552734375	-4.573822021484375	-2.60162353515625	10.242394702148436	0.04249707946777344	-0.5117606048583984	3.795623779296875	-4.35638427734375	-1.79290771484375	
191	0.764	0.0	0.0	0.0	0.0	0.006	0.006	0.006	0.003	9.88386300354004	-0.017357962036132813	0.33039982910156246	3.780364990234375	-4.21142578125	-0.423431396484375	9.891644158935547	0.15442600708007811	0.28969840087890625	-0.270843505859375	-4.95147705078125	-2.58636474609375	10.160393295288085	0.032920272827148434	-0.20171148986816406	3.574371337890625	-4.810333251953125	-2.2735595703125	
192	0.768	0.0	0.0	0.0	0.0	0.003	0.003	0.006	0.006	9.87069489440918	-0.1274912384033203	-0.11611878051757812	0.484466552734375	-2.567291259765625	-1.598358154296875	9.886855755615233	0.3016694091796875	0.03591302490234375	0.8392333984375	-4.726409912109375	-2.704620361328125	10.21545993347168	-0.029927520751953124	-0.43574470214843747	3.902435302734375	-4.581451416015625	-2.25067138671875	
193	0.772	0.0	0.0	0.0	0.0	0.006	0.003	0.003	0.006	9.696516723632811	0.32082302246093747	0.16519991455078123	2.033233642578125	-3.12042236328125	-0.9307861328125	9.584587796020507	0.3705027069091797	0.4944026428222656	-0.164031982421875	-4.87518310546875	-2.643585205078125	10.005967288208007	0.15502455749511718	-0.21966800231933592	3.704071044921875	-4.787445068359375	-2.227783203125	
194	0.776	0.0	0.0	0.0	0.0	0.003	0.003	0.006	0.006	9.897629663085937	-0.11013327636718749	-0.044891281127929686	0.469207763671875	-2.66265869140625	-1.781463623046875	9.999981784057617	0.3178302703857422	-0.076614453125	1.02996826171875	-5.001068115234375	-2.685546875	10.088567245483398	0.028730419921875	-0.4261678955078125	3.570556640625	-4.764556884765625	-1.9073486328125	
195	0.78	0.0	0.0	0.0	0.0	0.003	0.006	0.006	0.006	9.73602105102539	0.22565350646972654	0.09337386474609374	2.079010009765625	-3.2501220703125	-1.010894775390625	9.667786303710937	0.18136077575683593	0.4782417816162109	-0.293731689453125	-4.657745361328125	-2.819061279296875	10.16338604736328	-0.027533319091796873	-0.23582886352539062	3.559112548828125	-4.665374755859375	-2.071380615234375	
196	0.784	0.0	0.0	0.0	0.0	0.003	0.003	0.003	0.009000000000000001	9.90241806640625	0.2723404388427734	0.1580173095703125	2.410888671875	-3.5247802734375	-0.457763671875	9.821015209960937	0.3124433166503906	-0.0383072265625	0.453948974609375	-4.978179931640625	-3.002166748046875	9.97244846496582	0.10474632263183593	-0.3764882110595703	3.665924072265625	-4.878997802734375	-2.132415771484375	
197	0.788	0.0	0.0	0.0	0.0	0.0	0.006	0.003	0.003	9.732429748535155	0.0987608184814453	0.13467384338378904	2.44140625	-3.54766845703125	-0.926971435546875	9.639055883789062	0.25139117431640623	0.4656722229003906	-0.28228759765625	-4.913330078125	-2.658843994140625	9.746794958496093	0.044891281127929686	-0.02154781494140625	3.856658935546875	-4.695892333984375	-2.3040771484375	
198	0.792	0.0	0.0	0.0	0.0	0.003	0.003	0.006	0.006	9.95987890625	0.28311434631347654	0.10175357055664062	2.552032470703125	-3.269195556640625	-0.324249267578125	9.949104998779296	0.11432312927246092	-0.01975216369628906	0.640869140625	-4.7149658203125	-3.082275390625	10.180145458984374	-0.12449848632812499	-0.31543606872558594	3.566741943359375	-4.734039306640625	-2.0751953125	
199	0.796	0.0	0.0	0.0	0.0	0.006	0.006	0.003	0.003	9.74799205932617	0.29269115295410153	0.09277531433105468	2.063751220703125	-3.124237060546875	-1.28936767578125	9.69112976989746	0.23882161560058593	0.20051438903808594	0.194549560546875	-4.8675537109375	-3.078460693359375	9.822212310791015	-0.040701428222656245	-0.12868833923339842	3.65447998046875	-4.364013671875	-2.4871826171875	
200	0.8	0.0	0.0	0.0	0.0	0.003	0.003	0.003	0.006	9.913191973876952	0.15981296081542967	0.14784195251464843	2.2735595703125	-3.253936767578125	-0.244140625	9.846154327392577	0.31663316955566406	0.052073886108398436	0.37384033203125	-4.741668701171875	-2.99072265625	10.00417163696289	0.09995791931152344	-0.3585316986083984	3.42559814453125	-4.8370361328125	-1.087188720703125	
201	0.804	0.0	0.0	0.0	0.0	0.003	0.003	0.003	0.006	9.879673150634765	0.15203180541992187	0.14544775085449219	4.8828125	-4.642486572265625	0.217437744140625	9.724648593139648	0.06105214233398437	0.34835634155273437	0.0152587890625	-4.718780517578125	-2.81524658203125	9.928754284667969	-0.19512743530273435	-0.037708676147460936	3.59344482421875	-4.69207763671875	-2.399444580078125	
202	0.808	0.0	0.0	0.0	0.0	0.006	0.003	0.006	0.006	10.031704956054687	0.38845921936035155	0.01975216369628906	3.528594970703125	-3.894805908203125	-0.331878662109375	9.797671743774414	0.1274912384033203	-0.010773907470703125	0.713348388671875	-5.06591796875	-2.895355224609375	9.95389340209961	0.06643909606933593	-0.2501940734863281	3.5400390625	-4.627227783203125	-2.23541259765625	
203	0.812	0.0	0.0	0.0	0.0	0.003	0.003	0.003	0.006	9.815628256225585	-0.07302315063476562	0.16160861206054686	4.29534912109375	-4.4097900390625	0.354766845703125	9.560047229003906	0.30047230834960936	0.33578678283691404	0.0	-4.878997802734375	-2.8076171875	9.695918173217773	0.06703764648437499	-0.08439560852050781	3.8299560546875	-4.650115966796875	-2.288818359375	
204	0.8160000000000001	0.0	0.0	0.0	0.0	0.003	0.003	0.003	0.003	9.986813674926758	0.1304839904785156	0.10594342346191406	2.285003662109375	-3.5247802734375	-0.072479248046875	9.76235726928711	0.06105214233398437	0.105344873046875	0.1678466796875	-4.9591064453125	-2.716064453125	9.93354268798828	0.07362170104980469	-0.16460136413574217	3.63922119140625	-4.886627197265625	-2.323150634765625	
205	0.8200000000000001	0.0	0.0	0.0	0.0	0.003	0.006	0.003	0.003	9.928155734252929	0.2747346405029297	0.13587094421386717	6.290435791015625	-5.390167236328125	0.583648681640625	9.830592016601562	0.1370680450439453	0.12868833923339842	0.492095947265625	-4.642486572265625	-2.9296875	10.064625228881836	-0.2645592834472656	-0.26396073303222656	3.70025634765625	-4.3792724609375	-2.32696533203125	
206	0.8240000000000001	0.0	0.0	0.0	0.0	0.003	0.003	0.003	0.006	9.837176071166992	-0.31663316955566406	-0.09277531433105468	2.63214111328125	-3.80706787109375	-0.644683837890625	9.65342109375	0.2537853759765625	0.037708676147460936	0.377655029296875	-4.817962646484375	-2.8839111328125	9.737816702270507	0.3022679595947265	-0.12090718383789062	3.604888916015625	-4.6539306640625	-2.094268798828125	
207	0.8280000000000001	0.0	0.0	0.0	0.0	0.006	2.124	4.641	4.59	9.804854348754882	-0.25917232971191406	0.3082534637451172	3.650665283203125	-4.001617431640625	0.457763671875	9.700108026123047	0.20709844360351562	0.21966800231933592	0.03814697265625	-4.444122314453125	-2.8533935546875	9.880870251464843	-0.15322890625	-0.09277531433105468	3.875732421875	-4.5166015625	-2.285003662109375	
208	0.8320000000000001	0.0	0.0	0.0	0.0	4.62	4.65	4.6530000000000005	4.593	9.944915145874022	0.1801636749267578	-0.12090718383789062	3.574371337890625	-4.486083984375	-0.354766845703125	9.86411083984375	0.10714052429199218	-0.044891281127929686	0.28228759765625	-5.2947998046875	-2.685546875	10.12567737121582	0.016759411621093748	-0.01915361328125	3.79180908203125	-4.53948974609375	-1.880645751953125	
209	0.836	0.0	0.0	0.0	0.0	4.623	4.65	4.6530000000000005	4.6080000000000005	9.861716638183593	0.5003881469726562	0.297479556274414	2.7618408203125	-3.57818603515625	-1.285552978515625	9.705494979858399	0.2920926025390625	0.13587094421386717	0.3509521484375	-4.638671875	-3.093719482421875	9.87727894897461	-0.09696516723632811	-0.258573779296875	3.92913818359375	-4.38690185546875	-2.437591552734375	
210	0.84	0.0	0.0	0.0	0.0	4.62	4.656	4.656	4.614	9.782707983398437	-0.5009866973876953	0.07302315063476562	2.50244140625	-3.4942626953125	-0.80108642578125	9.752780462646484	0.17477672119140625	0.30885201416015623	0.06103515625	-4.833221435546875	-2.41851806640625	9.871891995239258	0.19871873779296872	0.06045359191894531	3.627777099609375	-4.703521728515625	-1.789093017578125	
211	0.844	0.0	0.0	0.0	0.0	4.62	4.6530000000000005	4.6530000000000005	4.611	9.929352835083007	-0.18734627990722655	-0.14784195251464843	1.216888427734375	-2.941131591796875	-0.69427490234375	9.783306533813477	0.18076222534179687	0.21906945190429686	1.010894775390625	-4.863739013671875	-3.021240234375	10.064625228881836	-0.2699462371826172	-0.2705447875976562	3.7384033203125	-4.680633544921875	-1.96075439453125	
212	0.848	0.0	0.0	0.0	0.0	4.6080000000000005	4.6530000000000005	4.6530000000000005	4.62	10.01075569152832	0.4064157318115234	-0.13168109130859373	4.058837890625	-4.306793212890625	-0.095367431640625	9.87009634399414	0.12330138549804687	0.11133037719726561	0.38909912109375	-5.0201416015625	-2.6397705078125	9.998784683227539	0.15861585998535155	-0.08918401184082031	3.345489501953125	-4.5166015625	-2.300262451171875	
213	0.852	0.0	0.0	0.0	0.0	4.62	4.656	4.656	4.6080000000000005	9.750386260986328	0.0987608184814453	0.04548983154296875	4.550933837890625	-4.47845458984375	-0.835418701171875	9.86411083984375	0.4339490509033203	-0.044292730712890624	1.018524169921875	-4.72259521484375	-2.46429443359375	10.192116467285155	0.05386953735351562	-0.5811924530029297	3.5247802734375	-4.566192626953125	-2.025604248046875	
214	0.856	0.0	0.0	0.0	0.0	4.62	4.656	4.656	4.596	9.597157354736327	-0.4147954376220703	0.4644751220703125	0.152587890625	-2.410888671875	-1.087188720703125	9.88386300354004	0.10354922180175781	0.23882161560058593	0.049591064453125	-4.99725341796875	-2.5177001953125	10.060435375976562	0.10654197387695312	-0.061650692749023434	3.536224365234375	-4.711151123046875	-1.99127197265625	
215	0.86	0.0	0.0	0.0	0.0	4.623	4.6530000000000005	4.65	4.599	9.90840357055664	-0.46686932373046874	-0.14963760375976562	0.446319580078125	-2.407073974609375	-0.87738037109375	9.996390481567381	0.25797522888183594	-0.16460136413574217	0.705718994140625	-4.741668701171875	-2.735137939453125	10.372878692626953	-0.14185644836425781	-0.6404489440917969	3.662109375	-4.44793701171875	-1.96075439453125	
216	0.864	0.0	0.0	0.0	0.0	4.617	4.647	4.6530000000000005	4.6080000000000005	9.690531219482422	0.8966285217285156	0.2855085479736328	3.963470458984375	-4.06646728515625	-0.324249267578125	9.703100778198241	0.412401235961914	0.22086510314941404	0.263214111328125	-5.1116943359375	-2.410888671875	9.965265859985351	0.17657237243652343	-0.19871873779296872	3.5858154296875	-4.6234130859375	-2.197265625	
217	0.868	0.0	0.0	0.0	0.0	4.62	4.6530000000000005	4.656	4.614	9.828197814941406	0.6338648895263671	0.027533319091796873	6.40106201171875	-5.214691162109375	-0.02288818359375	9.989806427001952	0.2454056701660156	-0.1610100616455078	1.216888427734375	-5.04302978515625	-2.47955322265625	10.322001907348632	-0.040102877807617184	-0.5638344909667968	3.780364990234375	-4.856109619140625	-1.819610595703125	
218	0.872	0.0	0.0	0.0	0.0	4.617	4.6530000000000005	4.6530000000000005	4.611	9.576806640625	-0.43574470214843747	0.3555389465332031	1.99127197265625	-3.5552978515625	-1.483917236328125	9.819818109130859	0.3477577911376953	0.2184709014892578	-0.087738037109375	-5.096435546875	-2.460479736328125	10.165780249023436	0.022146365356445312	-0.24480711975097655	3.753662109375	-4.5928955078125	-2.521514892578125	
219	0.876	0.0	0.0	0.0	0.0	4.6080000000000005	4.65	4.647	4.617	9.982623822021484	-0.2609679809570312	-0.07003039855957031	-4.5166015625	0.1220703125	-2.28118896484375	9.931148486328125	0.17477672119140625	-0.051475335693359374	0.79345703125	-4.96673583984375	-3.24249267578125	10.09395419921875	0.1657984649658203	-0.4112041351318359	3.60870361328125	-4.741668701171875	-1.789093017578125	
220	0.88	0.0	0.0	0.0	0.0	4.617	4.65	4.65	4.605	9.643844287109374	0.1304839904785156	0.40462008056640625	-1.163482666015625	-1.65557861328125	-1.049041748046875	9.683348614501952	0.37888241271972656	0.3447650390625	0.049591064453125	-4.940032958984375	-2.79998779296875	9.956287603759765	0.10654197387695312	-0.13347674255371092	3.688812255859375	-4.70733642578125	-2.29644775390625	
221	0.884	0.0	0.0	0.0	0.0	4.62	4.656	4.656	4.599	9.993996279907225	0.8200140686035156	-0.03950432739257812	3.12042236328125	-3.833770751953125	-1.2359619140625	10.040683212280273	0.15023615417480468	-0.11731588134765625	0.7171630859375	-5.08880615234375	-2.93731689453125	10.174159954833984	0.1352723937988281	-0.3687070556640625	4.03594970703125	-4.84466552734375	-1.9378662109375	
222	0.888	0.0	0.0	0.0	0.0	4.626	4.6530000000000005	4.6530000000000005	4.593	9.70369932861328	0.8014590057373047	0.19153613281249998	3.0364990234375	-3.841400146484375	-1.399993896484375	9.744400756835937	0.4016273284912109	0.25917232971191406	0.255584716796875	-4.886627197265625	-3.1280517578125	10.066420880126952	0.07541735229492187	-0.2166752502441406	3.70025634765625	-4.589080810546875	-2.655029296875	
223	0.892	0.0	0.0	0.0	0.0	4.62	4.647	4.6530000000000005	4.611	9.696516723632811	-0.2537853759765625	0.2705447875976562	-0.759124755859375	-2.03704833984375	-2.197265625	9.88266590270996	0.3280056274414062	0.020949264526367185	0.530242919921875	-5.11932373046875	-2.849578857421875	10.02332525024414	0.239420166015625	-0.38187516479492184	3.4637451171875	-4.7607421875	-1.880645751953125	
224	0.896	0.0	0.0	0.0	0.0	4.617	4.6530000000000005	4.6530000000000005	0.003	9.891644158935547	-0.17417817077636719	0.23403321228027343	-2.452850341796875	-1.163482666015625	-1.74713134765625	9.661202249145507	0.30526071166992186	0.4034229797363281	0.08392333984375	-4.817962646484375	-3.055572509765625	9.779715231323241	-0.10893617553710937	0.0	3.330230712890625	-4.64630126953125	-2.239227294921875	
225	0.9	0.0	0.0	0.0	0.0	0.006	0.003	0.006	0.003	10.002974536132811	0.027533319091796873	0.11851298217773437	-3.73077392578125	-0.080108642578125	-2.063751220703125	9.792284790039062	0.06823474731445311	0.17956512451171874	0.278472900390625	-4.8675537109375	-3.1585693359375	10.186729513549803	0.08080430603027343	-0.48243163452148435	3.4637451171875	-4.680633544921875	-2.17437744140625	
226	0.904	0.0	0.0	0.0	0.0	0.006	0.006	0.003	0.003	10.10053825378418	0.6619967590332031	-0.07003039855957031	4.73785400390625	-4.5928955078125	-0.18310546875	9.639055883789062	0.3699041564941406	0.2962824554443359	0.17547607421875	-4.261016845703125	-2.93731689453125	9.713276135253906	-0.02633621826171875	-0.030526071166992186	3.498077392578125	-4.49371337890625	-2.407073974609375	
227	0.908	0.0	0.0	0.0	0.0	0.003	0.003	0.003	0.006	9.93354268798828	0.41539398803710936	0.0005985504150390625	7.678985595703125	-6.649017333984375	0.881195068359375	9.696516723632811	0.19093758239746092	0.25258827514648435	0.30517578125	-4.89044189453125	-2.74658203125	9.764152920532226	0.22026655273437498	0.010175357055664061	3.719329833984375	-4.90570068359375	-2.3040771484375	
228	0.912	0.0	0.0	0.0	0.0	0.003	0.003	0.006	0.003	9.986813674926758	0.26396073303222656	-0.055066638183593745	6.35528564453125	-5.37109375	0.16021728515625	9.801861596679688	0.3028665100097656	0.034715924072265626	0.14495849609375	-4.92095947265625	-2.93731689453125	9.903016616821288	-0.09457096557617187	-0.13766659545898435	3.490447998046875	-4.5318603515625	-2.26593017578125	
229	0.916	0.0	0.0	0.0	0.0	0.003	0.003	0.003	0.003	9.853935482788085	0.08200140686035155	0.0005985504150390625	3.94439697265625	-4.138946533203125	-0.171661376953125	9.720458740234374	0.17298106994628906	0.2214636535644531	0.3814697265625	-4.9285888671875	-2.864837646484375	9.83238766784668	0.11133037719726561	-0.13108254089355467	3.37982177734375	-4.421234130859375	-2.452850341796875	
230	0.92	0.0	0.0	0.0	0.0	0.003	0.003	0.006	0.003	9.727641345214844	0.1771709228515625	0.21966800231933592	3.0059814453125	-3.719329833984375	-0.713348388671875	9.577405191040038	0.24361001892089842	0.3573345977783203	0.011444091796875	-4.52423095703125	-3.11279296875	9.78031378173828	0.016759411621093748	-0.10474632263183593	3.856658935546875	-4.589080810546875	-2.37274169921875	
231	0.924	0.0	0.0	0.0	0.0	0.003	0.006	0.006	0.009000000000000001	9.94072529296875	-0.14006079711914063	-0.03591302490234375	1.190185546875	-3.025054931640625	-1.02996826171875	9.788094937133788	0.044891281127929686	0.19333178405761717	0.45013427734375	-5.34820556640625	-2.471923828125	9.887454306030273	0.04129997863769531	-0.1514332550048828	3.77655029296875	-4.63104248046875	-2.422332763671875	
232	0.928	0.0	0.0	0.0	0.0	0.003	0.003	0.006	0.006	10.104129556274414	-0.08918401184082031	-0.054468087768554684	3.528594970703125	-3.85284423828125	0.030517578125	9.72943699645996	0.18614917907714842	0.20051438903808594	0.02288818359375	-4.547119140625	-3.36456298828125	9.977236868286132	-0.07481880187988281	-0.2442085693359375	3.70025634765625	-4.413604736328125	-2.185821533203125	
233	0.932	0.0	0.0	0.0	0.0	0.003	0.006	0.003	0.006	10.035894808959961	0.18435352783203124	-0.11192892761230468	3.383636474609375	-4.177093505859375	-0.0762939453125	9.701305126953125	0.15682020874023436	0.19393033447265623	0.209808349609375	-4.856109619140625	-2.5482177734375	9.717465988159178	0.08379705810546874	-0.12868833923339842	3.772735595703125	-4.49371337890625	-2.20489501953125	
234	0.936	0.0	0.0	0.0	0.0	0.006	0.003	0.003	0.006	9.957484704589843	0.06344634399414062	0.076614453125	6.256103515625	-5.367279052734375	1.010894775390625	9.70369932861328	0.20769699401855468	0.2184709014892578	0.392913818359375	-4.85992431640625	-3.05938720703125	9.929951385498047	0.027533319091796873	-0.31483751831054685	3.8909912109375	-4.66156005859375	-1.9378662109375	
235	0.9400000000000001	0.0	0.0	0.0	0.0	0.003	0.003	0.006	0.003	10.150217938232421	-0.07242460021972656	-0.31663316955566406	3.86810302734375	-4.413604736328125	-0.51116943359375	9.87727894897461	0.05985504150390625	0.011971008300781249	0.339508056640625	-4.955291748046875	-2.38037109375	10.155604891967773	-0.12449848632812499	-0.2645592834472656	3.826141357421875	-4.7149658203125	-2.08282470703125	
236	0.9440000000000001	0.0	0.0	0.0	0.0	0.006	0.003	0.003	0.003	9.783905084228515	-0.17776947326660156	0.09516951599121093	4.79888916015625	-4.306793212890625	0.08392333984375	9.868899243164062	0.24959552307128904	0.032920272827148434	0.885009765625	-4.8065185546875	-2.75421142578125	9.90241806640625	0.08379705810546874	-0.28311434631347654	3.875732421875	-4.444122314453125	-1.99127197265625	
237	0.9480000000000001	0.0	0.0	0.0	0.0	0.006	0.003	0.003	0.006	9.638457333374022	-0.07781155395507812	0.373495458984375	1.27410888671875	-2.773284912109375	-1.667022705078125	9.76235726928711	0.13407529296874998	0.04668693237304687	0.392913818359375	-5.123138427734375	-2.635955810546875	9.906009368896484	-0.016759411621093748	-0.08020575561523437	3.4027099609375	-4.6234130859375	-1.79290771484375	
238	0.9520000000000001	0.0	0.0	0.0	0.0	0.003	0.006	0.003	0.003	9.809044201660155	-0.13826514587402344	0.02693476867675781	3.444671630859375	-3.7841796875	-0.644683837890625	9.962871658325195	0.21248539733886718	-0.08678981018066406	0.988006591796875	-4.9285888671875	-2.689361572265625	10.351929428100584	0.023942016601562498	-0.6572083557128906	3.47137451171875	-4.627227783203125	-2.05230712890625	
239	0.9560000000000001	0.0	0.0	0.0	0.0	0.003	0.003	0.006	0.006	9.763554370117188	-0.16041151123046873	0.2136824981689453	1.12152099609375	-2.8076171875	-1.82342529296875	9.861118087768554	0.26396073303222656	0.277727392578125	-0.011444091796875	-4.589080810546875	-2.777099609375	10.084975942993163	-0.1322796417236328	-0.22565350646972654	3.86810302734375	-4.75311279296875	-2.140045166015625	
240	0.96	0.0	0.0	0.0	0.0	0.006	0.003	0.006	0.006	9.830592016601562	0.24600422058105467	0.03591302490234375	-0.331878662109375	-1.983642578125	-1.850128173828125	9.82460651245117	0.28371289672851563	0.030526071166992186	0.736236572265625	-4.75311279296875	-2.63214111328125	10.126275921630858	0.1131260284423828	-0.5015852478027344	3.7994384765625	-4.322052001953125	-2.25067138671875	
241	0.964	0.0	0.0	0.0	0.0	0.006	0.003	0.003	0.006	9.702502227783203	-0.17058686828613281	0.27832594299316404	1.434326171875	-3.154754638671875	-1.617431640625	9.802460147094726	0.2980781066894531	0.32142157287597656	-0.0457763671875	-5.039215087890625	-2.3193359375	10.070012182617187	0.0987608184814453	-0.18136077575683593	3.437042236328125	-4.817962646484375	-1.575469970703125	
242	0.968	0.0	0.0	0.0	0.0	0.006	0.003	0.003	0.003	9.874884747314452	0.09277531433105468	0.11073182678222655	-0.80108642578125	-1.712799072265625	-2.197265625	9.947907897949218	0.18614917907714842	0.04608838195800781	0.41961669921875	-4.8828125	-3.173828125	10.414777221679687	-0.013168109130859374	-0.6973112335205077	3.589630126953125	-4.4097900390625	-2.49481201171875	
243	0.972	0.0	0.0	0.0	0.0	0.006	0.003	0.006	0.003	9.581595043945311	-0.22744915771484372	0.40402153015136716	-0.705718994140625	-2.025604248046875	-2.483367919921875	9.758765966796874	0.28371289672851563	0.3794809631347656	0.4425048828125	-4.75311279296875	-2.6092529296875	10.064026678466796	0.1131260284423828	-0.14903905334472656	3.536224365234375	-4.734039306640625	-1.9989013671875	
244	0.976	0.0	0.0	0.0	0.0	0.003	0.003	0.003	0.006	9.852139831542969	0.4387374542236328	0.2507926239013672	-1.45721435546875	-1.293182373046875	-2.49481201171875	9.812036953735351	0.3016694091796875	0.1849520782470703	0.6866455078125	-5.096435546875	-2.99072265625	10.235212097167969	0.058657940673828124	-0.5596446380615234	3.582000732421875	-4.82177734375	-2.170562744140625	
245	0.98	0.0	0.0	0.0	0.0	0.009000000000000001	0.003	0.003	0.006	10.002974536132811	0.6111199737548828	0.19153613281249998	3.543853759765625	-3.88336181640625	-0.423431396484375	9.811438403320311	0.2711433380126953	0.1879448303222656	0.308990478515625	-4.5623779296875	-2.81524658203125	10.216058483886718	0.07721300354003906	-0.26336218261718747	3.6773681640625	-4.627227783203125	-2.010345458984375	
246	0.984	0.0	0.0	0.0	0.0	0.003	0.003	0.006	0.003	9.994594830322265	0.6835445739746093	0.2507926239013672	0.354766845703125	-2.307891845703125	-1.57928466796875	9.849147079467773	0.33758243408203126	0.2059013427734375	0.514984130859375	-4.726409912109375	-2.99835205078125	10.081983190917969	-0.15263035583496093	-0.5057751007080078	3.360748291015625	-4.6844482421875	-2.34222412109375	
247	0.988	0.0	0.0	0.0	0.0	0.003	0.003	0.003	0.003	10.013748443603514	0.7619546783447265	0.17657237243652343	5.25665283203125	-4.917144775390625	0.396728515625	9.70968483276367	0.3028665100097656	0.2885013000488281	-0.293731689453125	-4.543304443359375	-2.8533935546875	10.04247886352539	0.23523031311035156	-0.16639701538085935	3.72314453125	-4.711151123046875	-1.903533935546875	
248	0.992	0.0	0.0	0.0	0.0	0.003	0.006	0.003	0.006	10.098742602539062	0.785896694946289	0.1945288848876953	7.198333740234375	-6.015777587890625	1.438140869140625	9.938331091308592	0.1753752716064453	0.020350714111328123	-0.3204345703125	-4.7760009765625	-2.597808837890625	10.081983190917969	-0.18734627990722655	-0.5644330413818359	3.66973876953125	-4.73785400390625	-2.025604248046875	
249	0.996	0.0	0.0	0.0	0.0	0.003	0.003	0.003	0.006	10.121487518310547	0.4961982940673828	-0.07541735229492187	6.81304931640625	-5.672454833984375	0.980377197265625	9.788693487548828	0.24001871643066405	0.20530279235839843	-0.41961669921875	-4.604339599609375	-2.64739990234375	9.867103591918944	0.14006079711914063	-0.18315642700195311	3.589630126953125	-4.657745361328125	-2.11334228515625	
250	1.0	0.0	0.0	0.0	0.0	0.006	0.003	0.006	0.003	9.8449572265625	0.054468087768554684	-0.17298106994628906	6.725311279296875	-5.8746337890625	1.13677978515625	9.720458740234374	0.23582886352539062	0.008978256225585938	-0.3662109375	-4.81414794921875	-2.628326416015625	9.931747036743163	-0.03890577697753906	-0.4704606262207031	3.4942626953125	-4.833221435546875	-2.3193359375	
251	1.004	0.0	0.0	0.0	0.0	0.003	0.003	0.003	0.003	10.044873065185547	0.27832594299316404	-0.1610100616455078	6.916046142578125	-5.5999755859375	0.885009765625	9.802460147094726	0.2705447875976562	0.12988544006347655	0.3204345703125	-5.016326904296875	-2.75421142578125	9.804255798339844	0.23223756103515625	-0.1227028350830078	3.704071044921875	-4.619598388671875	-2.223968505859375	
252	1.008	0.0	0.0	0.0	0.0	0.003	0.006	0.006	0.003	9.765948571777344	-0.2454056701660156	-0.12868833923339842	4.70733642578125	-4.619598388671875	0.186920166015625	9.813832604980469	0.10714052429199218	-0.12090718383789062	0.080108642578125	-5.046844482421875	-2.735137939453125	9.938929641723632	-0.15442600708007811	-0.2753331909179687	3.72314453125	-4.871368408203125	-2.2430419921875	
253	1.012	0.0	0.0	0.0	0.0	0.0	0.003	0.003	0.003	9.667187753295899	-0.36272155151367186	0.23642741394042968	-0.35858154296875	-2.00653076171875	-1.674652099609375	9.625887774658203	0.3573345977783203	0.201112939453125	0.347137451171875	-4.413604736328125	-3.063201904296875	9.757568865966796	0.2346317626953125	-0.03411737365722656	3.74603271484375	-4.63104248046875	-2.3193359375	
254	1.016	0.0	0.0	0.0	0.0	0.003	0.006	0.003	0.006	9.67137760620117	-0.2424129180908203	0.1131260284423828	1.62506103515625	-3.3416748046875	-0.8544921875	9.78629928588867	0.27892449340820313	-0.06823474731445311	0.2899169921875	-4.75311279296875	-2.895355224609375	9.855731134033203	-0.031124621582031248	-0.12090718383789062	3.772735595703125	-4.909515380859375	-2.193450927734375	
255	1.02	0.0	0.0	0.0	0.0	0.006	0.003	0.006	0.006	9.824007962036132	-0.14963760375976562	0.22565350646972654	0.2593994140625	-1.983642578125	-1.77001953125	9.743203656005859	0.20709844360351562	0.12210428466796874	0.423431396484375	-4.863739013671875	-3.025054931640625	9.878476049804688	0.17238251953125	-0.12449848632812499	3.96728515625	-4.184722900390625	-2.2735595703125	
256	1.024	0.0	0.0	0.0	0.0	0.006	0.003	0.003	0.0	9.712079034423828	0.009576806640625	0.201112939453125	1.247406005859375	-3.009796142578125	-1.270294189453125	9.730035546875	0.1304839904785156	0.19632453613281248	0.58746337890625	-5.07354736328125	-2.9296875	9.835978970336914	-0.04369418029785156	-0.1580173095703125	3.5247802734375	-4.878997802734375	-2.315521240234375	
257	1.028	0.0	0.0	0.0	0.0	0.003	0.003	0.003	0.006	9.90181951599121	-0.016759411621093748	0.22864625854492185	1.4190673828125	-2.84576416015625	-0.885009765625	9.680954412841796	0.1849520782470703	0.23582886352539062	0.244140625	-4.67681884765625	-2.681732177734375	9.886855755615233	0.06823474731445311	-0.11432312927246092	3.7384033203125	-4.497528076171875	-2.262115478515625	
258	1.032	0.0	0.0	0.0	0.0	-0.003	0.006	0.006	0.009000000000000001	10.056844073486328	-0.17238251953125	-0.052073886108398436	3.41033935546875	-3.9825439453125	-0.339508056640625	9.835380419921874	0.12210428466796874	0.13587094421386717	0.3204345703125	-4.90570068359375	-2.979278564453125	9.942520944213866	-0.08738836059570312	-0.10474632263183593	3.60870361328125	-4.497528076171875	-2.197265625	
259	1.036	0.0	0.0	0.0	0.0	0.006	0.003	0.006	0.003	10.005967288208007	0.03172317199707031	0.08918401184082031	4.100799560546875	-4.268646240234375	-0.026702880859375	9.86291373901367	0.24001871643066405	0.07302315063476562	0.5035400390625	-4.573822021484375	-2.4566650390625	9.952696301269532	-0.04608838195800781	-0.1610100616455078	3.726959228515625	-4.547119140625	-2.490997314453125	
260	1.04	0.0	0.0	0.0	0.0	0.0	0.003	0.003	0.003	9.87608184814453	-0.09217676391601562	-0.013168109130859374	4.016876220703125	-4.474639892578125	-0.171661376953125	9.662997900390625	0.26276363220214843	0.14185644836425781	0.301361083984375	-5.107879638671875	-2.666473388671875	9.897629663085937	0.18734627990722655	-0.013766659545898436	3.71551513671875	-4.7760009765625	-1.743316650390625	
261	1.044	0.0	0.0	0.0	0.0	0.003	0.006	0.003	0.003	9.974842666625976	-0.08200140686035155	0.13347674255371092	1.18255615234375	-2.899169921875	-1.4495849609375	9.878476049804688	0.21487959899902342	0.13946224670410157	0.797271728515625	-4.73785400390625	-2.6397705078125	10.006565838623047	-0.07541735229492187	-0.11791443176269531	3.597259521484375	-4.436492919921875	-2.300262451171875	
262	1.048	0.0	0.0	0.0	0.0	0.003	0.006	0.003	0.003	9.868300692749022	-0.2328361114501953	0.076614453125	3.11279296875	-4.039764404296875	-0.79345703125	9.909600671386718	0.16460136413574217	0.3190273712158203	0.362396240234375	-5.092620849609375	-2.7618408203125	10.117896215820313	0.0987608184814453	-0.05805939025878906	3.734588623046875	-4.650115966796875	-1.972198486328125	
263	1.052	0.0	0.0	0.0	0.0	0.006	0.003	0.003	0.003	9.712079034423828	0.13826514587402344	0.0718260498046875	0.2288818359375	-2.140045166015625	-2.28118896484375	9.71028338317871	0.35134909362792965	0.2088940948486328	0.934600830078125	-4.67681884765625	-2.834320068359375	10.20169327392578	-0.05985504150390625	-0.6183025787353515	3.76129150390625	-4.520416259765625	-2.105712890625	
264	1.056	0.0	0.0	0.0	0.0	0.006	0.003	0.003	0.006	9.83777462158203	-0.2154781494140625	0.18555062866210936	1.8310546875	-3.391265869140625	-1.495361328125	9.83897172241211	0.2280477081298828	0.31184476623535157	0.072479248046875	-5.18798828125	-2.552032470703125	10.054449871826172	0.2292448089599609	-0.14425065002441406	3.62396240234375	-4.55474853515625	-1.96075439453125	
265	1.06	0.0	0.0	0.0	0.0	0.006	0.003	0.003	0.006	9.871891995239258	-0.21727380065917967	-0.08080430603027343	0.152587890625	-2.197265625	-2.06756591796875	10.031106405639648	0.28730419921875	-0.05686228942871093	0.95367431640625	-4.57000732421875	-2.8533935546875	10.429142431640624	-0.2765302917480469	-0.6003460662841796	3.597259521484375	-4.78363037109375	-1.97601318359375	
266	1.064	0.0	0.0	0.0	0.0	0.003	0.003	0.006	0.006	9.785700735473633	0.2549824768066406	0.2753331909179687	2.13623046875	-3.33404541015625	-0.934600830078125	9.763554370117188	0.18435352783203124	0.3094505645751953	0.05340576171875	-5.11932373046875	-2.712249755859375	10.099341152954102	0.19692308654785154	-0.38247371520996093	3.59344482421875	-4.82177734375	-2.34222412109375	
267	1.068	0.0	0.0	0.0	0.0	0.0	0.003	0.003	0.006	9.757568865966796	0.10235212097167969	0.076614453125	1.064300537109375	-2.964019775390625	-1.605987548828125	9.809044201660155	0.5482721801757812	-0.014963760375976562	0.675201416015625	-4.53948974609375	-2.574920654296875	10.172962854003906	0.025139117431640625	-0.6021417175292968	3.6468505859375	-4.53948974609375	-2.025604248046875	
268	1.072	0.0	0.0	0.0	0.0	0.006	0.003	0.006	0.009000000000000001	9.68454571533203	0.3286041778564453	0.39264907226562495	2.391815185546875	-3.41033935546875	-0.949859619140625	9.734823950195311	0.23044190979003906	0.33039982910156246	0.23651123046875	-5.13458251953125	-2.910614013671875	10.198700521850585	0.09038111267089843	-0.30047230834960936	3.80706787109375	-4.734039306640625	-2.14385986328125	
269	1.076	0.0	0.0	0.0	0.0	0.009000000000000001	0.003	0.003	0.006	9.794678991699218	0.04369418029785156	0.10295067138671875	1.110076904296875	-2.5787353515625	-1.552581787109375	9.966462960815429	0.2454056701660156	-0.08379705810546874	0.858306884765625	-4.73785400390625	-2.92205810546875	10.326191760253906	-0.16879121704101563	-0.5716156463623047	3.734588623046875	-4.543304443359375	-2.03704833984375	
270	1.08	0.0	0.0	0.0	0.0	0.003	0.006	2.358	4.593	9.637260232543944	0.5183446594238281	0.3597287994384765	1.506805419921875	-2.956390380859375	-1.27410888671875	9.497797985839844	0.546476528930664	0.4674678741455078	-0.194549560546875	-4.6844482421875	-2.735137939453125	9.858723886108399	0.26755203552246093	-0.23642741394042968	3.551483154296875	-4.730224609375	-2.231597900390625	
271	1.084	0.0	0.0	0.0	0.0	4.611	4.647	4.656	4.6080000000000005	10.011354241943359	0.36750995483398435	0.11791443176269531	1.251220703125	-2.880096435546875	-0.77056884765625	10.040084661865233	0.15442600708007811	-0.03172317199707031	0.49591064453125	-4.93621826171875	-2.89154052734375	10.089165795898436	0.16041151123046873	-0.43454760131835934	3.7078857421875	-5.123138427734375	-1.728057861328125	
272	1.088	0.0	0.0	0.0	0.0	4.617	4.656	4.6530000000000005	4.614	9.765948571777344	0.18914193115234373	0.21068974609375	1.560211181640625	-2.895355224609375	-1.4495849609375	9.789292037963866	0.3315969299316406	0.2855085479736328	0.09918212890625	-4.764556884765625	-2.62451171875	10.290278735351562	-0.08200140686035155	-0.39264907226562495	3.475189208984375	-4.9896240234375	-2.41851806640625	
273	1.092	0.0	0.0	0.0	0.0	4.617	4.656	4.6530000000000005	4.611	9.968258612060547	0.20769699401855468	-0.020350714111328123	0.9918212890625	-2.74658203125	-1.129150390625	9.770736975097655	0.17058686828613281	0.0143652099609375	0.270843505859375	-4.726409912109375	-3.04412841796875	9.926360083007811	0.23044190979003906	-0.4674678741455078	3.71551513671875	-4.81414794921875	-1.956939697265625	
274	1.096	0.0	0.0	0.0	0.0	4.6080000000000005	4.6530000000000005	4.65	4.623	9.65940659790039	0.37768531188964843	0.26216508178710934	3.749847412109375	-4.24957275390625	-0.09918212890625	9.61451531677246	0.4291606475830078	0.36272155151367186	0.09918212890625	-5.199432373046875	-2.5482177734375	9.619902270507811	0.023942016601562498	-0.10115502014160156	3.612518310546875	-4.7149658203125	-2.20489501953125	
275	1.1	0.0	0.0	0.0	0.0	4.623	4.656	4.656	4.611	10.050260018920898	0.07242460021972656	0.004189852905273437	2.201080322265625	-2.994537353515625	-0.637054443359375	9.99220062866211	0.032920272827148434	0.0796072052001953	0.42724609375	-4.87518310546875	-3.10516357421875	10.248380206298828	-0.02454056701660156	-0.3130418670654297	3.60107421875	-4.787445068359375	-1.97601318359375	
276	1.104	0.0	0.0	0.0	0.0	4.62	4.659	4.656	4.596	9.90840357055664	0.1227028350830078	0.06823474731445311	4.1351318359375	-4.314422607421875	-0.3204345703125	9.650428341674804	0.201112939453125	0.2861070983886719	0.057220458984375	-4.627227783203125	-3.253936767578125	9.785102185058593	-0.21727380065917967	-0.13287819213867186	3.849029541015625	-4.718780517578125	-2.590179443359375	
277	1.108	0.0	0.0	0.0	0.0	4.623	4.656	4.6530000000000005	4.599	9.854534033203125	0.23822306518554687	0.11133037719726561	0.370025634765625	-2.559661865234375	-1.033782958984375	9.702502227783203	0.3890577697753906	0.09576806640624999	0.606536865234375	-4.817962646484375	-2.819061279296875	9.555258825683593	0.4572925170898437	-0.03651157531738281	3.589630126953125	-4.47845458984375	-2.288818359375	
278	1.112	0.0	0.0	0.0	0.0	4.62	4.65	4.6530000000000005	4.614	9.815029705810547	-0.011971008300781249	0.1801636749267578	3.032684326171875	-3.6773681640625	-0.54931640625	9.688137017822266	0.12629413757324218	0.43514615173339843	0.133514404296875	-4.726409912109375	-3.177642822265625	9.911994873046874	-0.28012159423828126	-0.015562310791015624	3.513336181640625	-4.47845458984375	-1.91497802734375	
279	1.116	0.0	0.0	0.0	0.0	4.617	4.656	4.659	4.617	10.095151300048828	-0.012569558715820313	-0.11611878051757812	3.696441650390625	-4.322052001953125	-0.331878662109375	9.88266590270996	-0.037708676147460936	0.05805939025878906	0.400543212890625	-5.084991455078125	-2.98309326171875	10.099341152954102	-0.040701428222656245	-0.22505495605468748	3.444671630859375	-4.43267822265625	-2.361297607421875	
280	1.12	0.0	0.0	0.0	0.0	4.62	4.656	4.6530000000000005	4.617	9.817423907470703	0.35194764404296874	0.15741875915527342	2.941131591796875	-3.66973876953125	-0.576019287109375	9.496600885009766	0.5231330627441406	0.19213468322753904	0.0	-4.711151123046875	-3.223419189453125	9.513360296630859	0.13946224670410157	-0.05626373901367187	3.849029541015625	-4.55474853515625	-2.38800048828125	
281	1.124	0.0	0.0	0.0	0.0	4.6080000000000005	4.6530000000000005	4.65	0.003	10.012551342773437	0.17058686828613281	-0.029927520751953124	3.849029541015625	-4.596710205078125	0.152587890625	9.703100778198241	0.09516951599121093	0.2920926025390625	0.17547607421875	-4.9591064453125	-2.38037109375	9.79408044128418	0.1945288848876953	0.020350714111328123	3.570556640625	-4.69207763671875	-1.804351806640625	
282	1.1280000000000001	0.0	0.0	0.0	0.0	0.003	0.003	0.003	0.006	10.041281762695311	-0.06703764648437499	-0.05566518859863281	3.246307373046875	-3.814697265625	-0.606536865234375	10.04906291809082	-0.02693476867675781	0.044292730712890624	0.614166259765625	-4.57763671875	-2.872467041015625	10.344746823120117	-0.39923312683105466	-0.41898529052734373	3.7994384765625	-4.5928955078125	-2.063751220703125	
283	1.1320000000000001	0.0	0.0	0.0	0.0	0.003	0.003	0.003	0.003	10.012551342773437	0.2166752502441406	-0.18555062866210936	4.76837158203125	-4.55474853515625	0.09918212890625	9.588777648925781	0.2519897247314453	0.10714052429199218	0.217437744140625	-4.7607421875	-3.032684326171875	9.632471829223633	0.27174188842773433	-0.15562310791015624	3.66973876953125	-4.638671875	-2.3956298828125	
284	1.1360000000000001	0.0	0.0	0.0	0.0	0.006	0.003	0.003	0.003	9.739612353515625	0.21966800231933592	0.13646949462890623	4.787445068359375	-4.2724609375	0.324249267578125	9.585784896850585	0.3058592620849609	0.2753331909179687	0.179290771484375	-4.650115966796875	-2.666473388671875	9.701903677368163	0.14604630126953125	-0.10594342346191406	3.74603271484375	-4.413604736328125	-1.953125	
285	1.1400000000000001	0.0	0.0	0.0	0.0	0.003	0.006	0.003	0.006	10.13226142578125	-0.2705447875976562	-0.26396073303222656	4.756927490234375	-4.95147705078125	0.2593994140625	10.045471615600585	0.013168109130859374	0.07242460021972656	0.213623046875	-5.023956298828125	-2.323150634765625	10.345345373535155	-0.19692308654785154	-0.2442085693359375	3.604888916015625	-4.8675537109375	-1.964569091796875	
286	1.1440000000000001	0.0	0.0	0.0	0.0	0.006	0.003	0.003	0.003	9.892841259765625	-0.20290859069824219	-0.2184709014892578	3.704071044921875	-3.814697265625	-0.49591064453125	9.850344180297851	0.2651578338623047	-0.076614453125	0.16021728515625	-4.73785400390625	-2.887725830078125	10.075399136352539	0.0053869537353515625	-0.5632359405517577	3.77655029296875	-4.535675048828125	-2.3651123046875	
287	1.1480000000000001	0.0	0.0	0.0	0.0	0.006	0.003	0.003	0.003	9.815029705810547	0.2472013214111328	0.022744915771484374	0.28228759765625	-2.346038818359375	-1.800537109375	9.634267480468749	0.39803602600097654	0.18614917907714842	0.244140625	-4.779815673828125	-2.5482177734375	9.68454571533203	0.21607669982910155	-0.10354922180175781	3.719329833984375	-4.47845458984375	-2.00653076171875	
288	1.1520000000000001	0.0	0.0	0.0	0.0	0.0	0.003	0.003	0.003	9.769539874267577	-0.43035774841308594	0.1131260284423828	2.765655517578125	-3.7994384765625	-0.60272216796875	9.975441217041014	0.16340426330566404	0.01975216369628906	0.7476806640625	-5.367279052734375	-2.5634765625	10.265139617919921	0.03890577697753906	-0.4429273071289062	3.7994384765625	-4.642486572265625	-1.995086669921875	
289	1.156	0.0	0.0	0.0	0.0	0.003	0.003	0.003	0.0	9.783306533813477	-0.20231004028320312	0.1304839904785156	0.980377197265625	-2.60162353515625	-1.781463623046875	9.97184991455078	0.17178396911621094	0.031124621582031248	0.316619873046875	-4.61578369140625	-2.658843994140625	10.28549033203125	-0.2328361114501953	-0.3920505218505859	3.6773681640625	-4.573822021484375	-2.197265625	
290	1.16	0.0	0.0	0.0	0.0	0.003	0.006	0.006	0.006	9.733626849365233	0.04189852905273437	-0.06703764648437499	1.1749267578125	-2.696990966796875	-1.461029052734375	9.779715231323241	0.3711012573242187	-0.008978256225585938	0.640869140625	-4.76837158203125	-2.536773681640625	9.992799179077148	0.277727392578125	-0.5770026000976562	3.51715087890625	-4.2266845703125	-2.2735595703125	
291	1.164	0.0	0.0	0.0	0.0	0.006	0.006	0.003	0.003	9.5630399810791	0.09217676391601562	0.4483142608642578	1.201629638671875	-2.83050537109375	-1.922607421875	9.808445651245117	0.13587094421386717	0.24001871643066405	0.057220458984375	-5.084991455078125	-2.658843994140625	9.995193380737303	-0.09816226806640624	-0.025139117431640625	3.59344482421875	-4.5623779296875	-1.678466796875	
292	1.168	0.0	0.0	0.0	0.0	0.006	0.003	0.003	0.006	10.021529598999022	0.14185644836425781	0.06464344482421874	0.171661376953125	-2.29644775390625	-1.42669677734375	10.16338604736328	0.13168109130859373	-0.17657237243652343	0.7781982421875	-4.817962646484375	-3.108978271484375	10.556035119628906	-0.12509703674316405	-0.6979097839355468	3.814697265625	-4.436492919921875	-2.513885498046875	
293	1.172	0.0	0.0	0.0	0.0	0.006	0.006	0.003	0.0	9.643245736694336	0.16998831787109375	0.2932897033691406	0.22125244140625	-2.307891845703125	-1.918792724609375	9.679757312011718	0.4537012145996093	0.19033903198242186	0.274658203125	-4.6844482421875	-2.956390380859375	10.065822329711914	0.1406593475341797	-0.35793314819335936	3.76129150390625	-4.695892333984375	-2.254486083984375	
294	1.176	0.0	0.0	0.0	0.0	0.009000000000000001	0.003	0.006	0.003	9.746196408081055	0.5602431884765625	0.41898529052734373	-0.682830810546875	-1.987457275390625	-1.781463623046875	9.727641345214844	0.37828386230468747	0.22385785522460935	0.461578369140625	-5.0811767578125	-2.410888671875	9.97903251953125	0.1562216583251953	-0.2603694305419922	3.696441650390625	-4.50897216796875	-2.056121826171875	
295	1.18	0.0	0.0	0.0	0.0	0.006	0.006	0.006	0.003	9.750984811401366	-0.11372457885742186	0.34656069030761716	0.17547607421875	-2.170562744140625	-1.529693603515625	9.87608184814453	0.24361001892089842	0.32501287536621093	0.255584716796875	-4.947662353515625	-2.590179443359375	10.296862789916991	-0.04189852905273437	-0.17657237243652343	3.3111572265625	-4.871368408203125	-2.01416015625	
296	1.184	0.0	0.0	0.0	0.0	0.003	0.003	0.003	0.003	10.046668716430663	0.5632359405517577	0.04668693237304687	0.98419189453125	-2.35748291015625	-1.232147216796875	9.903016616821288	0.1801636749267578	0.12210428466796874	0.030517578125	-4.79888916015625	-3.3111572265625	10.158597644042969	-0.08499415893554688	-0.5805939025878906	3.551483154296875	-4.833221435546875	-2.63214111328125	
297	1.188	0.0	0.0	0.0	0.0	0.006	0.006	0.003	0.003	10.014945544433592	0.5027823486328125	0.05686228942871093	4.38690185546875	-4.4708251953125	-0.25177001953125	9.459490759277344	0.4129997863769531	0.6356605407714844	0.12969970703125	-4.634857177734375	-2.826690673828125	9.775525378417969	0.24779987182617186	0.04848258361816406	3.528594970703125	-4.3487548828125	-2.00653076171875	
298	1.192	0.0	0.0	0.0	0.0	0.003	0.006	0.006	0.006	10.05504842224121	0.5380968231201172	0.27952304382324217	1.76239013671875	-3.162384033203125	-0.8392333984375	9.83897172241211	0.29568390502929687	0.3064578125	-0.3204345703125	-4.856109619140625	-2.803802490234375	10.020332498168944	-0.0017956512451171875	-0.4285620971679687	3.582000732421875	-4.642486572265625	-2.09808349609375	
299	1.196	0.0	0.0	0.0	0.0	0.006	0.003	0.003	0.003	10.242394702148436	0.2041056915283203	-0.3076549133300781	5.802154541015625	-5.28717041015625	0.4730224609375	9.970652813720703	0.05746083984375	-0.07062894897460938	0.08392333984375	-4.58526611328125	-2.872467041015625	10.02332525024414	0.022744915771484374	-0.21906945190429686	3.620147705078125	-4.474639892578125	-2.117156982421875	
300	1.2	0.0	0.0	0.0	0.0	0.003	0.003	0.003	0.0	9.996989031982421	0.8924386688232422	0.22685060729980466	6.20269775390625	-5.413055419921875	0.8697509765625	9.668983404541015	0.3286041778564453	0.28969840087890625	-0.247955322265625	-4.573822021484375	-2.803802490234375	9.752780462646484	0.03172317199707031	-0.28371289672851563	3.5247802734375	-4.6234130859375	-2.582550048828125	
301	1.204	0.0	0.0	0.0	0.0	0.006	0.006	0.006	0.003	9.97843396911621	0.16220716247558592	0.023942016601562498	6.244659423828125	-5.67626953125	0.95367431640625	9.647435589599608	0.3381809844970703	0.27174188842773433	-0.09918212890625	-4.69207763671875	-2.689361572265625	9.617508068847656	0.3716998077392578	0.015562310791015624	3.45611572265625	-4.566192626953125	-1.934051513671875	
302	1.208	0.0	0.0	0.0	0.0	0.003	0.006	0.003	0.006	9.858723886108399	-0.28431144714355466	-0.14604630126953125	4.756927490234375	-4.962921142578125	0.48828125	9.854534033203125	0.025139117431640625	-0.09038111267089843	0.20599365234375	-4.95147705078125	-2.79998779296875	10.218452685546874	-0.2567781280517578	-0.47884033203125	3.772735595703125	-4.85992431640625	-2.246856689453125	
303	1.212	0.0	0.0	0.0	0.0	0.006	0.003	0.006	0.009000000000000001	9.954491952514648	-0.12629413757324218	-0.1640028137207031	5.123138427734375	-5.001068115234375	0.133514404296875	9.7162688873291	0.19093758239746092	0.15083470458984374	-0.29754638671875	-4.5928955078125	-2.582550048828125	9.83178911743164	0.1975216369628906	-0.10474632263183593	3.5247802734375	-4.306793212890625	-2.1209716796875	
304	1.216	0.0	0.0	0.0	0.0	0.003	0.006	0.003	0.006	9.588777648925781	-0.04608838195800781	0.35613749694824215	2.208709716796875	-3.570556640625	-0.804901123046875	9.479242922973633	0.3705027069091797	0.2723404388427734	0.553131103515625	-4.95147705078125	-2.89154052734375	9.60793126220703	0.0383072265625	-0.0017956512451171875	3.7841796875	-4.764556884765625	-2.044677734375	
305	1.22	0.0	0.0	0.0	0.0	0.0	0.003	0.003	0.003	9.828796365356444	-0.23642741394042968	0.33399113159179683	0.25177001953125	-2.57110595703125	-1.468658447265625	9.769539874267577	0.18315642700195311	0.31483751831054685	0.415802001953125	-5.008697509765625	-2.99835205078125	9.973645565795898	0.17238251953125	-0.040102877807617184	3.818511962890625	-4.94384765625	-2.17437744140625	
306	1.224	0.0	0.0	0.0	0.0	0.0	0.006	0.006	0.006	9.89523546142578	-0.10953472595214843	0.0017956512451171875	1.506805419921875	-2.811431884765625	-1.178741455078125	9.828197814941406	0.18315642700195311	0.028131869506835935	0.67138671875	-4.7760009765625	-3.147125244140625	10.029310754394531	-0.2861070983886719	-0.14305354919433594	3.795623779296875	-4.55474853515625	-2.437591552734375	
