	time	dac1	dac2	dac3	dac4	adc1.3	adc2.3	adc3.3	adc4.3	imu1accx	imu1accy	imu1accz	imu1gyrox	imu1gyroy	imu1gyroz	imu2accx	imu2accy	imu2accz	imu2gyrox	imu2gyroy	imu2gyroz	imu3accx	imu3accy	imu3accz	imu3gyrox	imu3gyroy	imu3gyroz	log
0	0.0	0.0	0.0	0.0	0.0	0.003	0.006	0.003	0.006	9.887454306030273	0.09935936889648436	-0.022146365356445312	2.7008056640625	-3.814697265625	-0.835418701171875	9.787496386718749	0.2807201446533203	0.0909796630859375	0.347137451171875	-4.90570068359375	-2.750396728515625	10.005368737792969	0.06584054565429687	-0.28790274963378903	3.66973876953125	-4.49371337890625	-2.09808349609375	Estabilizou em 10s, 2171 rpm
1	0.004	0.0	0.0	0.0	0.0	0.003	0.003	0.003	0.003	9.861118087768554	0.08559270935058594	-0.014963760375976562	2.605438232421875	-3.543853759765625	-0.54168701171875	9.776722479248047	0.2519897247314453	0.08559270935058594	0.759124755859375	-5.2032470703125	-2.941131591796875	9.981426721191406	0.028730419921875	-0.30047230834960936	3.7994384765625	-4.6234130859375	-2.1209716796875	Started
2	0.008	0.0	0.0	0.0	0.0	0.003	0.006	0.003	0.003	9.880870251464843	0.1352723937988281	-0.0143652099609375	2.796173095703125	-3.673553466796875	-0.705718994140625	9.78689783630371	0.33578678283691404	0.08439560852050781	0.392913818359375	-4.779815673828125	-2.758026123046875	10.008960040283203	0.10474632263183593	-0.3226186737060547	3.6773681640625	-4.619598388671875	-2.300262451171875	IMU1|LSM6DS3|0x6A|I2C-1|±2g (±19,6m/s²)|±125º/s|400Hz
3	0.012	0.0	0.0	0.0	0.0	0.003	0.006	0.003	0.006	9.88266590270996	0.13287819213867186	-0.013168109130859374	2.689361572265625	-3.528594970703125	-0.9002685546875	9.792284790039062	0.3286041778564453	0.08259995727539061	0.49591064453125	-4.913330078125	-2.857208251953125	10.018536846923828	0.105344873046875	-0.32561142578124996	3.91387939453125	-4.90570068359375	-2.201080322265625	IMU2|LSM6DS3|0x6B|I2C-1|±2g (±19,6m/s²)|±125º/s|400Hz
4	0.016	0.0	0.0	0.0	0.0	0.0	0.003	0.006	0.003	9.887454306030273	0.12389993591308593	0.002992752075195312	2.819061279296875	-3.6773681640625	-0.87738037109375	9.787496386718749	0.2920926025390625	0.08200140686035155	0.469207763671875	-4.8828125	-2.7313232421875	10.013748443603514	0.07900865478515624	-0.3172317199707031	3.96728515625	-4.52423095703125	-2.155303955078125	IMU3|LSM6DS3|0x6B|I2C-2|±2g (±19,6m/s²)|±125º/s|400Hz
5	0.02	0.0	0.0	0.0	0.0	0.006	0.003	0.003	0.006	9.900023864746093	0.17238251953125	-0.006584054565429687	2.6092529296875	-3.650665283203125	-0.91552734375	9.796474642944336	0.35314474487304687	0.08140285644531249	0.217437744140625	-5.016326904296875	-2.826690673828125	10.022128149414062	0.14604630126953125	-0.3220201232910156	3.76129150390625	-4.878997802734375	-2.056121826171875	ADC|ADS1015|0|0|1|0|±6,144 V|2400 SPS
6	0.024	0.0	0.0	0.0	0.0	0.006	0.006	0.003	0.006	9.896432562255859	0.1580173095703125	0.012569558715820313	2.826690673828125	-3.42559814453125	-1.178741455078125	9.791087689208984	0.34237083740234375	0.10714052429199218	0.209808349609375	-4.8828125	-2.666473388671875	10.007164389038085	0.12569558715820311	-0.31543606872558594	3.7078857421875	-4.669189453125	-2.124786376953125	Gen1|Disabled
7	0.028	0.0	0.0	0.0	0.0	0.006	0.003	0.006	0.006	9.87009634399414	0.1388636962890625	0.030526071166992186	2.506256103515625	-3.398895263671875	-0.8087158203125	9.770736975097655	0.29867665710449215	0.13168109130859373	0.469207763671875	-4.99725341796875	-2.8839111328125	9.994594830322265	0.09576806640624999	-0.2914940521240234	3.856658935546875	-4.657745361328125	-2.09808349609375	Gen2|Enabled|Noise|0.0|10.0|1668
8	0.032	0.0	0.0	0.0	0.0	0.003	0.006	0.003	0.003	9.868899243164062	0.1640028137207031	0.05626373901367187	2.712249755859375	-3.54766845703125	-0.751495361328125	9.781510882568359	0.34835634155273437	0.12389993591308593	0.3662109375	-5.054473876953125	-2.64739990234375	10.00417163696289	0.13407529296874998	-0.29867665710449215	3.7078857421875	-5.626678466796875	-2.315521240234375	Gen3|Enabled|Noise|0.0|10.0|128
9	0.036000000000000004	0.0	0.0	0.0	0.0	0.003	0.006	0.006	0.003	9.885060104370117	0.13946224670410157	0.06823474731445311	2.429962158203125	-3.627777099609375	-0.87738037109375	9.789292037963866	0.3238157745361328	0.13467384338378904	0.507354736328125	-4.95147705078125	-2.887725830078125	10.008361489868163	0.11791443176269531	-0.2741360900878906	3.6163330078125	-4.535675048828125	-2.002716064453125	Gen4|Enabled|Noise|0.0|10.0|128
10	0.04	0.0	0.0	0.0	0.0	0.006	0.003	0.006	0.003	9.88266590270996	0.12150573425292968	0.08200140686035155	2.445220947265625	-3.391265869140625	-0.732421875	9.795277542114258	0.28490999755859375	0.1640028137207031	0.37384033203125	-4.863739013671875	-2.941131591796875	10.01075569152832	0.0718260498046875	-0.24061726684570311	3.77655029296875	-4.627227783203125	-2.14385986328125	Ctrl|Disabled
11	0.044	0.0	0.0	0.0	0.0	0.003	0.006	0.003	0.003	9.885658654785155	0.1274912384033203	0.105344873046875	2.41851806640625	-3.520965576171875	-0.823974609375	9.798270294189452	0.3064578125	0.19033903198242186	0.217437744140625	-4.749298095703125	-2.61688232421875	10.008361489868163	0.0987608184814453	-0.22445640563964842	3.74603271484375	-4.50897216796875	-2.15911865234375	
12	0.048	0.0	0.0	0.0	0.0	0.006	0.003	0.006	0.006	9.879673150634765	0.11013327636718749	0.12210428466796874	2.4261474609375	-3.368377685546875	-0.75531005859375	9.789890588378906	0.28909985046386716	0.19931728820800781	0.331878662109375	-4.913330078125	-2.635955810546875	10.001777435302733	0.086191259765625	-0.18914193115234373	3.726959228515625	-4.550933837890625	-2.17437744140625	
13	0.052000000000000005	0.0	0.0	0.0	0.0	0.003	0.003	0.003	0.003	9.878476049804688	0.07601590270996093	0.14305354919433594	2.4871826171875	-3.742218017578125	-0.67138671875	9.785102185058593	0.24361001892089842	0.23403321228027343	0.339508056640625	-4.9591064453125	-2.895355224609375	10.00417163696289	0.04129997863769531	-0.1562216583251953	3.753662109375	-4.528045654296875	-2.185821533203125	
14	0.056	0.0	0.0	0.0	0.0	0.006	0.003	0.003	0.006	9.879673150634765	0.06464344482421874	0.14963760375976562	2.471923828125	-3.7078857421875	-0.885009765625	9.785102185058593	0.2424129180908203	0.24301146850585936	0.37384033203125	-5.1116943359375	-2.838134765625	10.008361489868163	0.04369418029785156	-0.12988544006347655	3.589630126953125	-4.352569580078125	-2.185821533203125	
15	0.06	0.0	0.0	0.0	0.0	0.003	0.006	0.003	0.003	9.890447058105469	0.04848258361816406	0.1514332550048828	2.62451171875	-3.66973876953125	-0.705718994140625	9.78629928588867	0.2088940948486328	0.2555810272216797	-0.095367431640625	-4.61578369140625	-2.689361572265625	10.004770187377929	0.020949264526367185	-0.1304839904785156	3.520965576171875	-4.802703857421875	-2.315521240234375	
16	0.064	0.0	0.0	0.0	0.0	0.003	0.003	0.003	0.009000000000000001	9.878476049804688	0.01975216369628906	0.17477672119140625	2.46429443359375	-3.597259521484375	-0.701904296875	9.785102185058593	0.18315642700195311	0.28311434631347654	0.1220703125	-5.123138427734375	-2.719879150390625	10.006565838623047	-0.017357962036132813	-0.10773907470703124	3.681182861328125	-4.581451416015625	-2.109527587890625	
17	0.068	0.0	0.0	0.0	0.0	0.006	0.003	0.006	0.003	9.867702142333984	0.017357962036132813	0.19393033447265623	2.70843505859375	-3.711700439453125	-0.67901611328125	9.773729727172851	0.18614917907714842	0.28730419921875	0.331878662109375	-4.9285888671875	-2.864837646484375	9.994594830322265	-0.02154781494140625	-0.10594342346191406	3.73077392578125	-4.718780517578125	-2.20489501953125	
18	0.07200000000000001	0.0	0.0	0.0	0.0	0.003	0.003	0.003	0.006	9.874286196899414	0.008978256225585938	0.19153613281249998	2.86102294921875	-3.612518310546875	-0.782012939453125	9.777321029663085	0.15981296081542967	0.28431144714355466	0.02288818359375	-4.665374755859375	-2.803802490234375	10.002974536132811	-0.02633621826171875	-0.11073182678222655	3.688812255859375	-4.8065185546875	-2.376556396484375	
19	0.076	0.0	0.0	0.0	0.0	0.009000000000000001	0.006	0.003	0.003	9.867103591918944	-0.013766659545898436	0.17836802368164062	2.46429443359375	-3.65447998046875	-0.91552734375	9.783905084228515	0.15502455749511718	0.2753331909179687	0.26702880859375	-4.82940673828125	-2.651214599609375	10.00955859069824	-0.052073886108398436	-0.09038111267089843	3.7078857421875	-4.680633544921875	-2.197265625	
20	0.08	0.0	0.0	0.0	0.0	0.006	0.006	0.003	0.003	9.873687646484374	-0.02154781494140625	0.1927332336425781	2.750396728515625	-3.66973876953125	-0.79345703125	9.791686239624022	0.15203180541992187	0.2807201446533203	0.08392333984375	-5.008697509765625	-2.872467041015625	10.01674119567871	-0.04848258361816406	-0.10295067138671875	3.7384033203125	-4.66156005859375	-2.094268798828125	
21	0.084	0.0	0.0	0.0	0.0	0.003	0.006	0.003	0.003	9.898826763916015	-0.02633621826171875	0.18076222534179687	2.780914306640625	-3.56292724609375	-0.568389892578125	9.794678991699218	0.14484920043945312	0.2651578338623047	0.186920166015625	-4.909515380859375	-2.9144287109375	10.011354241943359	-0.05566518859863281	-0.1227028350830078	3.48663330078125	-4.50897216796875	-2.15911865234375	
22	0.088	0.0	0.0	0.0	0.0	0.0	0.003	0.003	0.006	9.889249957275391	-0.02633621826171875	0.1771709228515625	2.552032470703125	-3.77655029296875	-0.89263916015625	9.791686239624022	0.14604630126953125	0.2519897247314453	0.396728515625	-4.924774169921875	-2.8076171875	10.017938296508788	-0.04908113403320312	-0.12988544006347655	3.826141357421875	-4.8828125	-2.155303955078125	
23	0.092	0.0	0.0	0.0	0.0	0.006	0.003	0.003	0.003	9.885060104370117	-0.03172317199707031	0.16699556579589842	2.704620361328125	-3.459930419921875	-0.78582763671875	9.782109432983399	0.13766659545898435	0.2472013214111328	0.213623046875	-5.084991455078125	-3.021240234375	10.007762939453125	-0.062249243164062495	-0.14484920043945312	3.6773681640625	-4.657745361328125	-2.03704833984375	
24	0.096	0.0	0.0	0.0	0.0	0.003	0.003	0.003	0.006	9.883264453125	-0.029927520751953124	0.1466448516845703	2.72369384765625	-3.231048583984375	-0.74005126953125	9.785102185058593	0.1388636962890625	0.2184709014892578	0.45013427734375	-5.023956298828125	-2.67791748046875	10.004770187377929	-0.07601590270996093	-0.1771709228515625	3.84521484375	-4.45556640625	-2.2735595703125	
25	0.1	0.0	0.0	0.0	0.0	0.003	0.003	0.003	0.003	9.893439810180663	-0.030526071166992186	0.12569558715820311	2.628326416015625	-3.635406494140625	-0.946044921875	9.782109432983399	0.1388636962890625	0.1945288848876953	0.286102294921875	-4.791259765625	-2.8533935546875	10.007762939453125	-0.05386953735351562	-0.18614917907714842	3.742218017578125	-4.57000732421875	-2.11334228515625	
26	0.10400000000000001	0.0	0.0	0.0	0.0	0.0	0.006	0.003	0.003	9.894038360595703	-0.028730419921875	0.12689268798828124	2.765655517578125	-3.856658935546875	-0.667572021484375	9.78689783630371	0.13766659545898435	0.19572598571777342	0.30517578125	-5.016326904296875	-2.92205810546875	10.014346994018554	-0.05566518859863281	-0.1945288848876953	3.688812255859375	-4.7607421875	-2.216339111328125	
27	0.108	0.0	0.0	0.0	0.0	0.003	0.003	0.003	0.0	9.87668039855957	-0.028730419921875	0.09636661682128905	2.521514892578125	-3.620147705078125	-0.736236572265625	9.78629928588867	0.1406593475341797	0.16639701538085935	0.20599365234375	-5.115509033203125	-2.910614013671875	9.997587582397461	-0.06045359191894531	-0.21787235107421873	3.59344482421875	-4.985809326171875	-2.201080322265625	
28	0.112	0.0	0.0	0.0	0.0	0.003	0.003	0.006	0.003	9.87727894897461	-0.014963760375976562	0.08499415893554688	2.6702880859375	-3.482818603515625	-0.8392333984375	9.788094937133788	0.14963760375976562	0.15861585998535155	0.0762939453125	-5.001068115234375	-2.7313232421875	9.993397729492187	-0.0526724365234375	-0.22685060729980466	3.72314453125	-4.650115966796875	-2.140045166015625	
29	0.116	0.0	0.0	0.0	0.0	0.006	0.003	0.003	0.006	9.87727894897461	-0.011971008300781249	0.0526724365234375	2.46429443359375	-3.650665283203125	-0.7476806640625	9.78629928588867	0.1580173095703125	0.143652099609375	0.09918212890625	-4.886627197265625	-2.971649169921875	9.993397729492187	-0.04548983154296875	-0.23702596435546874	3.5552978515625	-4.520416259765625	-2.155303955078125	
30	0.12	0.0	0.0	0.0	0.0	0.006	0.003	0.003	0.003	9.88386300354004	-0.011971008300781249	0.0383072265625	2.52532958984375	-3.696441650390625	-0.6256103515625	9.79408044128418	0.17597382202148437	0.13407529296874998	0.34332275390625	-4.741668701171875	-2.895355224609375	10.008960040283203	-0.03890577697753906	-0.26336218261718747	3.818511962890625	-4.7149658203125	-2.08282470703125	
31	0.124	0.0	0.0	0.0	0.0	0.003	0.003	0.006	0.006	9.893439810180663	0.022744915771484374	0.025737667846679687	2.7008056640625	-3.88336181640625	-0.843048095703125	9.80605144958496	0.19871873779296872	0.12689268798828124	0.335693359375	-4.94384765625	-2.9144287109375	10.017938296508788	-0.009576806640625	-0.2807201446533203	3.711700439453125	-4.60052490234375	-2.216339111328125	
32	0.128	0.0	0.0	0.0	0.0	0.006	0.003	0.006	0.006	9.886855755615233	0.037110125732421874	0.009576806640625	2.29644775390625	-3.65447998046875	-0.865936279296875	9.794678991699218	0.21308394775390624	0.10714052429199218	0.30517578125	-5.0811767578125	-2.75421142578125	10.008960040283203	0.003591302490234375	-0.2885013000488281	3.719329833984375	-4.604339599609375	-2.15911865234375	
33	0.132	0.0	0.0	0.0	0.0	0.003	0.003	0.003	0.003	9.890447058105469	0.05686228942871093	0.0017956512451171875	2.407073974609375	-3.5552978515625	-0.7476806640625	9.787496386718749	0.22505495605468748	0.09696516723632811	0.209808349609375	-4.69207763671875	-2.811431884765625	9.999981784057617	0.0143652099609375	-0.2920926025390625	3.910064697265625	-4.741668701171875	-2.185821533203125	
34	0.136	0.0	0.0	0.0	0.0	0.003	0.006	0.003	0.003	9.888651406860351	0.06823474731445311	-0.015562310791015624	2.605438232421875	-3.810882568359375	-0.865936279296875	9.783905084228515	0.2472013214111328	0.09277531433105468	0.2899169921875	-5.100250244140625	-2.849578857421875	10.007164389038085	0.03172317199707031	-0.30406361083984373	3.65447998046875	-4.44793701171875	-2.1820068359375	
35	0.14	0.0	0.0	0.0	0.0	0.0	0.003	0.006	0.003	9.881468801879882	0.08678981018066406	-0.031124621582031248	2.727508544921875	-3.620147705078125	-0.743865966796875	9.78629928588867	0.25737667846679685	0.06643909606933593	0.217437744140625	-4.87518310546875	-2.96783447265625	10.011354241943359	0.05805939025878906	-0.3112462158203125	3.70025634765625	-4.50897216796875	-2.315521240234375	
36	0.14400000000000002	0.0	0.0	0.0	0.0	0.006	0.003	0.003	0.003	9.892242709350585	0.10654197387695312	-0.029328970336914062	2.72369384765625	-3.643035888671875	-0.6256103515625	9.788094937133788	0.2920926025390625	0.05626373901367187	0.19073486328125	-4.886627197265625	-2.895355224609375	10.014945544433592	0.07841010437011718	-0.32142157287597656	3.833770751953125	-4.75311279296875	-2.185821533203125	
37	0.148	0.0	0.0	0.0	0.0	0.003	0.003	0.003	0.006	9.890447058105469	0.13407529296874998	-0.03172317199707031	2.5787353515625	-3.543853759765625	-0.91552734375	9.785102185058593	0.30466216125488277	0.06344634399414062	0.37384033203125	-4.730224609375	-2.72369384765625	10.011952792358398	0.0987608184814453	-0.33039982910156246	3.887176513671875	-4.947662353515625	-2.277374267578125	
38	0.152	0.0	0.0	0.0	0.0	0.006	0.003	0.003	0.006	9.894038360595703	0.15083470458984374	-0.028730419921875	2.7008056640625	-3.513336181640625	-0.713348388671875	9.78629928588867	0.32082302246093747	0.058657940673828124	0.28228759765625	-4.680633544921875	-2.98309326171875	10.018536846923828	0.10893617553710937	-0.34177228698730466	3.631591796875	-4.940032958984375	-2.292633056640625	
39	0.156	0.0	0.0	0.0	0.0	0.003	0.003	0.003	0.003	9.877877499389648	0.16460136413574217	-0.032920272827148434	2.681732177734375	-3.96728515625	-0.713348388671875	9.785102185058593	0.3399766357421875	0.054468087768554684	0.213623046875	-4.69970703125	-2.7618408203125	10.00417163696289	0.13407529296874998	-0.3441664886474609	3.772735595703125	-4.627227783203125	-2.315521240234375	
40	0.16	0.0	0.0	0.0	0.0	0.0	0.003	0.003	0.009000000000000001	9.88266590270996	0.16998831787109375	-0.01975216369628906	2.628326416015625	-3.551483154296875	-0.850677490234375	9.785102185058593	0.35194764404296874	0.05626373901367187	0.52642822265625	-5.084991455078125	-2.90679931640625	9.998784683227539	0.13826514587402344	-0.34536358947753903	3.726959228515625	-4.749298095703125	-2.216339111328125	
41	0.164	0.0	0.0	0.0	0.0	0.003	0.003	0.003	0.003	9.884461553955077	0.17357962036132812	-0.016160861206054686	2.61688232421875	-3.54766845703125	-0.858306884765625	9.787496386718749	0.3477577911376953	0.0652419952392578	0.3204345703125	-4.81414794921875	-2.8228759765625	9.995791931152343	0.14305354919433594	-0.3435679382324219	3.566741943359375	-4.451751708984375	-2.09808349609375	
42	0.168	0.0	0.0	0.0	0.0	0.009000000000000001	0.003	0.003	0.006	9.887454306030273	0.1879448303222656	0.010773907470703125	2.544403076171875	-3.47900390625	-0.5950927734375	9.785102185058593	0.36391865234375	0.08080430603027343	0.469207763671875	-4.741668701171875	-2.8839111328125	10.00417163696289	0.15203180541992187	-0.3232172241210937	3.692626953125	-4.4708251953125	-2.300262451171875	
43	0.17200000000000001	0.0	0.0	0.0	0.0	0.006	0.003	0.003	0.003	9.875483297729492	0.18136077575683593	0.01975216369628906	2.536773681640625	-3.7078857421875	-0.640869140625	9.776123928833007	0.35793314819335936	0.10893617553710937	0.29754638671875	-4.87518310546875	-2.788543701171875	10.007164389038085	0.14784195251464843	-0.3058592620849609	3.627777099609375	-4.444122314453125	-2.14385986328125	
44	0.176	0.0	0.0	0.0	0.0	0.003	0.003	0.006	0.006	9.87727894897461	0.1753752716064453	0.034715924072265626	2.60162353515625	-3.620147705078125	-1.07574462890625	9.785102185058593	0.35194764404296874	0.12808978881835936	0.148773193359375	-4.85992431640625	-2.902984619140625	9.993996279907225	0.13826514587402344	-0.2657563842773437	3.6468505859375	-4.604339599609375	-2.14385986328125	
45	0.18	0.0	0.0	0.0	0.0	0.003	0.003	0.003	0.003	9.88386300354004	0.16639701538085935	0.0526724365234375	2.655029296875	-3.6773681640625	-0.835418701171875	9.775525378417969	0.35134909362792965	0.14544775085449219	0.08392333984375	-4.73785400390625	-2.826690673828125	10.001178884887695	0.14484920043945312	-0.25139117431640623	3.73077392578125	-4.57763671875	-1.911163330078125	
46	0.184	0.0	0.0	0.0	0.0	0.003	0.003	0.006	0.003	9.879673150634765	0.15562310791015624	0.06823474731445311	2.73895263671875	-3.559112548828125	-0.720977783203125	9.784503634643555	0.3315969299316406	0.15442600708007811	0.240325927734375	-4.657745361328125	-2.76947021484375	10.001178884887695	0.12449848632812499	-0.24001871643066405	3.48663330078125	-4.665374755859375	-2.08282470703125	
47	0.188	0.0	0.0	0.0	0.0	0.006	0.003	0.006	0.003	9.881468801879882	0.13467384338378904	0.08918401184082031	2.76947021484375	-3.30352783203125	-0.69427490234375	9.788693487548828	0.3082534637451172	0.1927332336425781	0.2899169921875	-4.92095947265625	-2.803802490234375	10.01015714111328	0.10115502014160156	-0.20649989318847656	3.513336181640625	-4.60052490234375	-1.941680908203125	
48	0.192	0.0	0.0	0.0	0.0	0.003	0.003	0.003	0.006	9.886855755615233	0.12030863342285156	0.11611878051757812	2.559661865234375	-3.56292724609375	-0.614166259765625	9.791686239624022	0.297479556274414	0.20530279235839843	0.431060791015625	-4.73785400390625	-2.716064453125	10.007762939453125	0.10354922180175781	-0.18914193115234373	3.543853759765625	-4.657745361328125	-2.23541259765625	
49	0.196	0.0	0.0	0.0	0.0	0.006	0.003	0.003	0.006	9.875483297729492	0.10175357055664062	0.13407529296874998	2.6702880859375	-3.391265869140625	-0.934600830078125	9.78629928588867	0.2771288421630859	0.2154781494140625	0.293731689453125	-4.741668701171875	-2.750396728515625	10.01075569152832	0.07781155395507812	-0.16340426330566404	3.513336181640625	-4.6234130859375	-2.1820068359375	
50	0.2	0.0	0.0	0.0	0.0	0.006	0.003	0.003	0.006	9.879074600219726	0.09696516723632811	0.14484920043945312	2.5482177734375	-3.498077392578125	-0.728607177734375	9.781510882568359	0.25917232971191406	0.23104046020507812	0.087738037109375	-4.627227783203125	-2.666473388671875	9.997587582397461	0.04668693237304687	-0.1388636962890625	3.54766845703125	-4.528045654296875	-2.170562744140625	
51	0.20400000000000001	0.0	0.0	0.0	0.0	0.006	0.003	0.003	0.006	9.879673150634765	0.08080430603027343	0.14484920043945312	2.475738525390625	-3.765106201171875	-0.675201416015625	9.788693487548828	0.24361001892089842	0.23882161560058593	0.457763671875	-4.8675537109375	-2.704620361328125	9.999383233642577	0.04189852905273437	-0.13407529296874998	3.704071044921875	-4.856109619140625	-1.987457275390625	
52	0.20800000000000002	0.0	0.0	0.0	0.0	0.003	0.003	0.003	0.006	9.880870251464843	0.05626373901367187	0.14963760375976562	2.780914306640625	-3.765106201171875	-0.843048095703125	9.787496386718749	0.21487959899902342	0.2609679809570312	0.14495849609375	-4.8980712890625	-2.681732177734375	10.00417163696289	0.013168109130859374	-0.12389993591308593	3.696441650390625	-4.7454833984375	-2.12860107421875	
53	0.212	0.0	0.0	0.0	0.0	0.0	0.006	0.003	0.003	9.879074600219726	0.033518823242187495	0.17657237243652343	2.5634765625	-3.7384033203125	-0.8087158203125	9.784503634643555	0.19991583862304688	0.2723404388427734	0.247955322265625	-5.05828857421875	-2.74658203125	10.003573086547851	0.0047884033203125	-0.12569558715820311	3.948211669921875	-4.67681884765625	-2.166748046875	
54	0.216	0.0	0.0	0.0	0.0	0.006	0.006	0.003	0.006	9.873687646484374	0.008978256225585938	0.17836802368164062	2.674102783203125	-3.76129150390625	-0.9002685546875	9.782109432983399	0.1945288848876953	0.2651578338623047	0.640869140625	-4.947662353515625	-2.777099609375	9.993397729492187	-0.016160861206054686	-0.12389993591308593	3.849029541015625	-4.96673583984375	-2.170562744140625	
55	0.22	0.0	0.0	0.0	0.0	0.003	0.003	0.006	0.003	9.872490545654296	-0.0005985504150390625	0.17956512451171874	2.506256103515625	-3.570556640625	-0.9307861328125	9.783306533813477	0.17597382202148437	0.26755203552246093	0.164031982421875	-4.886627197265625	-2.796173095703125	10.008960040283203	-0.033518823242187495	-0.1370680450439453	3.9825439453125	-4.718780517578125	-2.223968505859375	
56	0.224	0.0	0.0	0.0	0.0	0.006	0.003	0.003	0.006	9.880870251464843	-0.013766659545898436	0.1753752716064453	2.788543701171875	-3.753662109375	-0.72479248046875	9.785102185058593	0.1592144104003906	0.2645592834472656	0.457763671875	-4.69207763671875	-2.79998779296875	10.004770187377929	-0.04249707946777344	-0.14544775085449219	3.7078857421875	-4.734039306640625	-2.2430419921875	
57	0.228	0.0	0.0	0.0	0.0	0.006	0.003	0.003	0.006	9.87668039855957	-0.020350714111328123	0.17657237243652343	2.74658203125	-3.80706787109375	-0.946044921875	9.789890588378906	0.15203180541992187	0.24361001892089842	0.4730224609375	-4.84466552734375	-2.872467041015625	10.008361489868163	-0.04908113403320312	-0.15023615417480468	3.70025634765625	-4.421234130859375	-2.0599365234375	
58	0.232	0.0	0.0	0.0	0.0	0.003	0.006	0.003	0.006	9.871891995239258	-0.031124621582031248	0.16340426330566404	2.704620361328125	-3.604888916015625	-0.52642822265625	9.790489138793944	0.1292868896484375	0.25258827514648435	0.396728515625	-4.95147705078125	-2.89154052734375	10.002974536132811	-0.05746083984375	-0.15203180541992187	3.688812255859375	-4.520416259765625	-2.197265625	
59	0.23600000000000002	0.0	0.0	0.0	0.0	0.003	0.003	0.006	0.003	9.873687646484374	-0.03591302490234375	0.16280571289062498	2.613067626953125	-3.459930419921875	-0.621795654296875	9.785102185058593	0.12509703674316405	0.24181436767578124	0.362396240234375	-4.81414794921875	-2.826690673828125	10.004770187377929	-0.07003039855957031	-0.1610100616455078	3.84521484375	-4.932403564453125	-2.25067138671875	
60	0.24	0.0	0.0	0.0	0.0	0.003	0.003	0.003	0.006	9.886257205200195	-0.04967968444824218	0.14604630126953125	2.521514892578125	-3.505706787109375	-0.865936279296875	9.783905084228515	0.12569558715820311	0.24959552307128904	0.118255615234375	-4.795074462890625	-2.58636474609375	10.005368737792969	-0.07841010437011718	-0.16998831787109375	3.60870361328125	-4.791259765625	-2.155303955078125	
61	0.244	0.0	0.0	0.0	0.0	0.006	0.006	0.003	0.006	9.879074600219726	-0.059256491088867186	0.12689268798828124	2.490997314453125	-3.80706787109375	-0.934600830078125	9.788094937133788	0.1149216796875	0.20350714111328125	0.202178955078125	-4.978179931640625	-2.925872802734375	10.001777435302733	-0.08798691101074219	-0.1879448303222656	3.57818603515625	-4.57763671875	-2.0904541015625	
62	0.248	0.0	0.0	0.0	0.0	0.003	0.006	0.003	0.0	9.882067352294921	-0.06045359191894531	0.1131260284423828	2.666473388671875	-3.749847412109375	-0.629425048828125	9.788693487548828	0.11671733093261719	0.19931728820800781	0.240325927734375	-5.0811767578125	-2.98309326171875	10.007762939453125	-0.08918401184082031	-0.18375497741699218	3.719329833984375	-4.550933837890625	-2.08282470703125	
63	0.252	0.0	0.0	0.0	0.0	0.006	0.003	0.003	0.003	9.881468801879882	-0.05626373901367187	0.0987608184814453	2.681732177734375	-3.475189208984375	-0.873565673828125	9.788094937133788	0.1131260284423828	0.17836802368164062	0.385284423828125	-4.852294921875	-2.811431884765625	10.011354241943359	-0.076614453125	-0.19991583862304688	3.71551513671875	-4.669189453125	-2.18963623046875	
64	0.256	0.0	0.0	0.0	0.0	0.003	0.003	0.006	0.006	9.874286196899414	-0.03232172241210937	0.08858546142578125	2.55584716796875	-3.597259521484375	-0.820159912109375	9.795277542114258	0.13168109130859373	0.17298106994628906	0.110626220703125	-4.955291748046875	-2.948760986328125	10.008960040283203	-0.06883329772949218	-0.2136824981689453	3.734588623046875	-4.596710205078125	-2.0599365234375	
65	0.26	0.0	0.0	0.0	0.0	0.006	0.003	0.003	0.003	9.884461553955077	-0.032920272827148434	0.07721300354003906	2.532958984375	-3.589630126953125	-0.766754150390625	9.797671743774414	0.14305354919433594	0.16041151123046873	0.30517578125	-4.913330078125	-2.6702880859375	10.006565838623047	-0.07302315063476562	-0.22086510314941404	3.7689208984375	-4.657745361328125	-2.3040771484375	
66	0.264	0.0	0.0	0.0	0.0	0.003	0.003	0.006	0.006	9.879074600219726	-0.02633621826171875	0.058657940673828124	2.70843505859375	-3.597259521484375	-0.75531005859375	9.785102185058593	0.14903905334472656	0.1406593475341797	0.35858154296875	-4.85992431640625	-2.89154052734375	10.002375985717773	-0.05327098693847656	-0.229843359375	3.72314453125	-4.756927490234375	-2.178192138671875	
67	0.268	0.0	0.0	0.0	0.0	0.003	0.003	0.003	0.006	9.874286196899414	-0.011971008300781249	0.04608838195800781	2.788543701171875	-3.658294677734375	-0.759124755859375	9.788693487548828	0.1640028137207031	0.12689268798828124	0.244140625	-4.802703857421875	-2.75421142578125	10.00417163696289	-0.037708676147460936	-0.24779987182617186	3.543853759765625	-4.665374755859375	-2.048492431640625	
68	0.272	0.0	0.0	0.0	0.0	0.006	0.003	0.003	0.0	9.885060104370117	0.002992752075195312	0.013168109130859374	2.490997314453125	-3.719329833984375	-0.72479248046875	9.788693487548828	0.17477672119140625	0.11851298217773437	0.48065185546875	-4.848480224609375	-2.704620361328125	10.000580334472655	-0.02154781494140625	-0.27353753967285155	3.795623779296875	-4.8370361328125	-2.18963623046875	
69	0.276	0.0	0.0	0.0	0.0	0.0	0.003	0.006	0.003	9.894038360595703	0.023343466186523436	0.017956512451171875	2.460479736328125	-3.604888916015625	-0.7476806640625	9.788693487548828	0.19033903198242186	0.1083376251220703	0.3509521484375	-4.726409912109375	-2.902984619140625	10.008361489868163	-0.0017956512451171875	-0.2950853546142578	3.6163330078125	-4.638671875	-2.246856689453125	
70	0.28	0.0	0.0	0.0	0.0	0.003	0.003	0.006	0.006	9.890447058105469	0.04369418029785156	0.012569558715820313	2.750396728515625	-3.971099853515625	-0.782012939453125	9.787496386718749	0.2262520568847656	0.08978256225585937	0.255584716796875	-5.1727294921875	-2.956390380859375	10.014346994018554	0.008978256225585938	-0.30526071166992186	3.864288330078125	-4.72259521484375	-2.25067138671875	
71	0.28400000000000003	0.0	0.0	0.0	0.0	0.006	0.003	0.003	0.003	9.883264453125	0.06344634399414062	-0.006584054565429687	2.6397705078125	-3.650665283203125	-0.640869140625	9.78629928588867	0.2472013214111328	0.0796072052001953	0.316619873046875	-4.657745361328125	-2.658843994140625	10.006565838623047	0.030526071166992186	-0.31483751831054685	3.597259521484375	-4.52423095703125	-2.117156982421875	
72	0.28800000000000003	0.0	0.0	0.0	0.0	0.003	0.003	0.006	0.003	9.884461553955077	0.09038111267089843	-0.008379705810546874	2.6702880859375	-3.421783447265625	-0.86212158203125	9.788693487548828	0.25797522888183594	0.07302315063476562	0.385284423828125	-5.096435546875	-2.925872802734375	10.005368737792969	0.05087678527832031	-0.32501287536621093	3.60107421875	-4.6844482421875	-2.25067138671875	
73	0.292	0.0	0.0	0.0	0.0	0.006	0.006	0.006	0.003	9.880870251464843	0.10773907470703124	-0.016759411621093748	2.330780029296875	-3.604888916015625	-0.8087158203125	9.788693487548828	0.2825157958984375	0.061650692749023434	0.423431396484375	-4.95147705078125	-2.864837646484375	10.005368737792969	0.07003039855957031	-0.3315969299316406	3.875732421875	-4.52423095703125	-2.201080322265625	
74	0.296	0.0	0.0	0.0	0.0	0.009000000000000001	0.003	0.003	0.006	9.888651406860351	0.12868833923339842	-0.013168109130859374	2.7313232421875	-3.711700439453125	-0.812530517578125	9.784503634643555	0.2980781066894531	0.0652419952392578	0.46539306640625	-4.7760009765625	-2.95257568359375	10.012551342773437	0.0909796630859375	-0.33399113159179683	3.757476806640625	-4.791259765625	-2.048492431640625	
75	0.3	0.0	0.0	0.0	0.0	0.003	0.006	0.006	0.006	9.88386300354004	0.14125789794921875	-0.013168109130859374	2.727508544921875	-3.7078857421875	-0.81634521484375	9.785700735473633	0.3142389678955078	0.06344634399414062	0.087738037109375	-4.7454833984375	-2.811431884765625	10.00955859069824	0.11552023010253906	-0.3184288208007812	3.742218017578125	-4.66156005859375	-2.292633056640625	
76	0.304	0.0	0.0	0.0	0.0	0.003	0.003	0.006	0.003	9.885658654785155	0.15382745666503905	-0.010175357055664061	2.574920654296875	-3.658294677734375	-0.873565673828125	9.78629928588867	0.3220201232910156	0.08918401184082031	0.308990478515625	-4.924774169921875	-2.895355224609375	10.017938296508788	0.11851298217773437	-0.3178302703857422	3.8299560546875	-4.78363037109375	-2.2125244140625	
77	0.308	0.0	0.0	0.0	0.0	0.006	0.003	0.003	0.006	9.88386300354004	0.16340426330566404	-0.004189852905273437	2.719879150390625	-3.620147705078125	-0.7171630859375	9.783905084228515	0.3399766357421875	0.08080430603027343	0.45013427734375	-4.993438720703125	-2.7008056640625	10.002974536132811	0.12988544006347655	-0.3136404174804687	3.673553466796875	-4.665374755859375	-2.3040771484375	
78	0.312	0.0	0.0	0.0	0.0	0.006	0.003	0.003	0.003	9.885060104370117	0.16460136413574217	0.0053869537353515625	2.460479736328125	-3.444671630859375	-0.873565673828125	9.783905084228515	0.3274070770263672	0.1149216796875	0.026702880859375	-4.5166015625	-2.971649169921875	10.006565838623047	0.12569558715820311	-0.3076549133300781	3.68499755859375	-4.69970703125	-2.23541259765625	
79	0.316	0.0	0.0	0.0	0.0	0.006	0.006	0.003	0.006	9.889249957275391	0.17417817077636719	0.02693476867675781	2.689361572265625	-3.387451171875	-0.81634521484375	9.797073193359374	0.34057518615722654	0.10594342346191406	0.17547607421875	-4.82177734375	-2.8076171875	10.017938296508788	0.11791443176269531	-0.30885201416015623	3.574371337890625	-4.383087158203125	-2.033233642578125	
80	0.32	0.0	0.0	0.0	0.0	0.006	0.003	0.006	0.003	9.878476049804688	0.21308394775390624	0.016759411621093748	2.73895263671875	-3.543853759765625	-0.67138671875	9.783905084228515	0.40462008056640625	0.13766659545898435	0.164031982421875	-4.8675537109375	-2.773284912109375	9.995791931152343	0.20649989318847656	-0.25139117431640623	3.704071044921875	-4.619598388671875	-1.819610595703125	
81	0.324	0.0	0.0	0.0	0.0	0.006	0.003	0.003	0.006	9.900622415161132	0.10953472595214843	0.062249243164062495	2.384185791015625	-3.437042236328125	-1.171112060546875	9.80724855041504	0.23702596435546874	0.12150573425292968	0.1068115234375	-4.76837158203125	-2.956390380859375	10.018536846923828	0.017956512451171875	-0.2759317413330078	3.66973876953125	-4.61578369140625	-2.025604248046875	
82	0.328	0.0	0.0	0.0	0.0	0.006	0.003	0.003	0.006	9.885658654785155	0.21487959899902342	0.031124621582031248	2.777099609375	-3.696441650390625	-0.782012939453125	9.796474642944336	0.4291606475830078	0.17836802368164062	0.476837158203125	-4.856109619140625	-2.773284912109375	9.997587582397461	0.18435352783203124	-0.20470424194335937	3.7384033203125	-4.6539306640625	-2.346038818359375	
83	0.332	0.0	0.0	0.0	0.0	0.003	0.006	0.006	0.003	9.865906491088866	0.17956512451171874	0.07062894897460938	2.532958984375	-3.4637451171875	-0.45013427734375	9.784503634643555	0.3142389678955078	0.1801636749267578	0.171661376953125	-4.58526611328125	-2.75421142578125	10.020931048583984	0.06643909606933593	-0.2424129180908203	3.60107421875	-4.543304443359375	-2.254486083984375	
84	0.336	0.0	0.0	0.0	0.0	0.0	0.003	0.003	0.003	9.886855755615233	0.15322890625	0.040701428222656245	2.597808837890625	-3.50189208984375	-0.6866455078125	9.789890588378906	0.3489548919677734	0.20171148986816406	0.48828125	-4.749298095703125	-2.78472900390625	9.982623822021484	0.0939724151611328	-0.17357962036132812	3.528594970703125	-4.459381103515625	-2.170562744140625	
85	0.34	0.0	0.0	0.0	0.0	0.003	0.003	0.006	0.003	9.87668039855957	0.14963760375976562	0.10893617553710937	2.872467041015625	-3.56292724609375	-0.751495361328125	9.78629928588867	0.27832594299316404	0.2136824981689453	0.34332275390625	-4.94384765625	-2.8076171875	9.961076007080077	0.07242460021972656	-0.10115502014160156	3.72314453125	-4.825592041015625	-2.384185791015625	
86	0.34400000000000003	0.0	0.0	0.0	0.0	0.003	0.006	0.003	0.006	9.87727894897461	0.18914193115234373	0.06344634399414062	2.796173095703125	-3.368377685546875	-0.90789794921875	9.757568865966796	0.38845921936035155	0.2346317626953125	0.392913818359375	-4.756927490234375	-2.811431884765625	9.977236868286132	0.17357962036132812	-0.1388636962890625	3.528594970703125	-4.5928955078125	-2.1820068359375	
87	0.34800000000000003	0.0	0.0	0.0	0.0	0.006	0.003	0.006	0.006	9.87009634399414	0.1227028350830078	0.11791443176269531	2.8076171875	-3.879547119140625	-0.40435791015625	9.78629928588867	0.17657237243652343	0.22505495605468748	0.186920166015625	-4.99725341796875	-2.765655517578125	9.913191973876952	0.015562310791015624	-0.0987608184814453	3.742218017578125	-4.57763671875	-2.12860107421875	
88	0.352	0.0	0.0	0.0	0.0	0.0	0.003	0.006	0.003	9.90122096557617	0.09337386474609374	0.1879448303222656	3.27301025390625	-3.826141357421875	-0.637054443359375	9.753977563476562	0.3280056274414062	0.2561795776367187	0.5035400390625	-4.650115966796875	-2.933502197265625	9.99220062866211	0.1131260284423828	-0.12030863342285156	3.79180908203125	-4.52423095703125	-2.239227294921875	
89	0.356	0.0	0.0	0.0	0.0	0.009000000000000001	0.003	0.003	0.003	9.890447058105469	0.1514332550048828	0.10893617553710937	3.0059814453125	-3.91387939453125	-0.423431396484375	9.784503634643555	0.2861070983886719	0.1897404815673828	0.51116943359375	-4.894256591796875	-2.685546875	9.909600671386718	0.06464344482421874	-0.09816226806640624	3.589630126953125	-4.5928955078125	-2.101898193359375	
90	0.36	0.0	0.0	0.0	0.0	0.006	0.003	0.003	0.006	9.89583401184082	0.07302315063476562	0.21428104858398436	3.261566162109375	-4.085540771484375	-0.640869140625	9.724648593139648	0.28909985046386716	0.2609679809570312	0.247955322265625	-4.932403564453125	-3.078460693359375	9.954491952514648	-0.02154781494140625	-0.14245499877929688	3.726959228515625	-4.581451416015625	-2.017974853515625	
91	0.364	0.0	0.0	0.0	0.0	0.006	0.006	0.003	0.003	9.879074600219726	0.08798691101074219	0.0017956512451171875	2.349853515625	-3.124237060546875	-0.885009765625	9.789292037963866	0.19931728820800781	0.18315642700195311	0.22125244140625	-4.96673583984375	-2.92205810546875	9.935936889648437	-0.01975216369628906	-0.08259995727539061	3.7078857421875	-4.8065185546875	-2.254486083984375	
92	0.368	0.0	0.0	0.0	0.0	0.003	0.003	0.006	0.006	9.888651406860351	0.04129997863769531	0.19871873779296872	3.42559814453125	-3.814697265625	-0.52642822265625	9.79946739501953	0.1801636749267578	0.21966800231933592	0.431060791015625	-5.084991455078125	-3.0364990234375	9.97843396911621	-0.011971008300781249	-0.15023615417480468	3.82232666015625	-4.52423095703125	-2.46429443359375	
93	0.372	0.0	0.0	0.0	0.0	0.006	0.003	0.003	0.009000000000000001	9.854534033203125	-0.08319850769042968	0.17956512451171874	1.9378662109375	-3.3721923828125	-0.8697509765625	9.75517466430664	0.17417817077636719	0.1879448303222656	0.32806396484375	-4.85992431640625	-2.410888671875	9.996390481567381	0.09217676391601562	-0.1352723937988281	3.734588623046875	-4.425048828125	-1.86920166015625	
94	0.376	0.0	0.0	0.0	0.0	0.006	0.006	0.006	0.003	9.897031112670899	-0.025737667846679687	0.2232593048095703	3.131866455078125	-3.875732421875	-0.55694580078125	9.791087689208984	0.11372457885742186	0.23403321228027343	0.31280517578125	-4.89044189453125	-3.31878662109375	9.962871658325195	-0.07122749938964844	-0.14724340209960937	3.6163330078125	-4.871368408203125	-2.38037109375	
95	0.38	0.0	0.0	0.0	0.0	0.006	0.003	0.003	0.003	9.866505041503906	-0.1292868896484375	0.17896657409667968	2.0751953125	-3.76129150390625	-0.90789794921875	9.797073193359374	0.23582886352539062	0.3082534637451172	0.202178955078125	-4.974365234375	-2.60162353515625	10.020931048583984	0.09277531433105468	-0.14245499877929688	3.50189208984375	-4.5623779296875	-1.972198486328125	
96	0.384	0.0	0.0	0.0	0.0	0.003	0.006	0.003	0.003	9.904812268066406	-0.24899697265624998	-0.025737667846679687	1.789093017578125	-3.2958984375	-1.239776611328125	9.788094937133788	0.08798691101074219	0.1927332336425781	0.209808349609375	-4.840850830078125	-2.956390380859375	10.117896215820313	-0.28311434631347654	-0.3064578125	3.70025634765625	-4.688262939453125	-2.368927001953125	
97	0.388	0.0	0.0	0.0	0.0	0.003	0.003	0.006	0.003	9.84555577697754	-0.1406593475341797	0.1771709228515625	2.048492431640625	-3.269195556640625	-1.056671142578125	9.775525378417969	0.229843359375	0.28730419921875	0.125885009765625	-5.344390869140625	-2.864837646484375	10.006565838623047	0.07900865478515624	-0.12689268798828124	3.849029541015625	-4.81414794921875	-1.911163330078125	
98	0.392	0.0	0.0	0.0	0.0	0.003	0.003	0.003	0.003	9.91438907470703	-0.29269115295410153	-0.047285482788085934	1.71661376953125	-3.292083740234375	-1.186370849609375	9.802460147094726	0.10953472595214843	0.18315642700195311	0.278472900390625	-4.779815673828125	-2.593994140625	10.150217938232421	-0.277727392578125	-0.3298012786865234	3.818511962890625	-4.57763671875	-2.246856689453125	
99	0.396	0.0	0.0	0.0	0.0	0.006	0.003	0.003	0.003	9.85094273071289	-0.16340426330566404	0.15083470458984374	1.85394287109375	-3.314971923828125	-0.995635986328125	9.78031378173828	0.20051438903808594	0.25797522888183594	0.240325927734375	-4.8980712890625	-2.64739990234375	10.01733974609375	0.06344634399414062	-0.16041151123046873	3.582000732421875	-4.558563232421875	-1.97601318359375	
100	0.4	0.0	0.0	0.0	0.0	0.003	0.003	0.003	0.003	9.91498762512207	-0.3220201232910156	-0.08020575561523437	1.667022705078125	-3.063201904296875	-1.209259033203125	9.85752678527832	-0.09157821350097656	0.09756371765136718	0.48065185546875	-5.054473876953125	-2.925872802734375	10.147823736572265	-0.3298012786865234	-0.35613749694824215	3.536224365234375	-4.337310791015625	-2.2430419921875	
101	0.404	0.0	0.0	0.0	0.0	0.006	0.003	0.003	0.003	9.789292037963866	0.15442600708007811	0.20470424194335937	2.681732177734375	-3.41033935546875	-0.789642333984375	9.789292037963866	0.26216508178710934	0.25438392639160157	0.5340576171875	-5.0201416015625	-2.666473388671875	10.067617980957031	0.1975216369628906	-0.1514332550048828	3.387451171875	-4.688262939453125	-2.06756591796875	
102	0.40800000000000003	0.0	0.0	0.0	0.0	0.009000000000000001	0.003	0.006	0.003	9.920374578857421	-0.34117373657226563	-0.10354922180175781	1.44195556640625	-3.047943115234375	-1.5716552734375	9.886257205200195	-0.08738836059570312	0.04608838195800781	0.499725341796875	-4.833221435546875	-2.696990966796875	10.17715270690918	-0.3387795349121094	-0.4112041351318359	3.71551513671875	-4.665374755859375	-2.376556396484375	
103	0.41200000000000003	0.0	0.0	0.0	0.0	0.003	0.006	0.003	0.006	9.79348189086914	0.20171148986816406	0.16819266662597654	2.605438232421875	-3.4332275390625	-0.583648681640625	9.76235726928711	0.3603273498535156	0.26396073303222656	0.60272216796875	-4.962921142578125	-2.895355224609375	10.049661468505859	0.20231004028320312	-0.1927332336425781	3.77655029296875	-4.73785400390625	-2.094268798828125	
104	0.41600000000000004	0.0	0.0	0.0	0.0	0.006	0.003	0.003	0.003	9.90241806640625	-0.3232172241210937	-0.1370680450439453	2.902984619140625	-3.85284423828125	-0.640869140625	9.886257205200195	-0.06105214233398437	0.029927520751953124	0.553131103515625	-5.016326904296875	-2.864837646484375	10.067617980957031	-0.28311434631347654	-0.3232172241210937	3.66973876953125	-4.764556884765625	-1.9073486328125	
105	0.42	0.0	0.0	0.0	0.0	0.003	0.003	0.003	0.003	9.823409411621093	0.2741360900878906	0.13407529296874998	2.64739990234375	-3.314971923828125	-0.896453857421875	9.765948571777344	0.39743747558593745	0.2507926239013672	0.431060791015625	-5.153656005859375	-2.773284912109375	10.070012182617187	0.24061726684570311	-0.229843359375	3.66973876953125	-4.467010498046875	-2.05230712890625	
106	0.424	0.0	0.0	0.0	0.0	0.003	0.006	0.003	0.003	9.942520944213866	0.12629413757324218	0.14903905334472656	3.406524658203125	-3.635406494140625	-0.32806396484375	9.846154327392577	-0.034715924072265626	0.06105214233398437	0.301361083984375	-4.81414794921875	-2.72369384765625	10.037091909790039	-0.22864625854492185	-0.3603273498535156	3.475189208984375	-4.642486572265625	-1.9378662109375	
107	0.428	0.0	0.0	0.0	0.0	0.003	0.003	0.006	0.003	9.818022457885741	0.3274070770263672	0.11432312927246092	2.254486083984375	-3.56292724609375	-0.766754150390625	9.73661960144043	0.4644751220703125	0.26396073303222656	0.19073486328125	-4.55474853515625	-2.57110595703125	9.910199221801758	0.18315642700195311	-0.21966800231933592	3.76129150390625	-4.50897216796875	-2.34222412109375	
108	0.432	0.0	0.0	0.0	0.0	0.009000000000000001	0.003	0.003	0.006	9.9461122467041	0.19393033447265623	0.14604630126953125	3.688812255859375	-4.0130615234375	-0.17547607421875	9.854534033203125	-0.04848258361816406	0.008379705810546874	0.16021728515625	-4.566192626953125	-2.9449462890625	10.047267266845703	-0.2214636535644531	-0.36930560607910157	3.589630126953125	-4.817962646484375	-2.0751953125	
109	0.436	0.0	0.0	0.0	0.0	-0.003	0.003	0.003	0.003	9.910199221801758	0.2555810272216797	-0.11372457885742186	3.925323486328125	-4.45556640625	-0.370025634765625	9.7162688873291	0.4333505004882812	0.08678981018066406	0.377655029296875	-4.5928955078125	-3.047943115234375	9.904812268066406	0.25139117431640623	-0.22744915771484372	3.803253173828125	-4.711151123046875	-2.674102783203125	
110	0.44	0.0	0.0	0.0	0.0	0.012	0.003	0.006	0.003	9.937732540893554	0.2693476867675781	0.14963760375976562	3.864288330078125	-3.91387939453125	0.003814697265625	9.852139831542969	-0.028131869506835935	0.016160861206054686	0.3662109375	-4.73785400390625	-2.685546875	10.028712203979492	-0.18255787658691405	-0.354341845703125	3.6773681640625	-4.673004150390625	-1.125335693359375	
111	0.444	0.0	0.0	0.0	0.0	0.006	0.003	0.003	0.003	9.90241806640625	0.2561795776367187	-0.08798691101074219	4.329681396484375	-4.53948974609375	-0.2593994140625	9.718064538574218	0.43933600463867184	0.10235212097167969	0.57220458984375	-5.035400390625	-3.0517578125	9.907206469726562	0.2765302917480469	-0.2166752502441406	3.520965576171875	-4.547119140625	-2.60162353515625	
112	0.448	0.0	0.0	0.0	0.0	0.003	0.003	0.003	0.006	9.94671079711914	0.3022679595947265	0.13467384338378904	4.364013671875	-4.192352294921875	0.186920166015625	9.721655841064452	0.27293898925781246	0.040701428222656245	0.1373291015625	-4.985809326171875	-2.483367919921875	9.879074600219726	0.08858546142578125	-0.2603694305419922	3.505706787109375	-4.43267822265625	-1.941680908203125	
113	0.452	0.0	0.0	0.0	0.0	0.003	0.003	0.003	0.006	9.890447058105469	0.28311434631347654	-0.04129997863769531	4.642486572265625	-4.650115966796875	-0.186920166015625	9.705494979858399	0.4704606262207031	0.12808978881835936	0.4730224609375	-4.703521728515625	-3.143310546875	9.880271701049804	0.3112462158203125	-0.20231004028320312	3.681182861328125	-4.856109619140625	-2.471923828125	
114	0.456	0.0	0.0	0.0	0.0	0.003	0.006	0.003	0.003	9.846752877807617	-0.022146365356445312	-0.19572598571777342	2.223968505859375	-3.566741943359375	-0.698089599609375	9.718663088989258	0.2693476867675781	0.05985504150390625	0.30517578125	-4.924774169921875	-2.414703369140625	9.859322436523437	0.08918401184082031	-0.23642741394042968	3.673553466796875	-4.772186279296875	-1.949310302734375	
115	0.46	0.0	0.0	0.0	0.0	0.009000000000000001	0.006	0.006	0.006	9.865307940673828	0.29388825378417965	0.013168109130859374	4.974365234375	-4.947662353515625	-0.186920166015625	9.795277542114258	0.3321954803466797	0.10175357055664062	0.164031982421875	-4.730224609375	-3.31878662109375	9.952097750854492	-0.006584054565429687	-0.26815058593749996	3.509521484375	-4.23431396484375	-2.593994140625	
116	0.464	0.0	0.0	0.0	0.0	0.003	0.003	0.003	0.003	9.829394915771484	-0.029927520751953124	-0.18614917907714842	2.12860107421875	-3.24249267578125	-0.720977783203125	9.730035546875	0.2561795776367187	0.05746083984375	0.133514404296875	-5.001068115234375	-2.29644775390625	9.8694977935791	0.09038111267089843	-0.20769699401855468	3.6163330078125	-4.67681884765625	-1.953125	
117	0.468	0.0	0.0	0.0	0.0	0.003	0.003	0.003	0.003	9.859322436523437	0.2813186950683594	0.06883329772949218	1.636505126953125	-3.143310546875	-1.209259033203125	9.788693487548828	0.3345896820068359	0.1370680450439453	0.354766845703125	-4.45556640625	-3.33404541015625	9.951499200439452	-0.02633621826171875	-0.2316390106201172	3.89862060546875	-4.5166015625	-2.658843994140625	
118	0.47200000000000003	0.0	0.0	0.0	0.0	0.006	0.006	0.003	0.003	9.83238766784668	-0.002992752075195312	-0.14963760375976562	1.9073486328125	-3.406524658203125	-0.972747802734375	9.738415252685547	0.2747346405029297	0.08918401184082031	0.12969970703125	-5.11932373046875	-2.5634765625	10.013149893188476	0.32920272827148434	-0.11911153259277343	3.498077392578125	-4.360198974609375	-1.77764892578125	
119	0.47600000000000003	0.0	0.0	0.0	0.0	0.003	0.003	0.003	0.006	9.803058697509766	-0.2759317413330078	0.01975216369628906	1.224517822265625	-3.1585693359375	-1.88446044921875	9.788693487548828	0.3094505645751953	0.16879121704101563	0.46539306640625	-4.611968994140625	-3.170013427734375	9.956287603759765	-0.040102877807617184	-0.21188684692382811	3.841400146484375	-4.398345947265625	-2.4261474609375	
120	0.48	0.0	0.0	0.0	0.0	0.003	0.006	0.003	0.003	9.80066449584961	-0.009576806640625	-0.08798691101074219	2.025604248046875	-3.444671630859375	-1.003265380859375	9.809044201660155	0.535702621459961	0.19931728820800781	-0.0457763671875	-5.107879638671875	-2.5482177734375	10.01015714111328	0.29448680419921874	-0.08858546142578125	3.719329833984375	-4.6234130859375	-2.05230712890625	
121	0.484	0.0	0.0	0.0	0.0	0.003	0.003	0.003	0.003	9.792284790039062	-0.3028665100097656	0.033518823242187495	0.91552734375	-2.811431884765625	-1.68609619140625	9.775525378417969	0.34656069030761716	0.19812018737792966	0.64849853515625	-4.8065185546875	-3.376007080078125	9.955090502929687	-0.06404489440917968	-0.18914193115234373	3.719329833984375	-4.703521728515625	-2.17437744140625	
122	0.488	0.0	0.0	0.0	0.0	0.009000000000000001	0.003	0.003	0.003	9.76116016845703	0.26815058593749996	0.4531026641845703	0.67901611328125	-2.269744873046875	-1.194000244140625	9.803058697509766	0.5374982727050781	0.19153613281249998	0.072479248046875	-5.260467529296875	-2.4871826171875	10.012551342773437	0.28790274963378903	-0.06344634399414062	3.528594970703125	-4.657745361328125	-1.651763916015625	
123	0.492	0.0	0.0	0.0	0.0	0.003	0.003	0.003	0.003	9.784503634643555	-0.3321954803466797	0.02693476867675781	0.949859619140625	-2.6702880859375	-1.77764892578125	9.931148486328125	-0.023942016601562498	0.013766659545898436	0.54931640625	-5.062103271484375	-3.017425537109375	10.247781655883788	-0.3333925811767578	-0.5045779998779296	3.871917724609375	-4.604339599609375	-1.865386962890625	
124	0.496	0.0	0.0	0.0	0.0	0.006	0.003	0.003	0.006	9.767145672607422	0.24181436767578124	0.45190556335449217	0.84686279296875	-2.758026123046875	-1.2054443359375	9.802460147094726	0.5434837768554687	0.22685060729980466	0.16021728515625	-5.06591796875	-2.628326416015625	10.01075569152832	0.2442085693359375	-0.06883329772949218	3.406524658203125	-4.6539306640625	-1.85394287109375	
125	0.5	0.0	0.0	0.0	0.0	0.003	0.006	0.006	0.003	9.788693487548828	-0.3597287994384765	0.011372457885742187	0.835418701171875	-2.58636474609375	-1.89208984375	9.945513696289062	0.001197100830078125	-0.002992752075195312	0.40435791015625	-4.95147705078125	-3.055572509765625	10.251971508789062	-0.3268085266113281	-0.5159504577636719	3.467559814453125	-4.5318603515625	-2.2735595703125	
126	0.504	0.0	0.0	0.0	0.0	0.003	0.003	0.003	0.003	9.769539874267577	0.21128829650878905	0.4800374328613281	0.74005126953125	-2.368927001953125	-1.24359130859375	9.655815295410155	0.5327098693847656	0.5297171173095703	0.331878662109375	-5.054473876953125	-2.513885498046875	10.079588989257813	0.489015689086914	-0.22086510314941404	3.68499755859375	-4.67681884765625	-2.101898193359375	
127	0.508	0.0	0.0	0.0	0.0	0.003	0.006	0.006	0.009000000000000001	9.941922393798828	-0.11552023010253906	0.20649989318847656	0.9918212890625	-2.78472900390625	-1.2664794921875	9.961076007080077	-0.09277531433105468	-0.011372457885742187	0.545501708984375	-4.87518310546875	-3.0517578125	10.268730920410155	-0.411802685546875	-0.5153519073486328	3.70025634765625	-4.608154296875	-2.349853515625	
128	0.512	0.0	0.0	0.0	0.0	0.006	0.006	0.003	0.006	9.775525378417969	0.1849520782470703	0.4531026641845703	0.652313232421875	-2.105712890625	-1.194000244140625	9.661800799560547	0.5518634826660156	0.5548562347412109	-0.186920166015625	-4.688262939453125	-2.506256103515625	10.08018753967285	0.5201403106689453	-0.21727380065917967	3.50189208984375	-4.64630126953125	-1.89971923828125	
129	0.516	0.0	0.0	0.0	0.0	0.003	0.003	0.006	0.006	9.944316595458984	-0.13108254089355467	0.21428104858398436	0.69427490234375	-2.651214599609375	-1.10626220703125	9.950302099609374	-0.3489548919677734	0.02154781494140625	0.324249267578125	-4.901885986328125	-2.87628173828125	10.041281762695311	-0.25917232971191406	-0.25438392639160157	3.635406494140625	-4.779815673828125	-2.0599365234375	
130	0.52	0.0	0.0	0.0	0.0	0.003	0.003	0.003	0.003	9.778518130493163	0.17896657409667968	0.4165910888671875	4.604339599609375	-4.2572021484375	-0.3204345703125	9.661800799560547	0.49739539489746093	0.5620388397216797	0.308990478515625	-4.78363037109375	-2.685546875	10.081983190917969	0.4752490295410156	-0.21308394775390624	3.6163330078125	-4.550933837890625	-2.26593017578125	
131	0.524	0.0	0.0	0.0	0.0	0.009000000000000001	0.003	0.006	0.003	9.941323843383788	-0.12689268798828124	0.22744915771484372	0.9765625	-2.880096435546875	-1.1444091796875	9.961076007080077	-0.38666356811523434	0.0047884033203125	0.40435791015625	-5.06591796875	-2.7313232421875	10.041880313110351	-0.26874913635253905	-0.25258827514648435	3.4942626953125	-4.69970703125	-1.964569091796875	
132	0.528	0.0	0.0	0.0	0.0	0.006	0.003	0.003	0.003	10.097545501708984	0.34237083740234375	0.0	4.241943359375	-4.398345947265625	-0.385284423828125	9.6917283203125	0.45489831542968745	0.3238157745361328	0.5950927734375	-4.711151123046875	-2.979278564453125	10.076596237182617	0.41419688720703124	-0.20829554443359374	3.63922119140625	-4.520416259765625	-2.8228759765625	
133	0.532	0.0	0.0	0.0	0.0	0.003	0.003	0.003	0.003	9.937133990478515	-0.15263035583496093	0.22385785522460935	1.117706298828125	-2.727508544921875	-1.15966796875	9.970652813720703	-0.48662148742675776	-0.013168109130859374	0.34332275390625	-4.825592041015625	-2.899169921875	10.065822329711914	-0.36631285400390623	-0.2723404388427734	3.681182861328125	-4.787445068359375	-2.040863037109375	
134	0.536	0.0	0.0	0.0	0.0	0.006	0.003	0.003	0.003	10.102333905029296	0.3896563201904297	-0.025139117431640625	4.215240478515625	-4.451751708984375	-0.576019287109375	9.682151513671874	0.5452794281005859	0.3447650390625	0.377655029296875	-4.7760009765625	-2.964019775390625	9.82460651245117	0.32920272827148434	-0.011372457885742187	3.696441650390625	-4.680633544921875	-2.73895263671875	
135	0.54	0.0	0.0	0.0	0.0	-0.003	0.003	0.003	0.003	9.980229620361328	0.25737667846679685	-0.03172317199707031	4.886627197265625	-5.069732666015625	0.54168701171875	9.750984811401366	0.08140285644531249	0.12868833923339842	0.29754638671875	-4.871368408203125	-2.254486083984375	10.058041174316406	-0.33518823242187495	-0.3130418670654297	3.631591796875	-4.581451416015625	-1.865386962890625	
136	0.544	0.0	0.0	0.0	0.0	0.003	0.003	0.006	0.003	10.089165795898436	0.3495534423828125	-0.027533319091796873	4.512786865234375	-4.6844482421875	-0.324249267578125	9.673771807861328	0.5027823486328125	0.36391865234375	0.457763671875	-4.8065185546875	-3.131866455078125	9.816226806640625	0.22685060729980466	-0.020949264526367185	3.5400390625	-4.75311279296875	-2.66265869140625	
137	0.548	0.0	0.0	0.0	0.0	0.006	0.003	0.003	0.0	9.981426721191406	0.22026655273437498	-0.04189852905273437	4.901885986328125	-5.0811767578125	0.63323974609375	9.773131176757811	0.04608838195800781	0.08858546142578125	0.2593994140625	-5.001068115234375	-2.140045166015625	9.83777462158203	-0.04249707946777344	-0.06045359191894531	3.810882568359375	-4.787445068359375	-1.79290771484375	
138	0.552	0.0	0.0	0.0	0.0	0.003	0.003	0.006	0.003	10.078990438842773	0.34656069030761716	-0.051475335693359374	4.79888916015625	-4.6234130859375	-0.240325927734375	9.655216744995117	0.6123170745849609	0.37289690856933594	0.3204345703125	-4.730224609375	-3.543853759765625	9.79946739501953	0.2867056488037109	-0.059256491088867186	3.719329833984375	-4.619598388671875	-2.727508544921875	
139	0.556	0.0	0.0	0.0	0.0	0.003	0.003	0.003	0.006	9.991003527832031	0.21308394775390624	-0.06584054565429687	4.7760009765625	-4.8980712890625	0.629425048828125	9.767145672607422	0.02633621826171875	0.07541735229492187	0.37384033203125	-4.89044189453125	-2.38037109375	9.821613760375977	-0.03651157531738281	-0.09337386474609374	3.6468505859375	-4.810333251953125	-1.743316650390625	
140	0.56	0.0	0.0	0.0	0.0	0.003	0.003	0.003	0.003	9.90840357055664	-0.15263035583496093	0.055066638183593745	5.504608154296875	-5.046844482421875	-0.02288818359375	9.685742816162108	0.4070142822265625	0.22445640563964842	0.5035400390625	-4.749298095703125	-3.620147705078125	9.95987890625	-0.22206220397949217	-0.24779987182617186	3.566741943359375	-4.322052001953125	-2.92205810546875	
141	0.5640000000000001	0.0	0.0	0.0	0.0	0.006	0.003	0.006	0.003	10.013149893188476	0.21787235107421873	-0.14245499877929688	4.467010498046875	-4.8370361328125	0.57220458984375	9.788693487548828	0.06823474731445311	0.013168109130859374	0.05340576171875	-5.252838134765625	-2.31170654296875	9.83777462158203	-0.0143652099609375	-0.13946224670410157	3.787994384765625	-4.802703857421875	-2.0294189453125	
142	0.5680000000000001	0.0	0.0	0.0	0.0	0.009000000000000001	0.003	0.003	0.006	9.91438907470703	-0.11013327636718749	-0.013168109130859374	5.74493408203125	-5.22613525390625	0.2899169921875	9.67856021118164	0.5404910247802734	0.17357962036132812	0.423431396484375	-4.44793701171875	-3.437042236328125	9.964068759155273	-0.09516951599121093	-0.30346506042480464	3.772735595703125	-4.405975341796875	-2.62451171875	
143	0.5720000000000001	0.0	0.0	0.0	0.0	0.009000000000000001	0.003	0.003	0.003	10.000580334472655	0.18854338073730467	-0.13407529296874998	2.086639404296875	-3.208160400390625	-0.858306884765625	9.78629928588867	0.42377369384765623	0.07122749938964844	0.30517578125	-5.191802978515625	-2.170562744140625	9.86411083984375	-0.09516951599121093	-0.21068974609375	3.513336181640625	-4.810333251953125	-1.338958740234375	
144	0.5760000000000001	0.0	0.0	0.0	0.0	0.003	0.003	0.003	0.006	9.903615167236328	-0.201112939453125	-0.03890577697753906	5.54656982421875	-4.962921142578125	-0.217437744140625	9.690531219482422	0.4997895965576172	0.15023615417480468	0.583648681640625	-4.638671875	-3.85284423828125	9.993397729492187	-0.2041056915283203	-0.35015199279785153	3.612518310546875	-4.33349609375	-2.788543701171875	
145	0.58	0.0	0.0	0.0	0.0	0.003	0.003	0.003	0.003	9.854534033203125	0.01975216369628906	0.15502455749511718	2.044677734375	-3.177642822265625	-0.91552734375	9.781510882568359	0.565630142211914	0.028730419921875	0.40435791015625	-5.062103271484375	-2.033233642578125	9.996390481567381	0.36272155151367186	-0.1149216796875	3.41796875	-4.69970703125	-1.636505126953125	
146	0.584	0.0	0.0	0.0	0.0	0.003	0.003	0.003	0.006	9.82580361328125	0.044891281127929686	-0.03890577697753906	5.31005859375	-5.0048828125	-0.095367431640625	9.907206469726562	-0.1514332550048828	-0.10175357055664062	0.1983642578125	-4.7149658203125	-3.3721923828125	9.968857162475585	-0.3381809844970703	-0.3752911102294922	3.635406494140625	-4.344940185546875	-2.674102783203125	
147	0.588	0.0	0.0	0.0	0.0	0.003	0.006	0.006	0.003	9.82580361328125	-0.7410054138183594	0.1771709228515625	0.0762939453125	-2.44903564453125	-1.628875732421875	9.816226806640625	0.29448680419921874	0.017956512451171875	0.5035400390625	-5.336761474609375	-2.716064453125	10.043675964355469	0.3064578125	-0.1657984649658203	3.871917724609375	-4.70733642578125	-2.170562744140625	
148	0.592	0.0	0.0	0.0	0.0	0.003	4.635	4.644	4.5840000000000005	9.871891995239258	0.09277531433105468	-0.05566518859863281	0.03814697265625	-2.101898193359375	-1.560211181640625	9.892841259765625	0.6733692169189452	-0.08978256225585937	0.118255615234375	-4.547119140625	-3.36456298828125	10.295067138671874	-0.06105214233398437	-0.59376201171875	3.6773681640625	-4.60052490234375	-1.6937255859375	
149	0.596	0.0	0.0	0.0	0.0	4.617	4.644	4.647	4.6080000000000005	9.879673150634765	0.143652099609375	0.13946224670410157	1.739501953125	-3.0059814453125	-1.129150390625	9.738415252685547	0.14963760375976562	0.34656069030761716	0.019073486328125	-5.214691162109375	-0.87738037109375	9.974244116210937	0.1562216583251953	-0.14484920043945312	3.68499755859375	-4.6539306640625	-2.0904541015625	
150	0.6	0.0	0.0	0.0	0.0	4.617	4.65	4.65	4.605	9.853336932373047	0.04908113403320312	0.011971008300781249	2.048492431640625	-3.208160400390625	-1.495361328125	9.866505041503906	0.7793126403808593	-0.044891281127929686	1.06048583984375	-4.779815673828125	-3.265380859375	10.280103378295898	-0.05027823486328125	-0.5147533569335937	3.8909912109375	-4.650115966796875	-1.953125	
151	0.604	0.0	0.0	0.0	0.0	4.614	4.65	4.65	4.6080000000000005	9.847351428222655	-0.2813186950683594	0.17118541870117188	3.307342529296875	-4.108428955078125	-0.93841552734375	9.80066449584961	-0.11611878051757812	0.33758243408203126	0.1983642578125	-4.993438720703125	-1.82342529296875	10.098742602539062	0.10714052429199218	-0.20051438903808594	3.6163330078125	-4.6844482421875	-2.307891845703125	
152	0.608	0.0	0.0	0.0	0.0	4.602	4.65	4.647	4.614	9.866505041503906	0.04189852905273437	0.023343466186523436	-0.118255615234375	-2.140045166015625	-1.56402587890625	9.956287603759765	0.5243301635742187	-0.11192892761230468	0.911712646484375	-4.764556884765625	-3.5858154296875	10.228029492187499	-0.017357962036132813	-0.5249287139892578	3.749847412109375	-4.627227783203125	-1.918792724609375	
153	0.612	0.0	0.0	0.0	0.0	4.614	4.65	4.6530000000000005	4.602	9.686939916992188	0.3321954803466797	0.17238251953125	0.66375732421875	-2.521514892578125	-1.88446044921875	9.779116680908203	-0.029927520751953124	0.3764882110595703	-0.011444091796875	-4.9591064453125	-2.475738525390625	10.018536846923828	0.15322890625	-0.16879121704101563	3.7689208984375	-5.092620849609375	-2.254486083984375	
154	0.616	0.0	0.0	0.0	0.0	4.614	4.65	4.6530000000000005	4.59	9.897629663085937	0.08319850769042968	0.025737667846679687	0.61798095703125	-2.475738525390625	-1.922607421875	10.013748443603514	0.4285620971679687	-0.11611878051757812	0.66375732421875	-4.638671875	-2.9296875	10.335768566894531	-0.08020575561523437	-0.5476736297607422	3.643035888671875	-4.852294921875	-1.918792724609375	
155	0.62	0.0	0.0	0.0	0.0	4.617	4.65	4.65	4.587	9.713874685668944	0.1370680450439453	0.12030863342285156	0.83160400390625	-2.529144287109375	-1.636505126953125	9.661800799560547	0.30705636291503907	0.35314474487304687	-0.148773193359375	-4.543304443359375	-2.986907958984375	10.022128149414062	0.1514332550048828	-0.12689268798828124	3.719329833984375	-4.66156005859375	-2.13623046875	
156	0.624	0.0	0.0	0.0	0.0	4.614	4.647	4.65	4.605	9.874884747314452	0.012569558715820313	0.06823474731445311	1.926422119140625	-3.299713134765625	-0.896453857421875	9.95987890625	0.22864625854492185	-0.09457096557617187	0.644683837890625	-4.718780517578125	-2.72369384765625	10.008960040283203	0.15382745666503905	-0.2759317413330078	3.734588623046875	-5.023956298828125	-2.025604248046875	
157	0.628	0.0	0.0	0.0	0.0	4.611	4.65	4.65	4.6080000000000005	9.772532626342773	0.26815058593749996	0.10354922180175781	1.178741455078125	-2.90679931640625	-1.750946044921875	9.665392102050781	0.48183308410644526	0.36391865234375	0.2288818359375	-4.932403564453125	-3.04412841796875	10.046668716430663	0.1274912384033203	-0.12330138549804687	3.719329833984375	-4.512786865234375	-2.1820068359375	
158	0.632	0.0	0.0	0.0	0.0	4.617	4.65	4.65	4.6080000000000005	9.986813674926758	0.20290859069824219	0.03890577697753906	2.22015380859375	-3.2501220703125	-0.843048095703125	10.109516510009765	0.04848258361816406	0.15263035583496093	0.4425048828125	-5.001068115234375	-2.986907958984375	10.065822329711914	0.14125789794921875	-0.26216508178710934	3.620147705078125	-4.695892333984375	-1.86920166015625	
159	0.636	0.0	0.0	0.0	0.0	4.605	4.65	4.647	4.614	9.734823950195311	0.11432312927246092	0.12569558715820311	0.629425048828125	-2.6397705078125	-1.857757568359375	9.647435589599608	0.5249287139892578	0.37828386230468747	0.23651123046875	-5.176544189453125	-2.971649169921875	9.779116680908203	-0.06823474731445311	-0.06105214233398437	3.753662109375	-4.482269287109375	-2.44903564453125	
160	0.64	0.0	0.0	0.0	0.0	4.614	4.65	4.6530000000000005	4.596	9.942520944213866	0.15023615417480468	0.12330138549804687	1.415252685546875	-2.7923583984375	-1.148223876953125	9.776722479248047	0.058657940673828124	0.20051438903808594	0.38909912109375	-4.96673583984375	-3.086090087890625	10.018536846923828	0.16879121704101563	-0.23882161560058593	3.7078857421875	-4.596710205078125	-2.056121826171875	
161	0.644	0.0	0.0	0.0	0.0	4.614	4.6530000000000005	4.6530000000000005	4.5840000000000005	9.928754284667969	0.3573345977783203	0.16998831787109375	4.40216064453125	-4.390716552734375	0.0	9.698910925292969	0.46148236999511716	0.36631285400390623	0.26702880859375	-4.364013671875	-3.162384033203125	9.835380419921874	-0.11073182678222655	-0.07122749938964844	3.719329833984375	-4.482269287109375	-2.498626708984375	
162	0.648	0.0	0.0	0.0	0.0	4.617	4.65	4.65	4.59	9.995791931152343	0.3495534423828125	0.1197100830078125	2.231597900390625	-3.51715087890625	-0.61798095703125	9.7928833404541	0.09516951599121093	0.20350714111328125	-0.057220458984375	-5.13458251953125	-3.21197509765625	9.89583401184082	0.25438392639160157	-0.12629413757324218	3.780364990234375	-4.64630126953125	-2.17437744140625	
163	0.652	0.0	0.0	0.0	0.0	4.611	4.644	4.65	4.602	9.886257205200195	0.30705636291503907	0.23702596435546874	4.924774169921875	-4.589080810546875	0.194549560546875	9.567229833984374	0.38187516479492184	0.3968389251708984	0.26702880859375	-4.57000732421875	-3.2196044921875	9.747393508911133	-0.08978256225585937	0.010773907470703125	3.719329833984375	-4.550933837890625	-2.346038818359375	
164	0.656	0.0	0.0	0.0	0.0	4.611	4.65	4.65	4.6080000000000005	9.970054263305663	0.2657563842773437	0.17357962036132812	2.422332763671875	-3.387451171875	-0.5950927734375	9.810241302490233	0.0987608184814453	0.18435352783203124	0.270843505859375	-4.772186279296875	-2.925872802734375	9.861716638183593	0.26755203552246093	-0.08259995727539061	3.60870361328125	-4.9591064453125	-2.285003662109375	
165	0.66	0.0	0.0	0.0	0.0	4.611	4.65	4.65	4.6080000000000005	9.945513696289062	0.24001871643066405	0.16280571289062498	4.55474853515625	-4.28009033203125	0.18310546875	9.658808047485351	0.34536358947753903	0.3603273498535156	0.232696533203125	-4.642486572265625	-3.330230712890625	9.846752877807617	-0.023942016601562498	-0.2645592834472656	4.05120849609375	-4.34112548828125	-2.349853515625	
166	0.664	0.0	0.0	0.0	0.0	4.602	4.65	4.647	4.614	9.973047015380859	-0.05566518859863281	-0.05746083984375	4.43267822265625	-4.69970703125	-0.232696533203125	9.759963067626952	0.09516951599121093	0.17657237243652343	0.030517578125	-4.848480224609375	-2.628326416015625	9.847949978637695	0.2376245147705078	-0.062249243164062495	3.692626953125	-4.8828125	-2.193450927734375	
167	0.668	0.0	0.0	0.0	0.0	4.614	4.65	4.6530000000000005	4.599	9.932345587158203	0.2615665313720703	0.1514332550048828	4.87518310546875	-4.57763671875	0.23651123046875	9.606734161376952	0.36272155151367186	0.37828386230468747	0.30517578125	-4.6844482421875	-3.162384033203125	9.920374578857421	-0.16340426330566404	-0.23403321228027343	3.570556640625	-4.35638427734375	-2.28118896484375	
168	0.672	0.0	0.0	0.0	0.0	4.617	4.6530000000000005	4.6530000000000005	4.587	9.965265859985351	-0.16041151123046873	-0.05027823486328125	4.673004150390625	-4.8828125	0.00762939453125	9.769539874267577	0.06404489440917968	0.19333178405761717	0.118255615234375	-5.07354736328125	-2.6397705078125	9.871293444824218	0.2346317626953125	-0.03531447448730469	3.856658935546875	-4.848480224609375	-2.26593017578125	
169	0.676	0.0	0.0	0.0	0.0	4.617	4.65	4.65	4.593	9.963470208740233	0.16160861206054686	0.13108254089355467	3.875732421875	-3.85284423828125	-0.286102294921875	9.909600671386718	0.23642741394042968	-0.011372457885742187	0.457763671875	-4.772186279296875	-3.032684326171875	10.00955859069824	-0.18435352783203124	-0.2705447875976562	3.726959228515625	-4.360198974609375	-2.056121826171875	
170	0.68	0.0	0.0	0.0	0.0	4.617	4.644	4.65	4.6080000000000005	9.911396322631836	-0.15263035583496093	-0.025737667846679687	4.302978515625	-4.795074462890625	-0.05340576171875	9.724050042724608	0.07362170104980469	0.21607669982910155	0.06103515625	-4.87518310546875	-2.613067626953125	9.999981784057617	0.08499415893554688	-0.18136077575683593	3.841400146484375	-5.0048828125	-2.246856689453125	
171	0.684	0.0	0.0	0.0	0.0	4.611	4.65	4.6530000000000005	4.611	9.819818109130859	-0.033518823242187495	-0.00718260498046875	3.696441650390625	-4.123687744140625	-0.331878662109375	9.82460651245117	0.2867056488037109	0.07362170104980469	0.274658203125	-4.863739013671875	-2.735137939453125	9.93952819213867	-0.13826514587402344	-0.23582886352539062	3.60107421875	-4.57763671875	-2.05230712890625	
172	0.6880000000000001	0.0	0.0	0.0	0.0	4.6080000000000005	4.65	4.65	4.611	9.955090502929687	-0.20350714111328125	-0.08080430603027343	4.82177734375	-5.016326904296875	-0.42724609375	9.855132583618163	0.13168109130859373	0.23882161560058593	0.1983642578125	-4.962921142578125	-2.689361572265625	10.098742602539062	-0.015562310791015624	-0.1849520782470703	3.692626953125	-4.657745361328125	-2.262115478515625	
173	0.6920000000000001	0.0	0.0	0.0	0.0	4.605	4.647	4.644	4.614	9.853336932373047	-0.14484920043945312	-0.06584054565429687	3.30352783203125	-3.879547119140625	-0.576019287109375	9.835380419921874	0.24001871643066405	0.06823474731445311	0.560760498046875	-4.703521728515625	-2.841949462890625	10.271125122070313	0.016160861206054686	-0.5051765502929687	3.765106201171875	-4.756927490234375	-1.926422119140625	
174	0.6960000000000001	0.0	0.0	0.0	0.0	4.614	4.65	4.6530000000000005	4.599	9.6013472076416	0.06045359191894531	0.421978042602539	2.010345458984375	-3.246307373046875	-1.117706298828125	9.788094937133788	0.22685060729980466	0.19213468322753904	-0.003814697265625	-5.04302978515625	-2.55584716796875	9.986215124511718	0.017357962036132813	-0.21068974609375	3.803253173828125	-4.8980712890625	-2.002716064453125	
175	0.7000000000000001	0.0	0.0	0.0	0.0	4.617	4.65	4.65	4.5840000000000005	9.859322436523437	-0.26216508178710934	-0.1005564697265625	2.880096435546875	-3.50189208984375	-0.720977783203125	9.958681805419921	0.24899697265624998	-0.09636661682128905	0.7781982421875	-4.9896240234375	-2.73895263671875	10.277110626220702	0.047884033203124995	-0.527322915649414	3.7078857421875	-4.581451416015625	-2.1514892578125	
176	0.704	0.0	0.0	0.0	0.0	4.617	1.86	0.003	0.003	9.660603698730467	0.08379705810546874	0.38845921936035155	1.91497802734375	-3.11279296875	-1.293182373046875	9.853935482788085	0.21248539733886718	0.1610100616455078	0.095367431640625	-5.06591796875	-2.70843505859375	10.087968695068358	-0.03950432739257812	-0.10714052429199218	3.83758544921875	-4.795074462890625	-2.338409423828125	
177	0.708	0.0	0.0	0.0	0.0	0.009000000000000001	0.003	0.003	0.003	9.81862100830078	-0.26336218261718747	-0.11252747802734374	2.414703369140625	-3.35693359375	-1.117706298828125	9.964667309570311	0.24001871643066405	-0.13467384338378904	0.659942626953125	-4.932403564453125	-2.6397705078125	10.24000050048828	0.05805939025878906	-0.5799953521728515	3.681182861328125	-4.535675048828125	-2.132415771484375	
178	0.712	0.0	0.0	0.0	0.0	0.006	0.006	0.003	0.003	9.610325463867188	0.031124621582031248	0.35793314819335936	0.705718994140625	-2.7618408203125	-1.361846923828125	9.636661682128906	0.4321533996582031	0.32920272827148434	0.14495849609375	-4.688262939453125	-2.750396728515625	9.95389340209961	0.02633621826171875	-0.08499415893554688	3.658294677734375	-4.7454833984375	-2.170562744140625	
179	0.716	0.0	0.0	0.0	0.0	0.006	0.003	0.003	0.006	9.910797772216796	0.14544775085449219	0.07481880187988281	-0.957489013671875	-1.743316650390625	-2.223968505859375	10.019733947753906	0.20231004028320312	-0.14484920043945312	0.797271728515625	-5.126953125	-2.8533935546875	10.340556970214843	0.02693476867675781	-0.6003460662841796	3.6163330078125	-4.474639892578125	-2.231597900390625	
180	0.72	0.0	0.0	0.0	0.0	0.006	0.003	0.003	0.003	9.642647186279296	-0.10474632263183593	0.31064766540527344	0.6103515625	-2.4261474609375	-1.67083740234375	9.683348614501952	0.39923312683105466	0.3238157745361328	0.331878662109375	-4.94384765625	-3.01361083984375	10.036493359375	-0.009576806640625	-0.1005564697265625	3.7841796875	-4.8065185546875	-2.2735595703125	
181	0.724	0.0	0.0	0.0	0.0	0.003	0.003	0.003	0.006	9.87608184814453	0.37768531188964843	0.12689268798828124	-0.530242919921875	-1.712799072265625	-1.972198486328125	9.87069489440918	0.297479556274414	-0.07721300354003906	0.209808349609375	-4.871368408203125	-2.99835205078125	10.003573086547851	0.07362170104980469	-0.3507505432128906	3.246307373046875	-4.8675537109375	-2.0904541015625	
182	0.728	0.0	0.0	0.0	0.0	0.003	0.003	0.003	0.003	9.630676177978515	0.04848258361816406	0.354940396118164	2.330780029296875	-3.54766845703125	-1.0986328125	9.712079034423828	0.3716998077392578	0.28371289672851563	0.35858154296875	-4.909515380859375	-2.70843505859375	10.038887561035155	0.040701428222656245	-0.09696516723632811	3.849029541015625	-4.61578369140625	-2.002716064453125	
183	0.732	0.0	0.0	0.0	0.0	0.003	0.003	0.006	0.003	9.974842666625976	0.08918401184082031	0.08140285644531249	-0.72479248046875	-1.88446044921875	-1.7547607421875	9.777919580078125	0.10714052429199218	0.26695348510742184	0.2593994140625	-4.909515380859375	-3.063201904296875	10.181342559814453	-0.044891281127929686	-0.39863457641601563	3.490447998046875	-4.94384765625	-1.9378662109375	
184	0.736	0.0	0.0	0.0	0.0	0.003	0.003	0.006	0.003	10.007164389038085	0.43574470214843747	-0.03591302490234375	3.124237060546875	-3.63922119140625	-0.667572021484375	9.65342109375	0.4213794921875	0.2316390106201172	0.08392333984375	-4.730224609375	-2.933502197265625	9.727641345214844	0.008978256225585938	-0.020949264526367185	3.5858154296875	-4.5928955078125	-2.223968505859375	
185	0.74	0.0	0.0	0.0	0.0	0.003	0.003	0.003	0.006	9.94072529296875	0.354341845703125	0.10654197387695312	0.591278076171875	-2.532958984375	-1.68609619140625	9.725247143554688	0.21727380065917967	0.21607669982910155	0.087738037109375	-4.894256591796875	-3.047943115234375	10.049661468505859	0.08080430603027343	-0.4285620971679687	3.681182861328125	-4.78363037109375	-2.086639404296875	
186	0.744	0.0	0.0	0.0	0.0	0.003	0.003	0.003	0.006	10.017938296508788	-0.047285482788085934	-0.037110125732421874	2.452850341796875	-3.63922119140625	-0.759124755859375	9.764751470947266	0.1867477294921875	0.2059013427734375	0.2593994140625	-4.772186279296875	-3.002166748046875	9.874286196899414	-0.030526071166992186	-0.06643909606933593	3.692626953125	-4.428863525390625	-2.208709716796875	
187	0.748	0.0	0.0	0.0	0.0	0.006	0.003	0.003	0.003	10.059238275146484	0.3591302490234375	-0.15682020874023436	5.74493408203125	-5.336761474609375	0.4730224609375	9.730035546875	0.14305354919433594	0.2807201446533203	0.179290771484375	-4.795074462890625	-3.238677978515625	9.879074600219726	-0.055066638183593745	-0.1693897674560547	3.749847412109375	-4.802703857421875	-2.47955322265625	
188	0.752	0.0	0.0	0.0	0.0	0.003	0.003	0.006	0.003	9.991003527832031	0.30885201416015623	-0.022146365356445312	3.932952880859375	-4.21905517578125	-0.553131103515625	9.631873278808593	0.297479556274414	0.2519897247314453	0.2288818359375	-4.535675048828125	-3.15093994140625	9.64623848876953	0.181959326171875	-0.012569558715820313	3.650665283203125	-4.482269287109375	-2.330780029296875	
189	0.756	0.0	0.0	0.0	0.0	0.006	0.006	0.003	0.006	10.032902056884765	-0.008379705810546874	-0.15442600708007811	5.535125732421875	-5.184173583984375	0.843048095703125	9.682750064086914	0.12988544006347655	0.18854338073730467	0.110626220703125	-4.8980712890625	-2.6092529296875	9.821015209960937	-0.03531447448730469	-0.1352723937988281	3.6163330078125	-4.69970703125	-2.155303955078125	
190	0.76	0.0	0.0	0.0	0.0	0.006	0.006	0.003	0.003	10.087968695068358	0.2154781494140625	-0.08259995727539061	3.574371337890625	-4.055023193359375	-0.171661376953125	9.787496386718749	0.19512743530273435	0.14006079711914063	0.011444091796875	-4.6539306640625	-3.238677978515625	9.828197814941406	0.04129997863769531	-0.011971008300781249	3.704071044921875	-4.428863525390625	-2.46429443359375	
191	0.764	0.0	0.0	0.0	0.0	0.0	0.003	0.003	0.006	10.003573086547851	0.41060558471679687	-0.10474632263183593	7.434844970703125	-5.9356689453125	0.83160400390625	9.627084875488281	0.19093758239746092	0.14963760375976562	0.30517578125	-5.214691162109375	-2.605438232421875	9.682151513671874	0.04249707946777344	-0.034715924072265626	3.692626953125	-4.669189453125	-2.44903564453125	
192	0.768	0.0	0.0	0.0	0.0	0.003	0.003	0.003	0.003	9.81862100830078	-0.41419688720703124	0.0526724365234375	4.039764404296875	-4.08172607421875	0.08392333984375	9.787496386718749	0.24181436767578124	0.017956512451171875	0.148773193359375	-4.779815673828125	-2.73895263671875	9.986215124511718	0.13287819213867186	-0.4327519500732422	3.70025634765625	-4.44793701171875	-2.140045166015625	
193	0.772	0.0	0.0	0.0	0.0	0.003	0.003	0.003	0.003	10.066420880126952	-0.11671733093261719	-0.17118541870117188	5.523681640625	-5.11932373046875	0.919342041015625	9.77492682800293	0.0652419952392578	0.1083376251220703	-0.08392333984375	-4.8065185546875	-2.742767333984375	9.873687646484374	-0.1304839904785156	-0.04608838195800781	3.604888916015625	-4.69207763671875	-2.300262451171875	
194	0.776	0.0	0.0	0.0	0.0	0.003	0.003	0.003	0.003	9.847949978637695	0.20350714111328125	-0.05686228942871093	5.30242919921875	-4.657745361328125	-0.1220703125	9.83178911743164	0.21248539733886718	-0.040102877807617184	0.3509521484375	-5.130767822265625	-2.61688232421875	10.072406384277343	0.10354922180175781	-0.5542576843261718	3.810882568359375	-4.405975341796875	-2.361297607421875	
195	0.78	0.0	0.0	0.0	0.0	0.003	0.006	0.006	0.006	9.920973129272461	0.3274070770263672	-0.086191259765625	0.896453857421875	-2.73895263671875	0.965118408203125	9.785102185058593	0.3010708587646484	0.16879121704101563	0.091552734375	-4.856109619140625	-2.445220947265625	9.989806427001952	0.06464344482421874	-0.2765302917480469	3.658294677734375	-4.749298095703125	-1.9378662109375	
196	0.784	0.0	0.0	0.0	0.0	0.003	0.006	0.003	0.003	9.790489138793944	-0.7960720520019531	-0.011971008300781249	2.4871826171875	-3.574371337890625	-0.751495361328125	9.90241806640625	0.14185644836425781	-0.027533319091796873	-0.02288818359375	-4.7149658203125	-2.712249755859375	10.156203442382813	0.08020575561523437	-0.5363011718749999	3.719329833984375	-4.425048828125	-2.086639404296875	
197	0.788	0.0	0.0	0.0	0.0	0.003	0.006	0.003	0.003	9.750984811401366	-0.11851298217773437	0.17597382202148437	0.43487548828125	-2.41851806640625	-1.39617919921875	9.885658654785155	0.18435352783203124	0.1370680450439453	0.12969970703125	-4.810333251953125	-2.655029296875	10.179546908569336	-0.08319850769042968	-0.296881005859375	3.582000732421875	-4.688262939453125	-2.02178955078125	
198	0.792	0.0	0.0	0.0	0.0	0.003	0.006	0.003	0.006	9.827599264526366	0.32441432495117184	-0.11731588134765625	3.391265869140625	-4.11224365234375	-0.42724609375	9.881468801879882	0.37708676147460934	0.011971008300781249	0.9613037109375	-4.749298095703125	-2.86102294921875	10.147823736572265	0.07422025146484375	-0.4704606262207031	3.6773681640625	-4.520416259765625	-2.37274169921875	
199	0.796	0.0	0.0	0.0	0.0	0.003	0.003	0.006	0.003	9.545682019042967	-0.42018239135742186	0.3890577697753906	1.46484375	-2.956390380859375	-2.2735595703125	9.841365924072266	0.21487959899902342	0.20470424194335937	0.186920166015625	-4.96673583984375	-2.3040771484375	10.039486111450195	0.04848258361816406	-0.06584054565429687	3.887176513671875	-4.8065185546875	-1.987457275390625	
200	0.8	0.0	0.0	0.0	0.0	0.003	0.003	0.006	0.006	9.955090502929687	-0.4387374542236328	0.10714052429199218	-4.230499267578125	-0.087738037109375	-2.86865234375	9.994594830322265	0.22445640563964842	0.08499415893554688	0.6103515625	-4.8675537109375	-2.95257568359375	10.38664535217285	-0.14125789794921875	-0.5105635040283203	3.414154052734375	-4.520416259765625	-2.300262451171875	
201	0.804	0.0	0.0	0.0	0.0	0.006	0.003	0.006	0.006	9.683348614501952	-0.4483142608642578	0.28371289672851563	-3.337860107421875	-0.35858154296875	-2.44903564453125	9.77432827758789	0.28431144714355466	0.2962824554443359	0.6103515625	-4.589080810546875	-3.04412841796875	10.002974536132811	0.08738836059570312	-0.10354922180175781	3.513336181640625	-4.634857177734375	-2.1514892578125	
202	0.808	0.0	0.0	0.0	0.0	0.006	0.003	0.003	0.006	9.986215124511718	1.3670891479492187	0.20350714111328125	2.89154052734375	-3.643035888671875	-1.33514404296875	9.840767373657226	0.3752911102294922	0.1149216796875	1.033782958984375	-4.93621826171875	-2.895355224609375	10.111910711669921	0.031124621582031248	-0.412401235961914	3.631591796875	-4.711151123046875	-2.193450927734375	
203	0.812	0.0	0.0	0.0	0.0	0.003	0.003	0.003	0.006	9.741408004760741	0.7128735443115234	0.37708676147460934	3.7994384765625	-3.9825439453125	-1.5106201171875	9.777919580078125	0.3238157745361328	0.38367081604003905	0.14495849609375	-4.4708251953125	-2.655029296875	10.211270080566406	0.2059013427734375	-0.18614917907714842	3.5552978515625	-4.5318603515625	-1.941680908203125	
204	0.8160000000000001	0.0	0.0	0.0	0.0	0.006	0.006	0.006	0.006	9.929951385498047	-0.2280477081298828	0.27174188842773433	0.492095947265625	-2.349853515625	-2.01416015625	9.93414123840332	0.3938461730957031	0.08798691101074219	0.885009765625	-4.825592041015625	-2.895355224609375	10.335170016479491	-0.10414777221679687	-0.5787982513427734	3.604888916015625	-4.5013427734375	-2.376556396484375	
205	0.8200000000000001	0.0	0.0	0.0	0.0	0.003	0.003	0.003	0.003	10.026916552734374	0.1927332336425781	0.05566518859863281	0.453948974609375	-2.346038818359375	-0.43487548828125	9.59476315307617	0.4016273284912109	0.5446808776855468	-0.110626220703125	-4.932403564453125	-2.864837646484375	9.905410818481444	0.3477577911376953	-0.03531447448730469	3.6163330078125	-4.28009033203125	-1.91497802734375	
206	0.8240000000000001	0.0	0.0	0.0	0.0	0.0	0.006	0.003	0.006	10.168174450683592	0.6398503936767578	0.16639701538085935	-1.1749267578125	-1.35040283203125	-0.667572021484375	9.803657247924804	0.229843359375	0.2711433380126953	0.324249267578125	-4.825592041015625	-2.79998779296875	9.91498762512207	-0.12569558715820311	-0.3633201019287109	3.63922119140625	-4.817962646484375	-1.895904541015625	
207	0.8280000000000001	0.0	0.0	0.0	0.0	0.009000000000000001	0.003	0.003	0.003	10.251372958374024	1.0899603057861327	-0.29927520751953124	10.44464111328125	-7.572174072265625	1.453399658203125	9.816226806640625	0.23822306518554687	0.34057518615722654	0.392913818359375	-4.848480224609375	-3.009796142578125	10.160991845703125	0.19153613281249998	-0.17477672119140625	3.74603271484375	-4.57763671875	-2.197265625	
208	0.8320000000000001	0.0	0.0	0.0	0.0	0.003	0.003	0.003	0.006	10.206481677246094	1.4514847564697264	0.05087678527832031	7.110595703125	-5.970001220703125	0.873565673828125	9.767145672607422	0.3010708587646484	0.1657984649658203	-0.35858154296875	-4.79888916015625	-2.44140625	9.846752877807617	-0.1227028350830078	-0.3591302490234375	3.879547119140625	-4.878997802734375	-2.254486083984375	
209	0.836	0.0	0.0	0.0	0.0	0.003	0.003	0.006	0.006	9.866505041503906	-0.3274070770263672	-0.14006079711914063	6.374359130859375	-5.74493408203125	0.26702880859375	9.657610946655273	0.2807201446533203	0.19572598571777342	-0.213623046875	-4.817962646484375	-2.6092529296875	9.726444244384766	0.3268085266113281	-0.07721300354003906	3.57818603515625	-4.413604736328125	-2.02178955078125	
210	0.84	0.0	0.0	0.0	0.0	0.006	0.006	0.006	0.006	9.710881933593749	-0.6625953094482422	-0.03651157531738281	0.362396240234375	-2.536773681640625	-0.690460205078125	9.944915145874022	0.17417817077636719	-0.020949264526367185	-0.255584716796875	-4.947662353515625	-2.58636474609375	10.065223779296874	-0.18914193115234373	-0.46627077331542965	3.60870361328125	-4.8828125	-2.11334228515625	
211	0.844	0.0	0.0	0.0	0.0	0.006	0.003	0.003	0.006	9.879673150634765	-0.3848679168701172	-0.18076222534179687	2.044677734375	-3.570556640625	-0.522613525390625	9.750984811401366	0.21248539733886718	0.03651157531738281	-0.011444091796875	-4.58526611328125	-2.857208251953125	9.860519537353515	0.16699556579589842	-0.15382745666503905	3.6468505859375	-4.596710205078125	-2.361297607421875	
212	0.848	0.0	0.0	0.0	0.0	0.003	0.003	0.006	0.003	9.676764559936522	-0.028730419921875	0.06643909606933593	2.208709716796875	-3.54766845703125	-0.812530517578125	9.573215338134766	0.24121581726074218	0.11013327636718749	0.5340576171875	-4.8828125	-3.070831298828125	9.79946739501953	-0.03232172241210937	-0.3286041778564453	3.662109375	-4.72259521484375	-1.964569091796875	
213	0.852	0.0	0.0	0.0	0.0	0.003	0.003	0.003	0.003	9.848548529052733	-0.15083470458984374	0.239420166015625	1.33514404296875	-3.131866455078125	-1.338958740234375	9.752780462646484	0.2507926239013672	0.17776947326660156	0.335693359375	-4.7760009765625	-2.8228759765625	9.87608184814453	0.12569558715820311	-0.07422025146484375	3.902435302734375	-4.718780517578125	-2.353668212890625	
214	0.856	0.0	0.0	0.0	0.0	0.003	0.003	0.006	0.006	9.840168823242188	-0.09277531433105468	0.022744915771484374	2.658843994140625	-3.59344482421875	-0.75531005859375	9.776722479248047	0.05386953735351562	0.0430956298828125	0.217437744140625	-4.917144775390625	-3.299713134765625	10.001777435302733	-0.08319850769042968	-0.20051438903808594	3.76129150390625	-4.638671875	-2.338409423828125	
215	0.86	0.0	0.0	0.0	0.0	0.006	0.006	0.006	0.006	9.880870251464843	0.21428104858398436	0.1771709228515625	2.43377685546875	-3.192901611328125	-1.132965087890625	9.732429748535155	0.33758243408203126	0.19093758239746092	0.614166259765625	-4.848480224609375	-2.92205810546875	9.743203656005859	0.21308394775390624	-0.06105214233398437	3.719329833984375	-4.772186279296875	-2.513885498046875	
216	0.864	0.0	0.0	0.0	0.0	0.006	0.006	0.003	0.003	9.80066449584961	0.37888241271972656	0.14125789794921875	3.276824951171875	-3.940582275390625	-0.45013427734375	9.65282254333496	0.1927332336425781	0.19692308654785154	0.377655029296875	-5.100250244140625	-2.9144287109375	9.764152920532226	0.05027823486328125	-0.03651157531738281	3.68499755859375	-4.856109619140625	-2.15911865234375	
217	0.868	0.0	0.0	0.0	0.0	0.003	0.003	0.006	0.003	9.988609326171874	-0.05985504150390625	0.06045359191894531	3.406524658203125	-4.047393798828125	-0.823974609375	9.87009634399414	0.1322796417236328	0.1083376251220703	0.270843505859375	-5.077362060546875	-2.99072265625	10.139444030761718	-0.15562310791015624	-0.2950853546142578	3.66973876953125	-4.40216064453125	-2.338409423828125	
218	0.872	0.0	0.0	0.0	0.0	0.006	0.006	0.006	0.003	9.97244846496582	-0.2819172454833984	-0.027533319091796873	2.11334228515625	-3.41033935546875	-0.675201416015625	9.84555577697754	0.10354922180175781	0.20051438903808594	-0.12969970703125	-4.848480224609375	-2.76947021484375	9.815029705810547	0.027533319091796873	-0.0718260498046875	3.475189208984375	-4.8065185546875	-2.193450927734375	
219	0.876	0.0	0.0	0.0	0.0	0.0	0.006	0.006	0.006	9.889848507690429	-0.010773907470703125	0.1693897674560547	3.1585693359375	-3.803253173828125	-0.057220458984375	9.649829791259766	0.22445640563964842	0.2262520568847656	0.492095947265625	-4.489898681640625	-2.750396728515625	9.896432562255859	-0.016759411621093748	-0.18854338073730467	3.765106201171875	-4.589080810546875	-2.22015380859375	
220	0.88	0.0	0.0	0.0	0.0	0.006	0.006	0.003	0.003	9.9461122467041	-0.17298106994628906	0.02454056701660156	3.017425537109375	-3.97491455078125	-0.743865966796875	9.853935482788085	0.07601590270996093	0.23642741394042968	0.45013427734375	-5.06591796875	-2.620697021484375	10.104728106689452	0.0718260498046875	-0.1657984649658203	3.765106201171875	-4.69970703125	-1.842498779296875	
221	0.884	0.0	0.0	0.0	0.0	0.003	0.003	0.003	0.006	9.973047015380859	-0.001197100830078125	0.0718260498046875	1.57928466796875	-4.413604736328125	-0.041961669921875	9.770736975097655	0.18255787658691405	0.09038111267089843	0.629425048828125	-4.730224609375	-2.69317626953125	10.096946951293944	-0.16340426330566404	-0.2813186950683594	3.665924072265625	-4.199981689453125	-2.285003662109375	
222	0.888	0.0	0.0	0.0	0.0	0.006	0.003	0.003	0.006	9.812036953735351	-0.2346317626953125	0.16998831787109375	2.544403076171875	-3.692626953125	-1.094818115234375	9.746794958496093	0.14425065002441406	0.23223756103515625	0.492095947265625	-5.126953125	-2.8228759765625	10.000580334472655	0.17657237243652343	-0.15382745666503905	3.5247802734375	-4.47845458984375	-1.811981201171875	
223	0.892	0.0	0.0	0.0	0.0	0.006	0.003	0.003	0.003	9.821015209960937	-0.13347674255371092	-0.06584054565429687	0.16021728515625	-2.277374267578125	-1.800537109375	9.880870251464843	0.3537432952880859	0.04548983154296875	0.99945068359375	-4.817962646484375	-2.674102783203125	10.095151300048828	-0.11611878051757812	-0.3746925598144531	3.9520263671875	-4.619598388671875	-2.08282470703125	
224	0.896	0.0	0.0	0.0	0.0	0.006	0.003	0.003	0.006	9.9078050201416	-0.21966800231933592	0.10654197387695312	2.01416015625	-3.3721923828125	-1.125335693359375	9.91438907470703	0.028730419921875	0.06584054565429687	-0.05340576171875	-5.023956298828125	-2.716064453125	10.17056865234375	0.03890577697753906	-0.2567781280517578	3.7689208984375	-4.680633544921875	-1.94549560546875	
225	0.9	0.0	0.0	0.0	0.0	0.0	0.003	0.003	0.0	9.83897172241211	-0.20949264526367187	-0.10175357055664062	0.09918212890625	-2.20489501953125	-2.01416015625	9.882067352294921	0.3585316986083984	-0.055066638183593745	0.560760498046875	-4.55474853515625	-2.704620361328125	10.224438189697265	-0.09457096557617187	-0.5865794067382812	3.597259521484375	-4.550933837890625	-2.09808349609375	
226	0.904	0.0	0.0	0.0	0.0	0.003	0.006	0.006	0.006	9.885658654785155	0.34237083740234375	0.296881005859375	1.953125	-3.032684326171875	-0.9918212890625	9.637858782958984	0.2454056701660156	0.5345055206298828	-0.08392333984375	-4.962921142578125	-2.61688232421875	10.059836825561522	0.16639701538085935	-0.25258827514648435	3.8909912109375	-4.66156005859375	-1.979827880859375	
227	0.908	0.0	0.0	0.0	0.0	0.0	0.003	0.006	0.006	9.8449572265625	-0.21248539733886718	-0.14484920043945312	-0.2593994140625	-2.132415771484375	-2.25067138671875	9.996989031982421	0.2442085693359375	-0.1406593475341797	0.835418701171875	-4.863739013671875	-2.64739990234375	10.305242495727539	-0.17118541870117188	-0.5776011505126952	3.910064697265625	-4.67681884765625	-2.13623046875	
228	0.912	0.0	0.0	0.0	0.0	0.006	0.003	0.003	0.0	9.781510882568359	0.4171896392822265	0.2041056915283203	2.017974853515625	-3.02886962890625	-0.91552734375	9.692925421142577	0.2232593048095703	0.5195417602539062	-0.110626220703125	-5.0811767578125	-2.73895263671875	10.090362896728514	0.08259995727539061	-0.3393780853271484	3.780364990234375	-4.673004150390625	-2.3651123046875	
229	0.916	0.0	0.0	0.0	0.0	0.003	0.006	0.003	0.003	9.79946739501953	-0.19213468322753904	-0.006584054565429687	0.5340576171875	-2.38037109375	-2.43377685546875	9.9215716796875	0.33758243408203126	-0.08140285644531249	0.579833984375	-4.95147705078125	-3.017425537109375	10.180744009399413	0.004189852905273437	-0.5243301635742187	3.5400390625	-4.573822021484375	-2.12860107421875	
230	0.92	0.0	0.0	0.0	0.0	0.003	0.003	0.006	0.003	9.759364517211914	0.7158662963867187	0.23882161560058593	2.529144287109375	-3.528594970703125	-1.1138916015625	9.733626849365233	0.19213468322753904	0.5087678527832031	-0.263214111328125	-4.8828125	-2.716064453125	10.095151300048828	0.04668693237304687	-0.28431144714355466	3.62396240234375	-4.9591064453125	-2.1209716796875	
231	0.924	0.0	0.0	0.0	0.0	0.0	0.003	0.006	0.0	10.04906291809082	0.11851298217773437	0.044292730712890624	1.82342529296875	-3.44085693359375	-0.705718994140625	9.98501802368164	0.18914193115234373	-0.12330138549804687	0.518798828125	-4.7454833984375	-2.8839111328125	10.081384640502929	-0.0017956512451171875	-0.42975919799804685	3.475189208984375	-4.90570068359375	-1.995086669921875	
232	0.928	0.0	0.0	0.0	0.0	0.003	0.006	0.003	4.581	9.680954412841796	0.4465186096191406	0.19033903198242186	2.170562744140625	-3.467559814453125	-1.31988525390625	9.576806640625	0.3902548706054687	0.38307226562499996	-0.244140625	-4.638671875	-2.941131591796875	9.922768780517577	0.1879448303222656	-0.1610100616455078	3.643035888671875	-4.6234130859375	-2.445220947265625	
233	0.932	0.0	0.0	0.0	0.0	4.599	4.644	4.647	4.605	9.976039767456054	0.20171148986816406	0.09038111267089843	1.598358154296875	-3.108978271484375	-0.74005126953125	10.026318002319336	0.18255787658691405	-0.07302315063476562	0.67138671875	-5.123138427734375	-2.96783447265625	10.041281762695311	0.07900865478515624	-0.316034619140625	3.673553466796875	-4.913330078125	-1.995086669921875	
234	0.936	0.0	0.0	0.0	0.0	4.602	4.647	4.647	4.611	9.728838446044922	0.30406361083984373	0.16160861206054686	2.349853515625	-3.18145751953125	-1.74713134765625	9.665392102050781	0.30047230834960936	0.41898529052734373	-0.22125244140625	-4.70733642578125	-2.918243408203125	10.085574493408203	0.05087678527832031	-0.2741360900878906	3.589630126953125	-4.642486572265625	-2.552032470703125	
235	0.9400000000000001	0.0	0.0	0.0	0.0	4.611	4.65	4.6530000000000005	4.605	9.97903251953125	0.20350714111328125	0.05746083984375	0.80108642578125	-2.864837646484375	-1.068115234375	9.751583361816406	0.1083376251220703	0.05386953735351562	0.293731689453125	-4.72259521484375	-2.87628173828125	9.97843396911621	0.15263035583496093	-0.3764882110595703	3.543853759765625	-4.5928955078125	-1.9683837890625	
236	0.9440000000000001	0.0	0.0	0.0	0.0	4.614	4.647	4.65	4.59	9.817423907470703	0.26695348510742184	0.20051438903808594	4.3487548828125	-4.520416259765625	0.16021728515625	9.589974749755859	0.36272155151367186	0.47285482788085936	-0.20599365234375	-5.039215087890625	-2.986907958984375	9.663596450805663	-0.04908113403320312	0.06763619689941405	3.7689208984375	-4.634857177734375	-2.5177001953125	
237	0.9480000000000001	0.0	0.0	0.0	0.0	4.617	4.647	4.647	4.5840000000000005	10.04846436767578	0.24480711975097655	0.009576806640625	1.65557861328125	-3.269195556640625	-1.026153564453125	9.862315188598632	0.037110125732421874	0.052073886108398436	0.42724609375	-4.856109619140625	-2.8839111328125	10.101136804199218	0.09935936889648436	-0.26695348510742184	3.692626953125	-4.85992431640625	-2.002716064453125	
238	0.9520000000000001	0.0	0.0	0.0	0.0	4.614	4.644	4.647	4.605	9.913790524291992	0.24779987182617186	0.10235212097167969	4.72259521484375	-4.459381103515625	0.1068115234375	9.662997900390625	0.29568390502929687	0.3172317199707031	0.072479248046875	-4.57000732421875	-3.009796142578125	9.795876092529296	-0.20709844360351562	-0.07122749938964844	3.662109375	-4.436492919921875	-2.44903564453125	
239	0.9560000000000001	0.0	0.0	0.0	0.0	4.6080000000000005	4.65	4.65	4.605	9.911994873046874	0.19931728820800781	0.10235212097167969	3.948211669921875	-4.44793701171875	-0.217437744140625	9.654618194580078	0.21966800231933592	0.2292448089599609	0.81634521484375	-4.93621826171875	-3.131866455078125	9.708487731933593	0.30346506042480464	0.052073886108398436	3.70025634765625	-4.825592041015625	-2.254486083984375	
240	0.96	0.0	0.0	0.0	0.0	4.614	4.65	4.65	4.6080000000000005	9.89463691101074	0.034715924072265626	0.1149216796875	3.772735595703125	-4.154205322265625	-0.11444091796875	9.695319622802733	0.25438392639160157	0.27832594299316404	0.141143798828125	-4.619598388671875	-2.838134765625	9.859920986938477	-0.14784195251464843	-0.05686228942871093	3.6773681640625	-4.497528076171875	-2.25830078125	
241	0.964	0.0	0.0	0.0	0.0	4.602	4.65	4.647	4.614	10.047865817260742	0.07302315063476562	-0.08140285644531249	3.92913818359375	-4.547119140625	-0.118255615234375	9.795876092529296	0.16759411621093748	0.15502455749511718	0.141143798828125	-4.955291748046875	-2.681732177734375	9.990404977416992	0.14484920043945312	-0.1131260284423828	3.5247802734375	-4.39453125	-2.361297607421875	
242	0.968	0.0	0.0	0.0	0.0	4.614	4.647	4.6530000000000005	4.605	9.85692823486328	0.22565350646972654	0.13826514587402344	3.68499755859375	-4.215240478515625	-0.1678466796875	9.509170443725585	0.3363853332519531	0.43514615173339843	0.152587890625	-4.70733642578125	-2.99072265625	9.99220062866211	-0.0383072265625	-0.32620997619628905	3.566741943359375	-4.40216064453125	-2.017974853515625	
243	0.972	0.0	0.0	0.0	0.0	4.611	4.65	4.6530000000000005	4.59	10.006565838623047	0.12629413757324218	-0.04129997863769531	4.802703857421875	-5.035400390625	0.0	9.781510882568359	0.20231004028320312	0.24061726684570311	0.186920166015625	-5.077362060546875	-2.288818359375	9.78629928588867	0.2855085479736328	0.03531447448730469	3.620147705078125	-4.72259521484375	-2.071380615234375	
244	0.976	0.0	0.0	0.0	0.0	4.614	4.65	4.65	4.59	9.931747036743163	-0.23822306518554687	-0.005985504150390624	4.12750244140625	-4.15802001953125	0.16021728515625	9.73661960144043	0.21308394775390624	0.2902969512939453	0.759124755859375	-3.95965576171875	-3.047943115234375	10.223241088867187	-0.18734627990722655	-0.373495458984375	3.932952880859375	-4.352569580078125	-1.995086669921875	
245	0.98	0.0	0.0	0.0	0.0	4.617	4.647	0.003	0.006	9.990404977416992	0.0005985504150390625	-0.09576806640624999	4.550933837890625	-4.7149658203125	-0.034332275390625	9.789890588378906	0.15562310791015624	0.1227028350830078	0.57220458984375	-5.054473876953125	-2.7313232421875	9.772532626342773	0.21906945190429686	-0.07900865478515624	3.635406494140625	-4.550933837890625	-2.288818359375	
246	0.984	0.0	0.0	0.0	0.0	0.003	0.003	0.006	0.0	9.782707983398437	0.11192892761230468	0.054468087768554684	3.99017333984375	-4.3792724609375	-0.16021728515625	9.743203656005859	0.41419688720703124	0.1227028350830078	0.29754638671875	-4.94384765625	-2.6702880859375	9.881468801879882	0.08918401184082031	-0.30047230834960936	3.5400390625	-4.486083984375	-1.865386962890625	
247	0.988	0.0	0.0	0.0	0.0	0.003	0.003	0.003	0.006	10.061033926391602	0.020350714111328123	-0.2136824981689453	5.443572998046875	-5.27191162109375	0.240325927734375	9.919177478027343	0.08439560852050781	0.07242460021972656	0.377655029296875	-5.008697509765625	-2.55584716796875	10.223241088867187	0.06344634399414062	-0.37768531188964843	3.795623779296875	-4.695892333984375	-2.227783203125	
248	0.992	0.0	0.0	0.0	0.0	0.003	0.003	0.006	0.003	9.852139831542969	-0.1227028350830078	-0.12689268798828124	3.856658935546875	-4.0740966796875	-0.652313232421875	9.952696301269532	0.21487959899902342	-0.06823474731445311	0.522613525390625	-4.8370361328125	-2.719879150390625	10.192715017700195	-0.10115502014160156	-0.4321533996582031	3.814697265625	-4.38690185546875	-2.06756591796875	
249	0.996	0.0	0.0	0.0	0.0	0.003	0.006	0.003	0.006	9.543287817382812	0.06703764648437499	0.4417302062988281	0.614166259765625	-2.66265869140625	-1.514434814453125	9.661202249145507	0.3860650177001953	0.3220201232910156	-0.034332275390625	-4.7607421875	-2.285003662109375	9.885060104370117	0.19812018737792966	-0.26815058593749996	3.90625	-4.61578369140625	-2.178192138671875	
250	1.0	0.0	0.0	0.0	0.0	0.006	0.006	0.003	0.003	9.826402163696288	-0.35793314819335936	-0.06643909606933593	1.575469970703125	-3.05938720703125	-0.995635986328125	9.884461553955077	0.2609679809570312	0.011372457885742187	0.51116943359375	-5.001068115234375	-2.54058837890625	10.164583148193358	0.18614917907714842	-0.47644613037109373	3.665924072265625	-4.619598388671875	-1.811981201171875	
251	1.004	0.0	0.0	0.0	0.0	0.003	0.003	0.003	0.003	9.75517466430664	-0.04129997863769531	0.3268085266113281	1.13677978515625	-2.89154052734375	-1.30462646484375	9.968857162475585	0.2041056915283203	0.15382745666503905	0.23651123046875	-5.008697509765625	-2.81524658203125	10.345943923950195	-0.1227028350830078	-0.40462008056640625	3.7689208984375	-4.730224609375	-2.0599365234375	
252	1.008	0.0	0.0	0.0	0.0	0.006	0.006	0.003	0.006	9.758765966796874	-0.062249243164062495	-0.12868833923339842	0.125885009765625	-1.987457275390625	-2.017974853515625	9.919177478027343	0.2645592834472656	-0.1005564697265625	0.789642333984375	-4.886627197265625	-3.086090087890625	10.135852728271484	0.06883329772949218	-0.4339490509033203	3.6773681640625	-4.3487548828125	-2.349853515625	
253	1.012	0.0	0.0	0.0	0.0	0.003	0.003	0.003	0.006	9.543287817382812	0.1897404815673828	0.43514615173339843	0.84686279296875	-2.582550048828125	-1.739501953125	9.705494979858399	0.40282442932128903	0.3603273498535156	0.148773193359375	-4.917144775390625	-2.223968505859375	9.809044201660155	0.17776947326660156	-0.15682020874023436	3.520965576171875	-4.852294921875	-2.02178955078125	
254	1.016	0.0	0.0	0.0	0.0	0.003	0.006	0.006	0.006	9.950900650024414	0.15682020874023436	0.09457096557617187	-0.637054443359375	-2.170562744140625	-1.8157958984375	10.02332525024414	0.13347674255371092	0.015562310791015624	0.823974609375	-5.084991455078125	-2.948760986328125	10.398017810058594	-0.04608838195800781	-0.4991910461425781	3.936767578125	-4.604339599609375	-2.08282470703125	
255	1.02	0.0	0.0	0.0	0.0	0.009000000000000001	0.006	0.003	0.003	9.745597857666015	-0.029927520751953124	0.3184288208007812	0.179290771484375	-2.166748046875	-1.86920166015625	9.836577520751952	0.2902969512939453	0.15502455749511718	0.247955322265625	-4.7149658203125	-3.25775146484375	10.187328063964843	-0.07302315063476562	-0.24600422058105467	3.475189208984375	-4.669189453125	-2.26593017578125	
256	1.024	0.0	0.0	0.0	0.0	0.003	0.003	0.003	0.006	9.827000714111328	0.5578489868164063	0.2214636535644531	0.339508056640625	-2.288818359375	-1.689910888671875	9.695319622802733	0.36691140441894526	0.1005564697265625	0.579833984375	-4.917144775390625	-2.925872802734375	9.943119494628906	0.2920926025390625	-0.3860650177001953	3.59344482421875	-4.772186279296875	-2.223968505859375	
257	1.028	0.0	0.0	0.0	0.0	0.006	0.003	0.006	0.006	10.067617980957031	0.2950853546142578	0.12210428466796874	3.215789794921875	-4.1961669921875	-0.301361083984375	9.7683427734375	0.40940848388671874	0.22864625854492185	0.05340576171875	-4.810333251953125	-2.780914306640625	10.06163247680664	0.1227028350830078	-0.17896657409667968	3.459930419921875	-4.550933837890625	-1.995086669921875	
258	1.032	0.0	0.0	0.0	0.0	0.003	0.003	0.003	0.003	10.06881508178711	0.28371289672851563	-0.04608838195800781	0.835418701171875	-2.780914306640625	-1.6021728515625	9.958681805419921	-0.10474632263183593	0.03411737365722656	-0.1678466796875	-4.81414794921875	-3.0059814453125	10.281899029541014	-0.2932897033691406	-0.5793968017578125	3.681182861328125	-4.7760009765625	-2.35748291015625	
259	1.036	0.0	0.0	0.0	0.0	0.006	0.003	0.006	0.003	10.085574493408203	0.39444472351074217	-0.08918401184082031	4.33349609375	-4.2877197265625	-0.1678466796875	9.554660275268555	0.5099649536132812	0.35015199279785153	0.0	-4.3792724609375	-2.81524658203125	9.781510882568359	0.2184709014892578	-0.08978256225585937	3.56292724609375	-4.543304443359375	-2.155303955078125	
260	1.04	0.0	0.0	0.0	0.0	0.006	0.003	0.003	0.006	9.994594830322265	0.5805939025878906	0.181959326171875	0.946044921875	-2.685546875	-0.92315673828125	9.611522564697266	0.19991583862304688	0.25917232971191406	0.12969970703125	-5.10406494140625	-2.651214599609375	9.78031378173828	0.10893617553710937	-0.411802685546875	3.60107421875	-4.863739013671875	-2.117156982421875	
261	1.044	0.0	0.0	0.0	0.0	0.003	0.003	0.006	0.003	10.20229182434082	0.08200140686035155	-0.16819266662597654	5.306243896484375	-5.0811767578125	0.17547607421875	9.980828170776366	0.21966800231933592	0.16639701538085935	0.110626220703125	-4.730224609375	-2.655029296875	10.049661468505859	-0.05805939025878906	-0.18375497741699218	3.692626953125	-4.6844482421875	-2.201080322265625	
262	1.048	0.0	0.0	0.0	0.0	0.003	0.003	0.003	0.009000000000000001	10.006565838623047	-0.16819266662597654	-0.27892449340820313	6.7901611328125	-5.748748779296875	0.698089599609375	9.731232647705077	-0.013766659545898436	0.08499415893554688	0.011444091796875	-4.688262939453125	-3.2196044921875	9.849147079467773	-0.18854338073730467	-0.38247371520996093	3.7994384765625	-4.344940185546875	-2.704620361328125	
263	1.052	0.0	0.0	0.0	0.0	0.009000000000000001	0.003	0.006	0.006	10.01733974609375	0.37229835815429685	-0.08918401184082031	6.7596435546875	-5.50079345703125	1.209259033203125	9.49300958251953	0.5015852478027344	0.055066638183593745	0.152587890625	-4.81414794921875	-2.742767333984375	9.504382040405273	0.37289690856933594	-0.08140285644531249	3.635406494140625	-4.680633544921875	-2.13623046875	
264	1.056	0.0	0.0	0.0	0.0	0.003	0.003	0.003	0.006	9.871293444824218	-0.181959326171875	-0.06464344482421874	7.038116455078125	-6.168365478515625	1.59454345703125	9.935936889648437	-0.06105214233398437	0.04668693237304687	0.286102294921875	-5.31005859375	-2.64739990234375	9.851541281127929	-0.16639701538085935	-0.005985504150390624	3.6468505859375	-4.695892333984375	-1.880645751953125	
265	1.06	0.0	0.0	0.0	0.0	0.003	0.003	0.006	0.003	10.091559997558592	-0.20231004028320312	-0.39743747558593745	1.4801025390625	-3.292083740234375	-1.407623291015625	9.860519537353515	0.04548983154296875	-0.12689268798828124	0.232696533203125	-4.8675537109375	-2.780914306640625	10.01674119567871	-0.12330138549804687	-0.22266075439453123	3.696441650390625	-4.932403564453125	-2.5634765625	
266	1.064	0.0	0.0	0.0	0.0	0.009000000000000001	0.003	0.003	0.003	9.631274728393555	-0.34715924072265625	-0.06643909606933593	3.559112548828125	-4.123687744140625	-0.18310546875	9.586981997680663	0.24001871643066405	0.0053869537353515625	0.58746337890625	-5.08880615234375	-2.84576416015625	9.640851535034178	0.08259995727539061	-0.17836802368164062	3.543853759765625	-4.795074462890625	-2.38037109375	
267	1.068	0.0	0.0	0.0	0.0	0.003	0.003	0.003	0.006	9.624690673828125	-0.4495113616943359	0.2920926025390625	-1.819610595703125	-1.09100341796875	-2.124786376953125	9.655815295410155	0.10235212097167969	0.18914193115234373	0.217437744140625	-4.95147705078125	-2.422332763671875	9.88266590270996	0.1975216369628906	-0.07122749938964844	3.528594970703125	-4.512786865234375	-2.01416015625	
268	1.072	0.0	0.0	0.0	0.0	0.003	0.003	0.006	0.003	9.788094937133788	-0.7326257080078125	-0.055066638183593745	0.61798095703125	-2.758026123046875	-1.750946044921875	9.941323843383788	-0.10474632263183593	0.06464344482421874	1.148223876953125	-5.340576171875	-3.47137451171875	10.213664282226562	-0.430956298828125	-0.06344634399414062	3.5400390625	-4.6234130859375	-2.2125244140625	
269	1.076	0.0	0.0	0.0	0.0	0.003	0.003	0.003	0.003	9.884461553955077	-0.16041151123046873	0.08918401184082031	-1.47247314453125	-0.957489013671875	-2.44903564453125	9.874884747314452	0.36391865234375	0.04369418029785156	0.86212158203125	-4.665374755859375	-3.2806396484375	10.092158547973632	0.051475335693359374	-0.32022447204589843	3.765106201171875	-4.40216064453125	-2.685546875	
270	1.08	0.0	0.0	0.0	0.0	0.003	0.006	0.003	0.006	9.89523546142578	0.5189432098388671	0.38666356811523434	2.094268798828125	-3.276824951171875	-0.820159912109375	9.564237081909178	0.33518823242187495	0.3687070556640625	0.339508056640625	-5.214691162109375	-2.90679931640625	9.641450085449218	0.1388636962890625	0.10474632263183593	3.692626953125	-4.726409912109375	-1.739501953125	
271	1.084	0.0	0.0	0.0	0.0	0.006	0.003	0.003	0.006	10.064625228881836	0.0718260498046875	0.16819266662597654	2.902984619140625	-3.59344482421875	-1.007080078125	10.046668716430663	-0.025737667846679687	0.21248539733886718	0.64849853515625	-5.04302978515625	-2.826690673828125	10.380061297607421	-0.2699462371826172	-0.24779987182617186	3.875732421875	-4.180908203125	-2.086639404296875	
272	1.088	0.0	0.0	0.0	0.0	0.006	0.006	0.003	0.003	10.173561404418944	0.03232172241210937	0.07302315063476562	5.157470703125	-4.85992431640625	0.072479248046875	9.967061511230469	0.1005564697265625	0.21487959899902342	-0.225067138671875	-4.61578369140625	-2.887725830078125	10.32319900817871	-0.00718260498046875	-0.3573345977783203	3.612518310546875	-4.6844482421875	-2.292633056640625	
273	1.092	0.0	0.0	0.0	0.0	0.003	0.003	0.003	0.006	9.864709390258788	0.27892449340820313	0.15322890625	3.292083740234375	-3.85284423828125	0.003814697265625	9.613916766357422	0.4375403533935547	0.2549824768066406	0.5340576171875	-4.657745361328125	-2.593994140625	9.78031378173828	0.1927332336425781	-0.24301146850585936	3.65447998046875	-4.3792724609375	-2.14385986328125	
274	1.096	0.0	0.0	0.0	0.0	0.003	0.003	0.006	0.003	9.796474642944336	-0.00718260498046875	0.4273649963378906	4.669189453125	-4.657745361328125	0.308990478515625	9.821613760375977	0.0796072052001953	0.4525041137695312	0.240325927734375	-5.22613525390625	-2.498626708984375	10.17655415649414	0.11372457885742186	-0.1771709228515625	3.711700439453125	-4.7454833984375	-1.750946044921875	
275	1.1	0.0	0.0	0.0	0.0	0.006	0.006	0.003	0.003	9.893439810180663	-0.21308394775390624	-0.06105214233398437	1.102447509765625	-2.887725830078125	-1.819610595703125	10.150217938232421	0.23582886352539062	-0.11611878051757812	0.782012939453125	-4.695892333984375	-3.0059814453125	10.573991632080077	-0.3429693878173828	-0.6584054565429687	3.692626953125	-4.680633544921875	-2.285003662109375	
276	1.104	0.0	0.0	0.0	0.0	0.003	0.003	0.006	0.0	9.616310968017578	0.21068974609375	0.48722003784179685	3.650665283203125	-3.94439697265625	-0.6256103515625	9.627683425903319	0.3429693878173828	0.40402153015136716	0.431060791015625	-4.9285888671875	-2.666473388671875	9.87668039855957	0.4423287567138672	-0.1610100616455078	3.734588623046875	-4.695892333984375	-2.117156982421875	
277	1.108	0.0	0.0	0.0	0.0	0.003	0.003	0.003	0.009000000000000001	9.673173257446289	0.23642741394042968	0.38666356811523434	-1.068115234375	-1.674652099609375	-2.471923828125	9.79348189086914	0.535702621459961	0.08858546142578125	1.0223388671875	-4.779815673828125	-2.574920654296875	10.036493359375	0.00239420166015625	-0.32620997619628905	3.940582275390625	-4.749298095703125	-1.96075439453125	
278	1.112	0.0	0.0	0.0	0.0	0.003	0.003	0.006	0.0	9.82580361328125	-0.17357962036132812	0.34237083740234375	1.71661376953125	-3.261566162109375	-1.5716552734375	9.917381826782226	0.0939724151611328	0.2723404388427734	-0.179290771484375	-5.168914794921875	-2.84576416015625	10.265139617919921	0.005985504150390624	-0.21248539733886718	3.60107421875	-4.84466552734375	-2.346038818359375	
279	1.116	0.0	0.0	0.0	0.0	0.003	0.006	0.003	0.006	10.022726699829102	0.3399766357421875	0.011372457885742187	-0.156402587890625	-1.758575439453125	-1.682281494140625	9.833584768676758	0.5548562347412109	0.06883329772949218	0.63323974609375	-4.276275634765625	-3.032684326171875	10.174159954833984	-0.076614453125	-0.489015689086914	3.849029541015625	-4.337310791015625	-2.3956298828125	
280	1.12	0.0	0.0	0.0	0.0	0.009000000000000001	0.003	0.003	0.0	9.816825357055663	0.757166275024414	0.25139117431640623	3.7994384765625	-4.21142578125	-0.423431396484375	9.423577734375	0.41539398803710936	0.6105214233398437	-0.011444091796875	-4.7760009765625	-2.803802490234375	9.648034140014648	0.40282442932128903	0.01975216369628906	3.704071044921875	-4.695892333984375	-2.0751953125	
281	1.124	0.0	0.0	0.0	0.0	0.009000000000000001	0.003	0.003	0.006	10.062829577636718	0.002992752075195312	0.1149216796875	1.4190673828125	-2.925872802734375	-1.415252685546875	10.205284576416014	0.2861070983886719	0.1149216796875	0.75531005859375	-5.218505859375	-2.902984619140625	10.426149679565428	-0.17776947326660156	-0.4483142608642578	3.803253173828125	-4.119873046875	-2.0599365234375	
282	1.1280000000000001	0.0	0.0	0.0	0.0	0.003	0.003	0.003	4.593	9.986813674926758	0.5015852478027344	-0.07242460021972656	3.3721923828125	-3.940582275390625	-0.70953369140625	9.82460651245117	0.2262520568847656	0.24480711975097655	0.118255615234375	-4.67681884765625	-2.834320068359375	10.196904870605469	-0.07601590270996093	-0.3112462158203125	3.47137451171875	-4.489898681640625	-2.60162353515625	
283	1.1320000000000001	0.0	0.0	0.0	0.0	4.593	4.641	4.644	4.596	9.928754284667969	-0.3274070770263672	0.10893617553710937	1.689910888671875	-2.849578857421875	0.263214111328125	9.622296472167967	0.4991910461425781	0.21428104858398436	0.545501708984375	-4.581451416015625	-2.655029296875	9.744400756835937	0.4225765930175781	-0.3315969299316406	3.77655029296875	-4.833221435546875	-2.06756591796875	
284	1.1360000000000001	0.0	0.0	0.0	0.0	4.605	4.65	4.65	4.587	9.950900650024414	-0.15981296081542967	0.05626373901367187	0.881195068359375	-2.910614013671875	-1.10626220703125	9.692925421142577	0.3094505645751953	0.4291606475830078	0.041961669921875	-4.611968994140625	-2.910614013671875	9.918578927612304	0.0652419952392578	0.04668693237304687	3.4332275390625	-5.001068115234375	-2.086639404296875	
285	1.1400000000000001	0.0	0.0	0.0	0.0	4.614	4.65	4.647	4.587	10.315417852783202	0.6542156036376953	-0.2885013000488281	6.343841552734375	-5.4168701171875	0.965118408203125	10.069413632202147	0.0987608184814453	-0.05087678527832031	0.5035400390625	-4.711151123046875	-2.99835205078125	10.263942517089843	-0.0718260498046875	-0.37828386230468747	3.4942626953125	-4.58526611328125	-2.063751220703125	
286	1.1440000000000001	0.0	0.0	0.0	0.0	4.614	4.647	4.65	4.605	10.06163247680664	0.7535749725341796	-0.08798691101074219	5.657196044921875	-5.084991455078125	-0.06866455078125	9.557653027343749	0.3848679168701172	0.27293898925781246	0.064849853515625	-4.638671875	-3.021240234375	9.690531219482422	0.002992752075195312	-0.18435352783203124	3.696441650390625	-4.7454833984375	-2.544403076171875	
287	1.1480000000000001	0.0	0.0	0.0	0.0	4.602	4.65	4.65	4.605	9.79946739501953	0.3232172241210937	0.17178396911621094	5.695343017578125	-5.329132080078125	0.3204345703125	9.715071786499022	0.2214636535644531	0.2154781494140625	0.67138671875	-5.0811767578125	-2.658843994140625	9.735422500610351	0.2753331909179687	-0.0526724365234375	3.68499755859375	-4.878997802734375	-1.739501953125	
288	1.1520000000000001	0.0	0.0	0.0	0.0	4.6080000000000005	4.647	4.647	4.605	9.85094273071289	-0.5482721801757812	0.105344873046875	2.87628173828125	-3.841400146484375	-0.400543212890625	9.82520506286621	0.181959326171875	0.19812018737792966	-0.003814697265625	-4.787445068359375	-3.139495849609375	10.076596237182617	-0.3286041778564453	-0.21428104858398436	4.062652587890625	-4.547119140625	-2.3345947265625	
289	1.156	0.0	0.0	0.0	0.0	4.6080000000000005	4.65	4.647	4.614	9.910199221801758	-0.062249243164062495	-0.020350714111328123	2.08282470703125	-3.025054931640625	-0.293731689453125	9.76894132385254	0.10474632263183593	0.04249707946777344	0.52642822265625	-4.871368408203125	-3.147125244140625	10.032303506469725	0.15442600708007811	-0.25318682556152344	3.719329833984375	-4.558563232421875	-2.437591552734375	
290	1.16	0.0	0.0	0.0	0.0	4.614	4.65	4.6530000000000005	4.599	9.749787710571288	0.23523031311035156	0.24061726684570311	2.6092529296875	-3.673553466796875	-0.58746337890625	9.427169036865234	0.47884033203125	0.39743747558593745	0.209808349609375	-4.840850830078125	-3.021240234375	9.4864255279541	0.055066638183593745	0.059256491088867186	3.70025634765625	-4.146575927734375	-2.28118896484375	
291	1.164	0.0	0.0	0.0	0.0	4.614	4.65	4.65	4.59	10.007762939453125	0.17357962036132812	-0.00718260498046875	3.90625	-4.37164306640625	-0.52642822265625	9.803657247924804	0.051475335693359374	0.12808978881835936	0.42724609375	-5.0506591796875	-2.8076171875	9.94072529296875	0.1304839904785156	-0.040701428222656245	3.66973876953125	-4.85992431640625	-2.201080322265625	
292	1.168	0.0	0.0	0.0	0.0	4.614	4.647	1.629	0.003	10.128670123291014	0.01975216369628906	-0.10175357055664062	5.54656982421875	-4.703521728515625	-0.16021728515625	9.996989031982421	0.12808978881835936	-0.040701428222656245	0.335693359375	-4.787445068359375	-2.902984619140625	9.97184991455078	-0.25797522888183594	-0.2454056701660156	3.7078857421875	-4.61578369140625	-2.02178955078125	
293	1.172	0.0	0.0	0.0	0.0	0.006	0.003	0.006	0.003	9.935936889648437	-0.07422025146484375	-0.05746083984375	4.06646728515625	-4.12750244140625	-0.00762939453125	9.554061724853515	0.21607669982910155	0.2154781494140625	0.186920166015625	-4.75311279296875	-2.780914306640625	9.639055883789062	0.2855085479736328	-0.044292730712890624	3.734588623046875	-4.486083984375	-2.29644775390625	
294	1.176	0.0	0.0	0.0	0.0	-0.003	0.003	0.003	0.006	9.94072529296875	0.04249707946777344	0.23642741394042968	5.062103271484375	-5.001068115234375	0.70953369140625	9.715670336914062	0.2603694305419922	0.18375497741699218	0.17547607421875	-4.581451416015625	-2.819061279296875	9.995193380737303	0.027533319091796873	-0.4177881896972656	3.726959228515625	-4.64630126953125	-1.918792724609375	
295	1.18	0.0	0.0	0.0	0.0	0.003	0.006	0.003	0.003	10.072406384277343	-0.26874913635253905	-0.31663316955566406	4.82940673828125	-4.787445068359375	0.118255615234375	10.083180291748047	0.08439560852050781	-0.08140285644531249	0.202178955078125	-5.1116943359375	-2.29644775390625	10.092158547973632	-0.0383072265625	-0.2914940521240234	3.849029541015625	-4.619598388671875	-2.44903564453125	
296	1.184	0.0	0.0	0.0	0.0	0.003	0.003	0.003	0.006	9.809044201660155	-0.25917232971191406	-0.1771709228515625	2.26593017578125	-3.101348876953125	-1.499176025390625	9.771934075927733	0.14425065002441406	-0.022146365356445312	0.247955322265625	-4.730224609375	-3.0517578125	10.192116467285155	-0.07003039855957031	-0.6751648681640625	3.627777099609375	-4.566192626953125	-2.09808349609375	
297	1.188	0.0	0.0	0.0	0.0	0.006	0.003	0.003	0.003	9.733028298950195	-0.3130418670654297	0.07242460021972656	3.60107421875	-4.08172607421875	-0.5645751953125	9.677363110351562	0.3711012573242187	0.17597382202148437	0.240325927734375	-4.940032958984375	-2.414703369140625	9.834183319091796	0.07062894897460938	-0.08200140686035155	3.726959228515625	-4.459381103515625	-1.97601318359375	
298	1.192	0.0	0.0	0.0	0.0	0.003	0.003	0.006	0.006	9.7683427734375	-0.296881005859375	-0.20350714111328125	0.308990478515625	-2.475738525390625	-1.79290771484375	10.029310754394531	0.11791443176269531	-0.20709844360351562	0.37384033203125	-4.913330078125	-2.620697021484375	10.325593209838866	-0.15382745666503905	-0.5410895751953124	3.772735595703125	-4.627227783203125	-2.193450927734375	
299	1.196	0.0	0.0	0.0	0.0	0.009000000000000001	0.003	0.003	0.006	9.920374578857421	-0.3429693878173828	-0.11192892761230468	3.292083740234375	-3.833770751953125	-0.690460205078125	9.90241806640625	0.17238251953125	0.06643909606933593	0.072479248046875	-4.703521728515625	-2.773284912109375	10.311826550292968	-0.17178396911621094	-0.5237316131591797	3.54766845703125	-4.23431396484375	-2.37274169921875	
300	1.2	0.0	0.0	0.0	0.0	0.003	0.006	0.006	0.003	9.657012396240233	-0.10235212097167969	-0.06883329772949218	-0.034332275390625	-2.208709716796875	-2.20489501953125	9.756970315551758	0.28790274963378903	0.05027823486328125	0.8087158203125	-5.092620849609375	-3.032684326171875	10.022128149414062	0.19572598571777342	-0.6015431671142578	3.82232666015625	-4.5013427734375	-2.124786376953125	
301	1.204	0.0	0.0	0.0	0.0	0.006	0.003	0.003	0.009000000000000001	9.647435589599608	0.10714052429199218	0.3848679168701172	-0.278472900390625	-2.00653076171875	-1.667022705078125	9.631873278808593	0.47165772705078124	0.3591302490234375	0.1220703125	-4.69970703125	-2.574920654296875	10.092757098388672	-0.03591302490234375	-0.3064578125	3.3721923828125	-4.72259521484375	-1.7852783203125	
302	1.208	0.0	0.0	0.0	0.0	0.006	0.003	0.003	0.003	9.860519537353515	-0.36631285400390623	-0.28909985046386716	-0.499725341796875	-2.269744873046875	-2.162933349609375	10.122684619140625	0.1514332550048828	-0.28371289672851563	0.820159912109375	-4.688262939453125	-2.98309326171875	10.481814868164061	-0.1897404815673828	-0.7894879974365234	3.887176513671875	-4.665374755859375	-2.2735595703125	
303	1.212	0.0	0.0	0.0	0.0	0.0	0.006	0.006	0.003	9.667786303710937	0.3315969299316406	0.3716998077392578	0.1068115234375	-2.14385986328125	-2.06756591796875	9.641450085449218	0.32501287536621093	0.28371289672851563	0.38909912109375	-4.66156005859375	-2.666473388671875	10.006565838623047	0.028730419921875	-0.23882161560058593	3.627777099609375	-4.489898681640625	-2.28118896484375	
304	1.216	0.0	0.0	0.0	0.0	0.003	0.003	0.003	0.006	9.628281976318359	-0.008978256225585938	0.13347674255371092	1.25885009765625	-3.070831298828125	-1.09100341796875	9.801861596679688	0.4560954162597656	0.10893617553710937	0.240325927734375	-5.031585693359375	-3.13568115234375	10.052055670166014	0.12330138549804687	-0.5123591552734374	3.66973876953125	-4.791259765625	-2.06756591796875	
305	1.22	0.0	0.0	0.0	0.0	0.006	0.003	0.003	0.006	9.830592016601562	0.23403321228027343	0.28311434631347654	0.31280517578125	-2.44903564453125	-1.964569091796875	9.871891995239258	0.13168109130859373	0.25258827514648435	0.316619873046875	-4.718780517578125	-2.834320068359375	10.180744009399413	-0.025139117431640625	-0.26216508178710934	3.520965576171875	-4.802703857421875	-1.85394287109375	
