	time	dac1	dac2	dac3	dac4	adc1.3	adc2.3	adc3.3	adc4.3	imu1accx	imu1accy	imu1accz	imu1gyrox	imu1gyroy	imu1gyroz	imu2accx	imu2accy	imu2accz	imu2gyrox	imu2gyroy	imu2gyroz	imu3accx	imu3accy	imu3accz	imu3gyrox	imu3gyroy	imu3gyroz	log
0	0.0	0.0	0.0	0.0	0.0	4.6080000000000005	4.65	4.65	4.587	9.87727894897461	-0.16998831787109375	0.1005564697265625	2.57110595703125	-3.6773681640625	-0.8544921875	9.783905084228515	0.35613749694824215	0.19333178405761717	0.22125244140625	-4.894256591796875	-2.5634765625	9.999981784057617	-0.02154781494140625	-0.21248539733886718	3.688812255859375	-4.718780517578125	-2.17437744140625	Estabilizou em 5s, 623 rpm
1	0.004	0.0	0.0	0.0	0.0	4.614	4.647	4.65	4.593	9.87727894897461	-0.17118541870117188	0.10175357055664062	2.79998779296875	-3.7078857421875	-0.850677490234375	9.785102185058593	0.35673604736328124	0.19093758239746092	0.545501708984375	-4.894256591796875	-2.941131591796875	10.005967288208007	-0.002992752075195312	-0.22206220397949217	3.66973876953125	-4.8065185546875	-1.979827880859375	Started
2	0.008	0.0	0.0	0.0	0.0	4.614	4.641	4.65	4.605	9.871293444824218	-0.16819266662597654	0.09457096557617187	2.61688232421875	-3.570556640625	-0.90789794921875	9.783306533813477	0.3573345977783203	0.1849520782470703	0.3509521484375	-4.802703857421875	-2.79998779296875	10.011952792358398	-0.005985504150390624	-0.22445640563964842	3.597259521484375	-4.596710205078125	-2.105712890625	IMU1|LSM6DS3|0x6A|I2C-1|±2g (±19,6m/s²)|±125º/s|400Hz
3	0.012	0.0	0.0	0.0	0.0	4.611	4.65	4.6530000000000005	4.611	9.87009634399414	-0.17298106994628906	0.10235212097167969	2.399444580078125	-3.467559814453125	-0.858306884765625	9.785700735473633	0.3507505432128906	0.18614917907714842	0.3814697265625	-4.95147705078125	-2.834320068359375	10.022726699829102	-0.011971008300781249	-0.2262520568847656	3.6163330078125	-4.726409912109375	-2.23541259765625	IMU2|LSM6DS3|0x6B|I2C-1|±2g (±19,6m/s²)|±125º/s|400Hz
4	0.016	0.0	0.0	0.0	0.0	4.611	4.65	4.65	4.605	9.87727894897461	-0.1693897674560547	0.08858546142578125	2.66265869140625	-3.48663330078125	-0.804901123046875	9.784503634643555	0.3537432952880859	0.19512743530273435	0.324249267578125	-5.077362060546875	-2.956390380859375	10.013149893188476	-0.01975216369628906	-0.2088940948486328	3.70025634765625	-4.73785400390625	-2.353668212890625	IMU3|LSM6DS3|0x6B|I2C-2|±2g (±19,6m/s²)|±125º/s|400Hz
5	0.02	0.0	0.0	0.0	0.0	4.602	4.65	4.644	4.611	9.88386300354004	-0.17118541870117188	0.086191259765625	2.574920654296875	-3.582000732421875	-0.896453857421875	9.783905084228515	0.3597287994384765	0.20290859069824219	0.16021728515625	-4.63104248046875	-2.948760986328125	10.015544094848632	-0.008978256225585938	-0.19991583862304688	3.444671630859375	-4.55474853515625	-2.1820068359375	ADC|ADS1015|0|0|1|0|±6,144 V|2400 SPS
6	0.024	0.0	0.0	0.0	0.0	4.611	4.65	4.65	4.593	9.878476049804688	-0.17776947326660156	0.08559270935058594	2.4871826171875	-3.604888916015625	-0.89263916015625	9.772532626342773	0.36272155151367186	0.19512743530273435	0.110626220703125	-5.046844482421875	-2.86865234375	10.005967288208007	-0.00718260498046875	-0.19393033447265623	3.597259521484375	-4.40216064453125	-2.223968505859375	Gen1|Disabled
7	0.028	0.0	0.0	0.0	0.0	4.611	4.65	4.65	4.587	9.873687646484374	-0.15981296081542967	0.07721300354003906	2.567291259765625	-3.70025634765625	-0.865936279296875	9.779116680908203	0.36810850524902344	0.19213468322753904	0.446319580078125	-4.932403564453125	-2.90679931640625	10.012551342773437	-0.008379705810546874	-0.19213468322753904	3.643035888671875	-4.711151123046875	-1.953125	Gen2|Enabled|Noise|0.0|10.0|1668
8	0.032	0.0	0.0	0.0	0.0	4.614	4.65	4.6530000000000005	4.593	9.878476049804688	-0.1562216583251953	0.07302315063476562	2.44903564453125	-3.56292724609375	-0.988006591796875	9.785102185058593	0.3752911102294922	0.19512743530273435	0.1678466796875	-4.87518310546875	-2.655029296875	10.006565838623047	0.00239420166015625	-0.1897404815673828	3.589630126953125	-4.764556884765625	-2.285003662109375	Gen3|Enabled|Noise|0.0|10.0|128
9	0.036000000000000004	0.0	0.0	0.0	0.0	4.614	4.638	4.6530000000000005	4.605	9.883264453125	-0.1466448516845703	0.06404489440917968	2.689361572265625	-3.76129150390625	-0.78582763671875	9.776722479248047	0.38307226562499996	0.17298106994628906	0.576019287109375	-5.046844482421875	-2.857208251953125	10.011952792358398	0.0053869537353515625	-0.18734627990722655	3.520965576171875	-4.535675048828125	-2.08282470703125	Gen4|Enabled|Noise|0.0|10.0|128
10	0.04	0.0	0.0	0.0	0.0	4.611	4.65	4.6530000000000005	4.6080000000000005	9.888052856445311	-0.13587094421386717	0.06943184814453125	2.559661865234375	-3.383636474609375	-0.77056884765625	9.784503634643555	0.3920505218505859	0.16041151123046873	0.576019287109375	-4.8675537109375	-2.864837646484375	10.007762939453125	0.015562310791015624	-0.20231004028320312	3.719329833984375	-4.817962646484375	-2.044677734375	Ctrl|Disabled
11	0.044	0.0	0.0	0.0	0.0	4.605	4.65	4.65	4.611	9.868899243164062	-0.12150573425292968	0.05027823486328125	2.8076171875	-3.753662109375	-1.068115234375	9.782707983398437	0.39923312683105466	0.16879121704101563	0.537872314453125	-4.81414794921875	-2.90679931640625	10.007164389038085	0.033518823242187495	-0.2346317626953125	3.54766845703125	-4.497528076171875	-2.048492431640625	
12	0.048	0.0	0.0	0.0	0.0	4.602	4.65	4.647	4.614	9.859920986938477	-0.12030863342285156	0.04908113403320312	2.76947021484375	-3.3111572265625	-0.888824462890625	9.781510882568359	0.4129997863769531	0.15382745666503905	0.461578369140625	-4.78363037109375	-2.780914306640625	10.005368737792969	0.03531447448730469	-0.23822306518554687	3.681182861328125	-4.360198974609375	-2.040863037109375	
13	0.052000000000000005	0.0	0.0	0.0	0.0	4.614	4.6530000000000005	4.65	4.596	9.867702142333984	-0.11013327636718749	0.04967968444824218	2.590179443359375	-3.749847412109375	-0.896453857421875	9.776123928833007	0.4267664459228515	0.13347674255371092	0.55694580078125	-4.85992431640625	-2.910614013671875	10.020332498168944	0.06105214233398437	-0.24600422058105467	3.688812255859375	-4.421234130859375	-1.9683837890625	
14	0.056	0.0	0.0	0.0	0.0	4.614	4.65	4.65	4.587	9.864709390258788	-0.09935936889648436	0.04608838195800781	2.567291259765625	-3.734588623046875	-0.80108642578125	9.782707983398437	0.4447229583740234	0.12389993591308593	0.4730224609375	-4.95147705078125	-2.971649169921875	10.013748443603514	0.07541735229492187	-0.277727392578125	3.7689208984375	-4.535675048828125	-1.888275146484375	
15	0.06	0.0	0.0	0.0	0.0	4.614	4.647	4.65	4.596	9.872490545654296	-0.08379705810546874	0.03890577697753906	2.941131591796875	-3.528594970703125	-0.904083251953125	9.784503634643555	0.45070846252441404	0.11252747802734374	0.293731689453125	-4.8370361328125	-2.99835205078125	10.008361489868163	0.08499415893554688	-0.28490999755859375	3.711700439453125	-4.7454833984375	-2.346038818359375	
16	0.064	0.0	0.0	0.0	0.0	4.611	4.6530000000000005	4.6530000000000005	4.6080000000000005	9.87009634399414	-0.07003039855957031	0.02693476867675781	2.552032470703125	-3.864288330078125	-0.99945068359375	9.783905084228515	0.45489831542968745	0.12569558715820311	0.2288818359375	-4.871368408203125	-3.04412841796875	10.006565838623047	0.08798691101074219	-0.296881005859375	3.635406494140625	-4.512786865234375	-2.11334228515625	
17	0.068	0.0	0.0	0.0	0.0	4.6080000000000005	4.65	4.6530000000000005	4.605	9.880271701049804	-0.06643909606933593	0.02693476867675781	2.49481201171875	-3.53240966796875	-1.01470947265625	9.779715231323241	0.4674678741455078	0.1197100830078125	0.324249267578125	-4.84466552734375	-2.880096435546875	10.01733974609375	0.09636661682128905	-0.3010708587646484	3.376007080078125	-4.505157470703125	-2.185821533203125	
18	0.07200000000000001	0.0	0.0	0.0	0.0	4.605	4.65	4.65	4.614	9.882067352294921	-0.06763619689941405	0.02693476867675781	2.681732177734375	-3.70025634765625	-1.01470947265625	9.78629928588867	0.47285482788085936	0.11252747802734374	0.34332275390625	-4.909515380859375	-2.9754638671875	10.005368737792969	0.09935936889648436	-0.2932897033691406	3.719329833984375	-4.638671875	-2.09808349609375	
19	0.076	0.0	0.0	0.0	0.0	4.614	4.65	4.641	4.611	9.871891995239258	-0.06943184814453125	0.012569558715820313	2.6397705078125	-3.681182861328125	-0.934600830078125	9.785102185058593	0.46806642456054687	0.12150573425292968	0.3814697265625	-4.901885986328125	-2.979278564453125	10.011354241943359	0.0909796630859375	-0.2855085479736328	3.566741943359375	-4.64630126953125	-2.170562744140625	
20	0.08	0.0	0.0	0.0	0.0	4.611	4.6530000000000005	4.644	4.593	9.873089096069336	-0.05686228942871093	0.015562310791015624	2.536773681640625	-3.68499755859375	-0.762939453125	9.782707983398437	0.46028526916503903	0.11791443176269531	0.354766845703125	-5.02777099609375	-2.72369384765625	10.014945544433592	0.1005564697265625	-0.2663549346923828	3.692626953125	-4.73785400390625	-2.2125244140625	
21	0.084	0.0	0.0	0.0	0.0	4.614	4.65	4.65	4.5840000000000005	9.87009634399414	-0.05985504150390625	0.029927520751953124	2.414703369140625	-3.4332275390625	-0.80108642578125	9.785102185058593	0.4578910675048828	0.1388636962890625	0.308990478515625	-4.894256591796875	-2.86102294921875	10.01015714111328	0.09217676391601562	-0.2555810272216797	3.59344482421875	-4.47845458984375	-2.140045166015625	
22	0.088	0.0	0.0	0.0	0.0	4.614	4.647	4.6530000000000005	4.599	9.87608184814453	-0.076614453125	0.03232172241210937	2.307891845703125	-3.498077392578125	-0.8544921875	9.787496386718749	0.4471171600341797	0.1388636962890625	0.34332275390625	-4.772186279296875	-2.79998779296875	10.019135397338866	0.08379705810546874	-0.25139117431640623	3.65447998046875	-4.619598388671875	-2.063751220703125	
23	0.092	0.0	0.0	0.0	0.0	4.611	4.6530000000000005	4.6530000000000005	4.602	9.873687646484374	-0.08499415893554688	0.04908113403320312	2.582550048828125	-3.47137451171875	-0.873565673828125	9.78629928588867	0.4387374542236328	0.1466448516845703	0.37384033203125	-5.092620849609375	-2.9754638671875	10.011952792358398	0.07721300354003906	-0.23104046020507812	3.635406494140625	-4.82940673828125	-2.15911865234375	
24	0.096	0.0	0.0	0.0	0.0	4.611	4.65	4.6530000000000005	4.6080000000000005	9.872490545654296	-0.08918401184082031	0.04668693237304687	2.5787353515625	-3.665924072265625	-0.75531005859375	9.785102185058593	0.4321533996582031	0.15562310791015624	0.396728515625	-4.89044189453125	-3.02886962890625	10.019733947753906	0.07721300354003906	-0.21308394775390624	3.59344482421875	-4.55474853515625	-2.044677734375	
25	0.1	0.0	0.0	0.0	0.0	4.605	4.65	4.65	4.617	9.872490545654296	-0.10354922180175781	0.044292730712890624	2.69317626953125	-3.559112548828125	-0.812530517578125	9.785102185058593	0.4273649963378906	0.16160861206054686	0.431060791015625	-5.04302978515625	-3.021240234375	10.007762939453125	0.06464344482421874	-0.22026655273437498	3.505706787109375	-4.581451416015625	-2.0599365234375	
26	0.10400000000000001	0.0	0.0	0.0	0.0	4.617	4.65	4.641	4.605	9.874884747314452	-0.10235212097167969	0.05327098693847656	2.490997314453125	-3.72314453125	-0.92315673828125	9.787496386718749	0.40880993347167965	0.15981296081542967	0.179290771484375	-4.673004150390625	-2.880096435546875	10.013149893188476	0.05327098693847656	-0.2088940948486328	3.726959228515625	-4.92095947265625	-2.323150634765625	
27	0.108	0.0	0.0	0.0	0.0	4.6080000000000005	4.647	4.65	4.59	9.878476049804688	-0.1227028350830078	0.06344634399414062	2.452850341796875	-3.665924072265625	-0.835418701171875	9.787496386718749	0.41060558471679687	0.17058686828613281	0.60272216796875	-5.107879638671875	-3.01361083984375	10.013748443603514	0.04967968444824218	-0.21428104858398436	3.604888916015625	-4.695892333984375	-2.1514892578125	
28	0.112	0.0	0.0	0.0	0.0	4.617	4.65	4.65	4.587	9.87608184814453	-0.12210428466796874	0.08140285644531249	2.605438232421875	-3.60107421875	-0.804901123046875	9.78031378173828	0.40462008056640625	0.17776947326660156	0.446319580078125	-4.852294921875	-2.880096435546875	10.01015714111328	0.04668693237304687	-0.21009119567871093	3.4637451171875	-4.383087158203125	-2.246856689453125	
29	0.116	0.0	0.0	0.0	0.0	4.617	4.644	4.647	4.605	9.872490545654296	-0.12330138549804687	0.08319850769042968	2.7313232421875	-3.475189208984375	-1.12152099609375	9.785102185058593	0.40581718139648437	0.18136077575683593	0.354766845703125	-4.543304443359375	-2.92205810546875	10.011354241943359	0.037110125732421874	-0.19931728820800781	3.650665283203125	-4.627227783203125	-2.086639404296875	
30	0.12	0.0	0.0	0.0	0.0	4.611	4.65	4.6530000000000005	4.605	9.868899243164062	-0.13168109130859373	0.07362170104980469	2.8533935546875	-3.662109375	-0.80108642578125	9.784503634643555	0.39983167724609375	0.1897404815673828	0.5645751953125	-4.894256591796875	-2.979278564453125	10.007762939453125	0.03531447448730469	-0.20530279235839843	3.719329833984375	-4.718780517578125	-2.22015380859375	
31	0.124	0.0	0.0	0.0	0.0	4.611	4.6530000000000005	4.6530000000000005	4.6080000000000005	9.86291373901367	-0.13108254089355467	0.08918401184082031	2.74658203125	-3.696441650390625	-0.93841552734375	9.782707983398437	0.39324762268066404	0.19093758239746092	0.514984130859375	-4.878997802734375	-3.009796142578125	10.01075569152832	0.03651157531738281	-0.20769699401855468	3.887176513671875	-4.638671875	-2.349853515625	
32	0.128	0.0	0.0	0.0	0.0	4.599	4.65	4.65	4.614	9.878476049804688	-0.13587094421386717	0.08559270935058594	2.43377685546875	-3.45611572265625	-0.820159912109375	9.785102185058593	0.39324762268066404	0.17238251953125	0.324249267578125	-4.810333251953125	-2.902984619140625	10.007762939453125	0.022744915771484374	-0.2232593048095703	3.482818603515625	-4.482269287109375	-2.071380615234375	
33	0.132	0.0	0.0	0.0	0.0	4.614	4.65	4.65	4.599	9.877877499389648	-0.143652099609375	0.08858546142578125	2.471923828125	-3.70025634765625	-0.762939453125	9.78629928588867	0.3854664672851562	0.17058686828613281	0.362396240234375	-4.779815673828125	-2.750396728515625	10.013748443603514	0.025737667846679687	-0.23223756103515625	3.849029541015625	-4.619598388671875	-2.101898193359375	
34	0.136	0.0	0.0	0.0	0.0	4.611	4.6530000000000005	4.65	4.59	9.877877499389648	-0.14425065002441406	0.09696516723632811	2.55584716796875	-3.459930419921875	-0.751495361328125	9.783905084228515	0.37888241271972656	0.17477672119140625	0.232696533203125	-4.72259521484375	-2.956390380859375	10.006565838623047	0.018555062866210937	-0.21906945190429686	3.704071044921875	-4.543304443359375	-1.918792724609375	
35	0.14	0.0	0.0	0.0	0.0	4.614	4.65	4.65	4.59	9.879074600219726	-0.14963760375976562	0.08259995727539061	2.498626708984375	-3.5400390625	-0.865936279296875	9.772532626342773	0.3699041564941406	0.17597382202148437	0.164031982421875	-4.772186279296875	-2.8076171875	10.013748443603514	0.007781155395507812	-0.22445640563964842	3.604888916015625	-4.55474853515625	-2.155303955078125	
36	0.14400000000000002	0.0	0.0	0.0	0.0	4.614	4.641	4.647	4.602	9.878476049804688	-0.16340426330566404	0.08200140686035155	2.422332763671875	-3.704071044921875	-1.140594482421875	9.784503634643555	0.37768531188964843	0.18136077575683593	0.507354736328125	-4.92095947265625	-2.87628173828125	10.00955859069824	0.010175357055664061	-0.22206220397949217	3.459930419921875	-4.57763671875	-1.9378662109375	
37	0.148	0.0	0.0	0.0	0.0	4.6080000000000005	4.65	4.6530000000000005	4.6080000000000005	9.871293444824218	-0.16759411621093748	0.08379705810546874	2.513885498046875	-3.597259521484375	-0.77056884765625	9.782707983398437	0.3711012573242187	0.17776947326660156	0.125885009765625	-4.489898681640625	-2.864837646484375	10.018536846923828	0.009576806640625	-0.2232593048095703	3.51715087890625	-4.573822021484375	-2.117156982421875	
38	0.152	0.0	0.0	0.0	0.0	4.611	4.65	4.65	4.605	9.872490545654296	-0.16879121704101563	0.08379705810546874	2.651214599609375	-3.56292724609375	-0.90789794921875	9.775525378417969	0.35673604736328124	0.18375497741699218	0.4425048828125	-4.7607421875	-2.9144287109375	10.022128149414062	-0.00718260498046875	-0.2184709014892578	3.482818603515625	-4.7760009765625	-1.995086669921875	
39	0.156	0.0	0.0	0.0	0.0	4.605	4.65	4.647	4.617	9.880870251464843	-0.17238251953125	0.086191259765625	2.44903564453125	-3.452301025390625	-0.812530517578125	9.776722479248047	0.354341845703125	0.18315642700195311	0.263214111328125	-4.84466552734375	-3.07464599609375	10.017938296508788	-0.013766659545898436	-0.20171148986816406	3.47137451171875	-4.7454833984375	-2.140045166015625	
40	0.16	0.0	0.0	0.0	0.0	4.617	4.65	4.65	4.596	9.873687646484374	-0.17836802368164062	0.08559270935058594	2.429962158203125	-3.681182861328125	-0.81634521484375	9.783905084228515	0.3597287994384765	0.19572598571777342	0.102996826171875	-4.8675537109375	-2.819061279296875	10.020931048583984	-0.011372457885742187	-0.20829554443359374	3.47137451171875	-4.436492919921875	-2.105712890625	
41	0.164	0.0	0.0	0.0	0.0	4.614	4.6530000000000005	4.65	4.587	9.872490545654296	-0.17357962036132812	0.09038111267089843	2.384185791015625	-3.780364990234375	-0.995635986328125	9.773729727172851	0.3591302490234375	0.19632453613281248	0.354766845703125	-4.96673583984375	-2.925872802734375	10.01733974609375	-0.008978256225585938	-0.20470424194335937	3.54766845703125	-4.802703857421875	-1.9378662109375	
42	0.168	0.0	0.0	0.0	0.0	4.614	4.65	4.65	4.593	9.868899243164062	-0.1693897674560547	0.08200140686035155	2.666473388671875	-3.650665283203125	-0.850677490234375	9.782707983398437	0.35673604736328124	0.18854338073730467	0.1983642578125	-4.95147705078125	-2.95257568359375	10.013748443603514	-0.02154781494140625	-0.20350714111328125	3.665924072265625	-4.734039306640625	-2.124786376953125	
43	0.17200000000000001	0.0	0.0	0.0	0.0	4.611	4.641	4.6530000000000005	4.605	9.880870251464843	-0.17178396911621094	0.07003039855957031	2.7008056640625	-3.643035888671875	-0.728607177734375	9.783306533813477	0.35793314819335936	0.17657237243652343	0.019073486328125	-4.764556884765625	-2.872467041015625	10.020332498168944	-0.00239420166015625	-0.2059013427734375	3.54766845703125	-4.486083984375	-2.11334228515625	
44	0.176	0.0	0.0	0.0	0.0	4.62	4.6530000000000005	4.6530000000000005	4.6080000000000005	9.865307940673828	-0.16160861206054686	0.059256491088867186	2.552032470703125	-3.765106201171875	-0.904083251953125	9.785102185058593	0.36691140441894526	0.17118541870117188	0.45013427734375	-4.993438720703125	-3.0059814453125	10.019733947753906	-0.003591302490234375	-0.2136824981689453	4.03594970703125	-4.730224609375	-2.155303955078125	
45	0.18	0.0	0.0	0.0	0.0	4.611	4.65	4.65	4.611	9.871891995239258	-0.15322890625	0.06464344482421874	2.704620361328125	-3.62396240234375	-0.885009765625	9.779116680908203	0.373495458984375	0.15981296081542967	0.2288818359375	-4.856109619140625	-3.070831298828125	10.019733947753906	0.0005985504150390625	-0.21906945190429686	3.696441650390625	-4.5318603515625	-2.086639404296875	
46	0.184	0.0	0.0	0.0	0.0	4.599	4.6530000000000005	4.647	4.614	9.87608184814453	-0.15322890625	0.05805939025878906	2.7008056640625	-3.4637451171875	-0.83160400390625	9.783905084228515	0.3872621185302734	0.16041151123046873	0.51116943359375	-5.191802978515625	-2.841949462890625	10.011354241943359	0.020350714111328123	-0.2346317626953125	3.704071044921875	-4.528045654296875	-2.32696533203125	
47	0.188	0.0	0.0	0.0	0.0	4.614	4.65	4.65	4.599	9.874286196899414	-0.13946224670410157	0.05566518859863281	2.735137939453125	-3.612518310546875	-0.77056884765625	9.782707983398437	0.38845921936035155	0.15322890625	0.3204345703125	-4.67681884765625	-2.9144287109375	9.9981861328125	0.025737667846679687	-0.23882161560058593	3.749847412109375	-4.581451416015625	-2.105712890625	
48	0.192	0.0	0.0	0.0	0.0	4.611	4.65	4.65	4.587	9.872490545654296	-0.13467384338378904	0.04369418029785156	2.529144287109375	-3.566741943359375	-0.95367431640625	9.783905084228515	0.40581718139648437	0.1406593475341797	0.377655029296875	-4.75311279296875	-2.7923583984375	10.00417163696289	0.029927520751953124	-0.25318682556152344	3.803253173828125	-4.611968994140625	-2.105712890625	
49	0.196	0.0	0.0	0.0	0.0	4.62	4.65	4.65	4.593	9.874884747314452	-0.1149216796875	0.034715924072265626	2.422332763671875	-3.589630126953125	-0.7171630859375	9.78629928588867	0.4147954376220703	0.1292868896484375	0.156402587890625	-5.023956298828125	-2.704620361328125	9.9981861328125	0.04908113403320312	-0.2609679809570312	3.73077392578125	-4.528045654296875	-2.086639404296875	
50	0.2	0.0	0.0	0.0	0.0	4.62	4.641	4.65	4.599	9.86351228942871	-0.105344873046875	0.03890577697753906	2.567291259765625	-3.62396240234375	-0.888824462890625	9.782707983398437	0.42437224426269526	0.1292868896484375	-0.011444091796875	-5.0506591796875	-2.86865234375	10.013748443603514	0.055066638183593745	-0.26874913635253905	3.681182861328125	-4.7607421875	-2.132415771484375	
51	0.20400000000000001	0.0	0.0	0.0	0.0	4.617	4.65	4.6530000000000005	4.6080000000000005	9.873687646484374	-0.09636661682128905	0.047884033203124995	2.716064453125	-3.60870361328125	-0.865936279296875	9.787496386718749	0.4285620971679687	0.12509703674316405	0.225067138671875	-4.81414794921875	-2.9449462890625	10.021529598999022	0.05985504150390625	-0.2651578338623047	3.57818603515625	-4.482269287109375	-2.040863037109375	
52	0.20800000000000002	0.0	0.0	0.0	0.0	4.6080000000000005	4.65	4.65	4.6080000000000005	9.87668039855957	-0.09457096557617187	0.034715924072265626	2.838134765625	-3.5400390625	-0.713348388671875	9.782109432983399	0.4273649963378906	0.12210428466796874	0.41961669921875	-4.817962646484375	-3.0364990234375	10.015544094848632	0.06045359191894531	-0.2705447875976562	3.77655029296875	-4.444122314453125	-2.1514892578125	
53	0.212	0.0	0.0	0.0	0.0	4.602	4.65	4.644	4.614	9.8694977935791	-0.08978256225585937	0.03591302490234375	2.635955810546875	-3.8604736328125	-0.759124755859375	9.783905084228515	0.4429273071289062	0.1227028350830078	0.08392333984375	-4.974365234375	-2.819061279296875	10.005368737792969	0.06464344482421874	-0.2741360900878906	3.658294677734375	-4.642486572265625	-2.185821533203125	
54	0.216	0.0	0.0	0.0	0.0	4.614	4.65	4.65	4.59	9.871891995239258	-0.08379705810546874	0.03531447448730469	2.338409423828125	-3.543853759765625	-0.8087158203125	9.785700735473633	0.44113165588378905	0.1304839904785156	0.14495849609375	-4.695892333984375	-2.941131591796875	10.013149893188476	0.07541735229492187	-0.25438392639160157	3.72314453125	-4.390716552734375	-2.285003662109375	
55	0.22	0.0	0.0	0.0	0.0	4.614	4.6530000000000005	4.65	4.5840000000000005	9.87608184814453	-0.08499415893554688	0.037110125732421874	2.597808837890625	-3.536224365234375	-0.957489013671875	9.783905084228515	0.4339490509033203	0.1388636962890625	0.370025634765625	-4.81414794921875	-3.02886962890625	10.00955859069824	0.07481880187988281	-0.2537853759765625	3.627777099609375	-4.619598388671875	-2.0751953125	
56	0.224	0.0	0.0	0.0	0.0	4.617	4.647	4.6530000000000005	4.596	9.881468801879882	-0.09516951599121093	0.04668693237304687	2.498626708984375	-3.505706787109375	-0.881195068359375	9.781510882568359	0.44053310546874996	0.1322796417236328	0.446319580078125	-4.93621826171875	-2.60162353515625	10.008960040283203	0.07302315063476562	-0.2507926239013672	3.74603271484375	-4.52423095703125	-1.895904541015625	
57	0.228	0.0	0.0	0.0	0.0	4.611	4.638	4.6530000000000005	4.602	9.87069489440918	-0.0939724151611328	0.03531447448730469	2.681732177734375	-3.7384033203125	-0.9765625	9.778518130493163	0.4333505004882812	0.14604630126953125	0.293731689453125	-5.0201416015625	-3.185272216796875	10.024522351074218	0.07062894897460938	-0.24121581726074218	3.711700439453125	-4.5623779296875	-2.25830078125	
58	0.232	0.0	0.0	0.0	0.0	4.605	4.6530000000000005	4.6530000000000005	4.6080000000000005	9.890447058105469	-0.14544775085449219	0.032920272827148434	2.60162353515625	-3.330230712890625	-0.980377197265625	9.78031378173828	0.39983167724609375	0.18315642700195311	0.3509521484375	-4.756927490234375	-2.96783447265625	10.005368737792969	0.04548983154296875	-0.20949264526367187	3.452301025390625	-4.444122314453125	-2.201080322265625	
59	0.23600000000000002	0.0	0.0	0.0	0.0	4.602	4.65	4.65	4.611	9.880870251464843	-0.08918401184082031	0.037708676147460936	2.468109130859375	-3.65447998046875	-0.946044921875	9.775525378417969	0.5105635040283203	0.15502455749511718	0.3814697265625	-4.79888916015625	-2.872467041015625	10.046668716430663	0.10115502014160156	-0.2651578338623047	3.48663330078125	-4.688262939453125	-2.34222412109375	
60	0.24	0.0	0.0	0.0	0.0	4.602	4.6530000000000005	4.644	4.614	9.889848507690429	-0.21906945190429686	0.09816226806640624	2.658843994140625	-3.72314453125	-0.83160400390625	9.771335525512695	0.42796354675292964	0.1945288848876953	0.1678466796875	-5.001068115234375	-2.72369384765625	9.994594830322265	0.0718260498046875	-0.19931728820800781	3.574371337890625	-4.45556640625	-1.811981201171875	
61	0.244	0.0	0.0	0.0	0.0	4.614	4.6530000000000005	4.65	4.593	9.867702142333984	-0.17058686828613281	0.028730419921875	2.35748291015625	-3.60107421875	-1.068115234375	9.804255798339844	0.3238157745361328	0.12868833923339842	0.392913818359375	-4.6539306640625	-3.0517578125	10.035894808959961	-0.059256491088867186	-0.26815058593749996	3.589630126953125	-4.665374755859375	-2.22015380859375	
62	0.248	0.0	0.0	0.0	0.0	4.62	4.65	4.65	4.587	9.842563024902343	-0.0143652099609375	0.11671733093261719	2.7313232421875	-3.429412841796875	-0.782012939453125	9.788693487548828	0.5015852478027344	0.19033903198242186	0.49591064453125	-4.993438720703125	-2.910614013671875	10.062829577636718	0.19572598571777342	-0.22385785522460935	3.753662109375	-4.50897216796875	-2.155303955078125	
63	0.252	0.0	0.0	0.0	0.0	4.6080000000000005	4.647	4.6530000000000005	4.599	9.879074600219726	-0.17058686828613281	0.02454056701660156	2.3193359375	-3.265380859375	-0.865936279296875	9.785102185058593	0.36810850524902344	0.12988544006347655	0.34332275390625	-4.608154296875	-2.6702880859375	10.040084661865233	-0.009576806640625	-0.27293898925781246	3.772735595703125	-4.364013671875	-2.162933349609375	
64	0.256	0.0	0.0	0.0	0.0	4.614	4.6530000000000005	4.6530000000000005	4.602	9.82580361328125	-0.07362170104980469	0.1580173095703125	2.826690673828125	-3.65447998046875	-0.72479248046875	9.775525378417969	0.4285620971679687	0.19153613281249998	0.476837158203125	-5.077362060546875	-2.780914306640625	10.050858569335936	0.076614453125	-0.22565350646972654	3.643035888671875	-4.673004150390625	-2.166748046875	
65	0.26	0.0	0.0	0.0	0.0	4.611	4.6530000000000005	4.65	4.611	9.897629663085937	-0.11851298217773437	0.10654197387695312	2.52532958984375	-3.490447998046875	-0.965118408203125	9.835380419921874	0.4034229797363281	0.11192892761230468	0.61798095703125	-4.7149658203125	-3.101348876953125	10.098742602539062	0.034715924072265626	-0.3022679595947265	3.543853759765625	-4.497528076171875	-2.22015380859375	
66	0.264	0.0	0.0	0.0	0.0	4.602	4.65	4.65	4.614	9.810241302490233	0.018555062866210937	0.16998831787109375	2.758026123046875	-3.696441650390625	-0.926971435546875	9.743203656005859	0.5572504364013672	0.2136824981689453	0.400543212890625	-4.78363037109375	-2.72369384765625	10.025120901489258	0.21248539733886718	-0.22565350646972654	3.589630126953125	-4.665374755859375	-1.91497802734375	
67	0.268	0.0	0.0	0.0	0.0	4.614	4.65	4.644	4.605	9.888651406860351	-0.19812018737792966	0.12150573425292968	2.185821533203125	-3.635406494140625	-0.7781982421875	9.80724855041504	0.26336218261718747	0.12689268798828124	0.22125244140625	-5.016326904296875	-2.8533935546875	10.046070166015625	-0.1466448516845703	-0.3142389678955078	3.6773681640625	-4.817962646484375	-1.995086669921875	
68	0.272	0.0	0.0	0.0	0.0	4.614	4.65	4.65	4.59	9.813832604980469	0.00718260498046875	0.20051438903808594	2.529144287109375	-3.543853759765625	-0.89263916015625	9.777321029663085	0.5488707305908203	0.22026655273437498	0.20599365234375	-4.913330078125	-2.685546875	10.091559997558592	0.20171148986816406	-0.22026655273437498	3.4942626953125	-4.45556640625	-2.05230712890625	
69	0.276	0.0	0.0	0.0	0.0	4.614	4.65	4.65	4.581	9.890447058105469	-0.13347674255371092	0.12689268798828124	2.262115478515625	-3.18145751953125	-0.682830810546875	9.82460651245117	0.3286041778564453	0.15263035583496093	0.347137451171875	-4.96673583984375	-2.941131591796875	10.066420880126952	-0.04369418029785156	-0.3381809844970703	3.696441650390625	-4.84466552734375	-1.89971923828125	
70	0.28	0.0	0.0	0.0	0.0	4.614	4.647	4.6530000000000005	4.602	9.90840357055664	0.001197100830078125	0.009576806640625	2.971649169921875	-3.574371337890625	-0.934600830078125	9.745597857666015	0.47584757995605464	0.25737667846679685	0.331878662109375	-4.940032958984375	-2.902984619140625	9.937133990478515	0.14963760375976562	-0.19572598571777342	3.68499755859375	-4.7760009765625	-2.37274169921875	
71	0.28400000000000003	0.0	0.0	0.0	0.0	4.614	4.6530000000000005	4.6530000000000005	4.605	9.89583401184082	-0.18315642700195311	0.14484920043945312	2.4261474609375	-3.604888916015625	-0.858306884765625	9.853336932373047	0.23343466186523437	0.16460136413574217	0.171661376953125	-4.8980712890625	-2.87628173828125	10.111910711669921	-0.14185644836425781	-0.32620997619628905	3.543853759765625	-4.5013427734375	-2.155303955078125	
72	0.28800000000000003	0.0	0.0	0.0	0.0	4.611	4.65	4.6530000000000005	4.6080000000000005	9.92755718383789	0.0047884033203125	-0.0047884033203125	3.1585693359375	-3.658294677734375	-1.110076904296875	9.783306533813477	0.5662286926269531	0.18914193115234373	0.553131103515625	-4.95147705078125	-2.971649169921875	9.959280355834961	0.19033903198242186	-0.19632453613281248	3.692626953125	-4.741668701171875	-2.132415771484375	
73	0.292	0.0	0.0	0.0	0.0	4.602	4.65	4.647	4.614	9.867103591918944	-0.15861585998535155	0.15562310791015624	3.05938720703125	-4.06646728515625	-0.858306884765625	9.82580361328125	0.2059013427734375	0.16041151123046873	0.194549560546875	-4.87518310546875	-2.777099609375	9.894038360595703	-0.016759411621093748	-0.1466448516845703	3.726959228515625	-4.550933837890625	-2.140045166015625	
74	0.296	0.0	0.0	0.0	0.0	4.614	4.65	4.6530000000000005	4.605	9.919776028442381	-0.00239420166015625	0.023343466186523436	3.16619873046875	-4.009246826171875	-1.1749267578125	9.778518130493163	0.5255272644042969	0.20769699401855468	0.457763671875	-4.749298095703125	-2.8839111328125	9.963470208740233	0.15502455749511718	-0.15682020874023436	3.498077392578125	-4.63104248046875	-2.445220947265625	
75	0.3	0.0	0.0	0.0	0.0	4.611	4.65	4.65	4.59	9.886257205200195	-0.10175357055664062	-0.0047884033203125	3.124237060546875	-3.856658935546875	-0.904083251953125	9.775525378417969	0.3184288208007812	0.0987608184814453	0.35858154296875	-5.0048828125	-2.742767333984375	9.937133990478515	-0.06045359191894531	-0.13766659545898435	3.74603271484375	-4.7760009765625	-1.979827880859375	
76	0.304	0.0	0.0	0.0	0.0	4.617	4.65	4.65	4.587	9.894038360595703	0.0383072265625	0.017357962036132813	3.18145751953125	-4.150390625	-1.12152099609375	9.76235726928711	0.5716156463623047	0.18734627990722655	0.438690185546875	-4.69207763671875	-3.108978271484375	9.925162982177733	0.19213468322753904	-0.16340426330566404	3.65447998046875	-4.482269287109375	-2.079010009765625	
77	0.308	0.0	0.0	0.0	0.0	4.617	4.644	4.6530000000000005	4.605	9.865307940673828	-0.09696516723632811	0.022744915771484374	2.8839111328125	-4.00543212890625	-1.102447509765625	9.727641345214844	0.3429693878173828	0.13826514587402344	0.32806396484375	-4.7760009765625	-2.63214111328125	9.909600671386718	-0.044891281127929686	-0.11671733093261719	3.814697265625	-4.611968994140625	-2.002716064453125	
78	0.312	0.0	0.0	0.0	0.0	4.611	4.6530000000000005	4.6530000000000005	4.605	9.892841259765625	-0.3699041564941406	0.09995791931152344	2.742767333984375	-3.5858154296875	-1.007080078125	9.76774422302246	0.4267664459228515	0.19812018737792966	0.247955322265625	-4.82177734375	-3.15093994140625	9.947907897949218	-0.0143652099609375	-0.18076222534179687	3.665924072265625	-4.505157470703125	-2.52532958984375	
79	0.316	0.0	0.0	0.0	0.0	4.614	4.6530000000000005	4.6530000000000005	4.611	9.874884747314452	-0.1197100830078125	-0.005985504150390624	2.979278564453125	-4.001617431640625	-1.064300537109375	9.750984811401366	0.3178302703857422	0.0909796630859375	0.301361083984375	-4.63104248046875	-2.6092529296875	9.917980377197265	-0.04129997863769531	-0.1352723937988281	3.66973876953125	-4.547119140625	-2.147674560546875	
80	0.32	0.0	0.0	0.0	0.0	4.602	4.65	4.647	4.614	9.885658654785155	-0.37828386230468747	0.10295067138671875	2.76947021484375	-3.772735595703125	-0.896453857421875	9.720458740234374	0.49320554199218747	0.22026655273437498	0.385284423828125	-4.89044189453125	-3.528594970703125	9.893439810180663	0.028730419921875	-0.18435352783203124	3.658294677734375	-4.604339599609375	-2.544403076171875	
81	0.324	0.0	0.0	0.0	0.0	4.614	4.65	4.65	4.599	9.853935482788085	-0.12389993591308593	-0.008379705810546874	2.44140625	-3.543853759765625	-0.896453857421875	9.76116016845703	0.45968671875	0.16280571289062498	0.270843505859375	-4.67681884765625	-2.712249755859375	9.965265859985351	0.11372457885742186	-0.0796072052001953	3.879547119140625	-4.52423095703125	-1.93023681640625	
82	0.328	0.0	0.0	0.0	0.0	4.611	4.65	4.65	4.587	9.90241806640625	-0.40880993347167965	0.04668693237304687	2.6702880859375	-3.650665283203125	-0.9765625	9.73602105102539	0.5147533569335937	0.19033903198242186	0.32806396484375	-4.833221435546875	-3.353118896484375	9.928754284667969	0.0047884033203125	-0.22026655273437498	3.635406494140625	-4.4097900390625	-2.3651123046875	
83	0.332	0.0	0.0	0.0	0.0	4.614	4.647	4.65	4.587	9.922768780517577	-0.3226186737060547	0.11911153259277343	1.728057861328125	-2.811431884765625	-0.5645751953125	9.750386260986328	0.5093664031982421	0.14125789794921875	0.12969970703125	-4.8370361328125	-2.872467041015625	9.962273107910155	0.12689268798828124	-0.08499415893554688	3.520965576171875	-4.7607421875	-1.94549560546875	
84	0.336	0.0	0.0	0.0	0.0	4.614	4.644	4.65	4.6080000000000005	9.891045608520507	-0.421978042602539	0.061650692749023434	2.246856689453125	-3.63922119140625	-0.865936279296875	9.873687646484374	0.2454056701660156	0.07481880187988281	0.38909912109375	-5.184173583984375	-2.98309326171875	10.141239682006836	-0.25318682556152344	-0.354940396118164	3.59344482421875	-4.436492919921875	-2.2735595703125	
85	0.34	0.0	0.0	0.0	0.0	4.611	4.65	4.65	4.602	9.925761532592773	-0.30047230834960936	0.12629413757324218	1.6021728515625	-2.780914306640625	-0.591278076171875	9.765350021362304	0.5333084197998047	0.11731588134765625	0.152587890625	-4.92095947265625	-2.83050537109375	9.977236868286132	0.12569558715820311	-0.10654197387695312	3.665924072265625	-4.589080810546875	-1.953125	
86	0.34400000000000003	0.0	0.0	0.0	0.0	4.611	4.65	4.65	4.611	9.907206469726562	-0.42377369384765623	0.03950432739257812	2.399444580078125	-3.33404541015625	-0.720977783203125	9.886855755615233	0.2663549346923828	0.05686228942871093	0.67138671875	-4.852294921875	-3.23486328125	10.166977349853514	-0.24480711975097655	-0.3908534210205078	3.810882568359375	-4.512786865234375	-2.330780029296875	
87	0.34800000000000003	0.0	0.0	0.0	0.0	4.602	4.6530000000000005	4.647	4.614	9.9215716796875	-0.23702596435546874	0.15442600708007811	1.983642578125	-3.2806396484375	-0.606536865234375	9.749787710571288	0.5584475372314452	0.1292868896484375	0.06103515625	-4.924774169921875	-2.384185791015625	9.955090502929687	0.13168109130859373	-0.08379705810546874	3.696441650390625	-4.6234130859375	-1.86920166015625	
88	0.352	0.0	0.0	0.0	0.0	4.614	4.65	4.6530000000000005	4.599	9.885060104370117	-0.18076222534179687	-0.037708676147460936	2.61688232421875	-3.73077392578125	-0.888824462890625	9.89523546142578	0.25797522888183594	0.06045359191894531	0.301361083984375	-4.60052490234375	-3.1585693359375	10.18373676147461	-0.27353753967285155	-0.411802685546875	3.696441650390625	-4.360198974609375	-2.31170654296875	
89	0.356	0.0	0.0	0.0	0.0	4.614	4.6530000000000005	4.6530000000000005	4.59	9.938929641723632	-0.1753752716064453	0.15263035583496093	1.983642578125	-3.253936767578125	-0.579833984375	9.752780462646484	0.5015852478027344	0.35134909362792965	0.09918212890625	-4.96673583984375	-2.32696533203125	10.102333905029296	0.28012159423828126	-0.2603694305419922	3.582000732421875	-4.638671875	-1.9683837890625	
90	0.36	0.0	0.0	0.0	0.0	4.614	4.65	4.65	4.59	9.880870251464843	-0.13467384338378904	-0.02154781494140625	2.628326416015625	-3.688812255859375	-1.0223388671875	9.860519537353515	0.28969840087890625	0.076614453125	0.396728515625	-4.611968994140625	-3.353118896484375	10.165780249023436	-0.2819172454833984	-0.4112041351318359	3.5400390625	-4.44793701171875	-2.22015380859375	
91	0.364	0.0	0.0	0.0	0.0	4.614	4.641	4.6530000000000005	4.6080000000000005	9.816825357055663	0.36691140441894526	0.08200140686035155	3.650665283203125	-4.32586669921875	-0.8697509765625	9.758765966796874	0.5015852478027344	0.35134909362792965	-0.057220458984375	-5.157470703125	-2.330780029296875	10.084377392578125	0.2867056488037109	-0.24361001892089842	3.7841796875	-4.619598388671875	-1.800537109375	
92	0.368	0.0	0.0	0.0	0.0	4.611	4.65	4.65	4.6080000000000005	9.912593423461914	-0.12150573425292968	-0.023343466186523436	2.979278564453125	-3.879547119140625	-1.049041748046875	9.961076007080077	-0.12210428466796874	-0.06404489440917968	0.48828125	-5.035400390625	-2.75421142578125	10.129867224121092	-0.24899697265624998	-0.42317514343261714	3.528594970703125	-4.58526611328125	-1.888275146484375	
93	0.372	0.0	0.0	0.0	0.0	4.6080000000000005	4.65	4.65	4.6080000000000005	9.80665	0.316034619140625	0.05087678527832031	3.54766845703125	-4.108428955078125	-1.064300537109375	9.767145672607422	0.48123453369140623	0.36631285400390623	0.02288818359375	-4.924774169921875	-2.277374267578125	10.097545501708984	0.3022679595947265	-0.2507926239013672	3.475189208984375	-4.589080810546875	-1.781463623046875	
94	0.376	0.0	0.0	0.0	0.0	4.599	4.65	4.647	4.617	9.89523546142578	-0.076614453125	0.0143652099609375	3.063201904296875	-3.54766845703125	-1.102447509765625	9.950302099609374	-0.13108254089355467	-0.06464344482421874	0.457763671875	-4.7607421875	-2.685546875	10.123881719970703	-0.21009119567871093	-0.40940848388671874	3.643035888671875	-4.993438720703125	-2.1514892578125	
95	0.38	0.0	0.0	0.0	0.0	4.617	4.65	4.6530000000000005	4.593	9.811438403320311	0.26396073303222656	0.01975216369628906	2.90679931640625	-3.749847412109375	-1.068115234375	9.711480484008788	0.6578069061279297	0.18914193115234373	0.61798095703125	-4.772186279296875	-2.857208251953125	9.885658654785155	0.36750995483398435	-0.1352723937988281	3.749847412109375	-4.55474853515625	-2.307891845703125	
96	0.384	0.0	0.0	0.0	0.0	4.614	4.6530000000000005	4.65	4.587	9.88386300354004	-0.3459621398925781	0.030526071166992186	1.19781494140625	-3.086090087890625	-0.820159912109375	9.964667309570311	-0.21727380065917967	-0.08200140686035155	0.263214111328125	-4.726409912109375	-2.643585205078125	10.12507882080078	-0.2723404388427734	-0.4177881896972656	3.635406494140625	-4.63104248046875	-2.0294189453125	
97	0.388	0.0	0.0	0.0	0.0	4.617	4.65	4.65	4.59	9.804854348754882	0.16759411621093748	0.03172317199707031	2.315521240234375	-3.57818603515625	-1.125335693359375	9.701305126953125	0.6865373260498047	0.20470424194335937	0.644683837890625	-4.95147705078125	-3.04412841796875	9.882067352294921	0.35314474487304687	-0.12868833923339842	3.620147705078125	-4.512786865234375	-2.47955322265625	
98	0.392	0.0	0.0	0.0	0.0	4.614	4.641	4.6530000000000005	4.599	9.881468801879882	-0.3555389465332031	0.022146365356445312	0.705718994140625	-2.384185791015625	-0.63323974609375	9.79946739501953	0.24480711975097655	0.07242460021972656	0.3509521484375	-4.6539306640625	-2.532958984375	10.117896215820313	-0.1945288848876953	-0.43155484924316406	3.662109375	-4.974365234375	-2.079010009765625	
99	0.396	0.0	0.0	0.0	0.0	4.614	4.6530000000000005	4.6530000000000005	4.6080000000000005	9.797073193359374	0.08978256225585937	0.01975216369628906	2.277374267578125	-3.391265869140625	-1.068115234375	9.694122521972655	0.6554127044677734	0.201112939453125	0.621795654296875	-4.5928955078125	-2.910614013671875	9.871293444824218	0.35015199279785153	-0.13108254089355467	3.77655029296875	-4.680633544921875	-2.460479736328125	
100	0.4	0.0	0.0	0.0	0.0	4.6080000000000005	4.647	4.65	4.6080000000000005	9.87608184814453	-0.373495458984375	0.04967968444824218	0.530242919921875	-2.4566650390625	-0.629425048828125	9.81263550415039	0.15263035583496093	0.09217676391601562	0.225067138671875	-4.61578369140625	-2.597808837890625	9.937133990478515	-0.05626373901367187	-0.10594342346191406	3.696441650390625	-4.72259521484375	-1.8157958984375	
101	0.404	0.0	0.0	0.0	0.0	4.602	4.647	4.644	4.614	9.815628256225585	-0.20290859069824219	0.1304839904785156	2.9144287109375	-3.5552978515625	-1.16729736328125	9.576806640625	0.8631096984863281	0.32441432495117184	0.774383544921875	-4.94384765625	-3.917694091796875	9.87608184814453	0.41838674011230464	-0.10714052429199218	3.711700439453125	-4.69970703125	-2.300262451171875	
102	0.40800000000000003	0.0	0.0	0.0	0.0	4.614	4.6530000000000005	4.6530000000000005	4.593	9.888052856445311	-0.33758243408203126	0.044891281127929686	0.293731689453125	-1.91497802734375	-0.3662109375	9.81263550415039	0.14006079711914063	0.09816226806640624	0.274658203125	-4.817962646484375	-2.597808837890625	9.93354268798828	-0.027533319091796873	-0.1131260284423828	3.749847412109375	-4.730224609375	-1.68609619140625	
103	0.41200000000000003	0.0	0.0	0.0	0.0	4.617	4.6530000000000005	4.65	4.587	9.835380419921874	-0.1897404815673828	0.13766659545898435	2.9754638671875	-3.688812255859375	-0.782012939453125	9.588777648925781	0.7894879974365234	0.3363853332519531	0.720977783203125	-4.917144775390625	-3.9215087890625	9.882067352294921	-0.06883329772949218	-0.1352723937988281	3.77655029296875	-4.467010498046875	-2.765655517578125	
104	0.41600000000000004	0.0	0.0	0.0	0.0	4.614	4.647	4.6530000000000005	4.599	9.93354268798828	0.0383072265625	-0.010773907470703125	3.5552978515625	-4.2877197265625	-0.728607177734375	9.737218151855469	0.7092822418212891	0.1945288848876953	0.40435791015625	-5.069732666015625	-2.61688232421875	9.93952819213867	-0.05686228942871093	-0.10893617553710937	3.826141357421875	-4.642486572265625	-1.949310302734375	
105	0.42	0.0	0.0	0.0	0.0	4.614	4.641	4.6530000000000005	4.605	9.843161575317382	-0.1227028350830078	0.12330138549804687	3.826141357421875	-4.245758056640625	-0.965118408203125	9.591171850585937	0.8289923248291016	0.3393780853271484	0.736236572265625	-4.78363037109375	-3.971099853515625	9.86291373901367	-0.033518823242187495	-0.13826514587402344	3.780364990234375	-4.329681396484375	-2.651214599609375	
106	0.424	0.0	0.0	0.0	0.0	4.6080000000000005	4.6530000000000005	4.6530000000000005	4.6080000000000005	9.945513696289062	0.06464344482421874	0.013168109130859374	3.978729248046875	-4.871368408203125	-0.507354736328125	9.726444244384766	0.6835445739746093	0.20231004028320312	0.125885009765625	-5.1116943359375	-2.37274169921875	9.923367330932617	0.19333178405761717	-0.008978256225585938	3.5858154296875	-4.58526611328125	-1.628875732421875	
107	0.428	0.0	0.0	0.0	0.0	4.605	4.65	4.65	4.611	9.868899243164062	-0.11252747802734374	0.09756371765136718	4.199981689453125	-4.489898681640625	-0.87738037109375	9.599551556396484	0.7805097412109374	0.4285620971679687	0.335693359375	-4.49371337890625	-3.376007080078125	9.87727894897461	-0.07841010437011718	-0.1149216796875	3.719329833984375	-4.302978515625	-2.62451171875	
108	0.432	0.0	0.0	0.0	0.0	4.611	4.65	4.641	4.614	9.945513696289062	0.044292730712890624	-0.0047884033203125	4.40216064453125	-5.035400390625	-0.67138671875	9.71686743774414	0.6278793853759765	0.20470424194335937	0.362396240234375	-5.001068115234375	-2.37274169921875	9.904812268066406	0.17417817077636719	-0.0017956512451171875	3.513336181640625	-4.695892333984375	-1.674652099609375	
109	0.436	0.0	0.0	0.0	0.0	4.614	4.65	4.65	4.593	9.861118087768554	-0.2214636535644531	0.008978256225585938	5.146026611328125	-5.222320556640625	-1.224517822265625	9.859920986938477	0.4010287780761719	0.12030863342285156	0.3204345703125	-4.680633544921875	-3.284454345703125	9.861716638183593	-0.040701428222656245	-0.11731588134765625	3.60870361328125	-4.47845458984375	-2.254486083984375	
110	0.44	0.0	0.0	0.0	0.0	4.617	4.65	4.65	4.5840000000000005	9.929352835083007	0.033518823242187495	0.014963760375976562	4.322052001953125	-5.02777099609375	-0.75531005859375	9.719261639404296	0.5608417388916015	0.20829554443359374	0.091552734375	-4.99725341796875	-2.178192138671875	9.886257205200195	0.17776947326660156	0.09457096557617187	3.528594970703125	-4.7760009765625	-1.491546630859375	
111	0.444	0.0	0.0	0.0	0.0	4.617	4.647	4.65	4.599	9.849147079467773	-0.297479556274414	0.04369418029785156	4.673004150390625	-4.90570068359375	-1.33514404296875	9.850344180297851	0.30705636291503907	0.11791443176269531	0.270843505859375	-4.7760009765625	-3.437042236328125	10.271125122070313	-0.3286041778564453	-0.5291185668945312	3.66973876953125	-4.520416259765625	-2.32696533203125	
112	0.448	0.0	0.0	0.0	0.0	4.614	4.6530000000000005	4.6530000000000005	4.605	9.944316595458984	-0.010773907470703125	-0.002992752075195312	1.9989013671875	-3.513336181640625	-0.9307861328125	9.81263550415039	0.6578069061279297	0.28790274963378903	0.263214111328125	-5.157470703125	-2.37274169921875	9.871293444824218	0.28311434631347654	0.11611878051757812	3.520965576171875	-4.547119140625	-1.605987548828125	
113	0.452	0.0	0.0	0.0	0.0	4.611	4.6530000000000005	4.656	4.614	9.840168823242188	-0.3190273712158203	0.05686228942871093	4.00543212890625	-4.47845458984375	-1.323699951171875	9.816825357055663	0.3363853332519531	0.15263035583496093	0.29754638671875	-4.528045654296875	-3.57818603515625	10.267533819580077	-0.34835634155273437	-0.5267243652343749	3.71551513671875	-4.5928955078125	-2.12860107421875	
114	0.456	0.0	0.0	0.0	0.0	4.605	4.65	4.65	4.611	9.715071786499022	0.00718260498046875	0.34536358947753903	2.02178955078125	-3.055572509765625	-0.759124755859375	9.80665	0.5506663818359374	0.2825157958984375	0.110626220703125	-4.8980712890625	-2.3345947265625	10.112509262084961	0.42018239135742186	-0.26755203552246093	4.03594970703125	-4.589080810546875	-2.03704833984375	
115	0.46	0.0	0.0	0.0	0.0	4.611	4.647	4.638	4.605	9.860519537353515	-0.2980781066894531	0.03950432739257812	3.8299560546875	-4.5013427734375	-1.117706298828125	10.008361489868163	-0.1197100830078125	-0.09337386474609374	0.614166259765625	-4.695892333984375	-3.070831298828125	10.290278735351562	-0.277727392578125	-0.5764040496826172	3.620147705078125	-4.665374755859375	-2.1820068359375	
116	0.464	0.0	0.0	0.0	0.0	4.611	4.65	4.65	4.587	9.710881933593749	0.07362170104980469	0.33039982910156246	1.651763916015625	-3.108978271484375	-0.640869140625	9.788094937133788	0.642244595336914	0.26336218261718747	-0.18310546875	-5.24139404296875	-1.93023681640625	10.096348400878906	0.613514175415039	-0.2645592834472656	3.90625	-4.9591064453125	-1.857757568359375	
117	0.468	0.0	0.0	0.0	0.0	4.614	4.65	4.65	4.587	9.948506448364258	-0.5859808563232421	-0.003591302490234375	-1.285552978515625	-1.2054443359375	-0.69427490234375	10.004770187377929	-0.25258827514648435	-0.11073182678222655	0.29754638671875	-4.81414794921875	-2.826690673828125	10.06821653137207	-0.4082113830566406	-0.21607669982910155	3.6468505859375	-4.550933837890625	-1.941680908203125	
118	0.47200000000000003	0.0	0.0	0.0	0.0	4.614	4.647	4.6530000000000005	4.605	9.694721072387695	0.02693476867675781	0.35134909362792965	1.705169677734375	-2.96783447265625	-0.96893310546875	9.628281976318359	0.7673416320800781	0.3597287994384765	0.701904296875	-4.802703857421875	-3.05938720703125	10.123881719970703	0.5781997009277343	-0.26815058593749996	3.910064697265625	-4.703521728515625	-2.162933349609375	
119	0.47600000000000003	0.0	0.0	0.0	0.0	4.611	4.6530000000000005	4.656	4.6080000000000005	9.956287603759765	-0.5195417602539062	-0.013168109130859374	-1.178741455078125	-1.44195556640625	-0.42724609375	10.005967288208007	-0.09038111267089843	-0.14305354919433594	0.54168701171875	-4.852294921875	-2.902984619140625	10.081983190917969	-0.2567781280517578	-0.23582886352539062	3.574371337890625	-4.627227783203125	-1.972198486328125	
120	0.48	0.0	0.0	0.0	0.0	4.611	4.65	4.6530000000000005	4.6080000000000005	9.675567459106444	0.04129997863769531	0.31962592163085934	1.247406005859375	-2.75421142578125	-0.7171630859375	9.605537060546874	0.7272387542724609	0.3238157745361328	0.423431396484375	-4.974365234375	-2.704620361328125	10.084377392578125	0.5291185668945312	-0.26276363220214843	3.71551513671875	-4.486083984375	-2.407073974609375	
121	0.484	0.0	0.0	0.0	0.0	4.602	4.65	4.65	4.614	9.93354268798828	-0.622492431640625	0.00718260498046875	-1.300811767578125	-1.33514404296875	-0.45013427734375	9.858125335693359	-0.0939724151611328	0.1005564697265625	0.1220703125	-4.82177734375	-2.99072265625	10.10652375793457	-0.39743747558593745	-0.2154781494140625	3.658294677734375	-4.673004150390625	-2.277374267578125	
122	0.488	0.0	0.0	0.0	0.0	4.614	4.65	4.6530000000000005	4.602	9.924564431762695	-0.015562310791015624	0.028131869506835935	1.491546630859375	-2.838134765625	-0.942230224609375	9.60194575805664	0.7948749511718749	0.31962592163085934	0.576019287109375	-4.852294921875	-2.75421142578125	9.891045608520507	0.25438392639160157	-0.054468087768554684	3.5247802734375	-4.4708251953125	-2.475738525390625	
123	0.492	0.0	0.0	0.0	0.0	4.614	4.6530000000000005	4.65	4.59	9.917980377197265	-0.5608417388916015	0.006584054565429687	-1.434326171875	-0.988006591796875	-0.34332275390625	9.819818109130859	-0.02154781494140625	0.08858546142578125	0.423431396484375	-5.023956298828125	-2.7618408203125	10.070012182617187	-0.28311434631347654	-0.24361001892089842	3.826141357421875	-4.955291748046875	-2.11334228515625	
124	0.496	0.0	0.0	0.0	0.0	4.617	4.65	4.65	4.587	9.911396322631836	0.0143652099609375	0.059256491088867186	1.73187255859375	-2.918243408203125	-0.99945068359375	9.637858782958984	0.833182177734375	0.32561142578124996	0.835418701171875	-4.61578369140625	-3.7841796875	9.8694977935791	0.1801636749267578	-0.029328970336914062	3.780364990234375	-4.5623779296875	-2.208709716796875	
125	0.5	0.0	0.0	0.0	0.0	4.614	4.644	4.6530000000000005	4.605	9.926360083007811	-0.6027402679443359	0.004189852905273437	3.879547119140625	-4.52423095703125	-0.537872314453125	9.872490545654296	-0.10773907470703124	0.0796072052001953	0.40435791015625	-4.98199462890625	-3.021240234375	10.019733947753906	-0.3459621398925781	-0.2747346405029297	3.7078857421875	-4.886627197265625	-1.682281494140625	
126	0.504	0.0	0.0	0.0	0.0	4.6080000000000005	4.6530000000000005	4.6530000000000005	4.605	9.929951385498047	0.12629413757324218	0.018555062866210937	1.953125	-3.0975341796875	-1.33514404296875	9.642647186279296	0.8936357696533203	0.3094505645751953	0.61798095703125	-4.634857177734375	-3.780364990234375	9.86291373901367	0.26695348510742184	-0.044891281127929686	3.536224365234375	-4.852294921875	-2.391815185546875	
127	0.508	0.0	0.0	0.0	0.0	4.611	4.65	4.6530000000000005	4.605	9.907206469726562	0.3112462158203125	-0.02154781494140625	4.055023193359375	-4.45556640625	-0.453948974609375	9.842563024902343	-0.09935936889648436	0.181959326171875	-0.110626220703125	-4.833221435546875	-2.307891845703125	9.986215124511718	-0.26815058593749996	-0.25797522888183594	3.635406494140625	-4.604339599609375	-1.6937255859375	
128	0.512	0.0	0.0	0.0	0.0	4.602	4.65	4.65	4.614	9.938331091308592	0.33698388366699217	0.017357962036132813	2.57110595703125	-3.59344482421875	-0.99945068359375	9.676764559936522	0.7493851196289062	0.2950853546142578	0.942230224609375	-4.764556884765625	-3.9215087890625	9.85692823486328	-0.030526071166992186	-0.2088940948486328	3.72314453125	-4.329681396484375	-2.532958984375	
129	0.516	0.0	0.0	0.0	0.0	4.614	4.65	4.6530000000000005	4.602	9.944915145874022	-0.12629413757324218	-0.06943184814453125	3.917694091796875	-4.81414794921875	-0.885009765625	9.744400756835937	0.3794809631347656	0.1657984649658203	-0.102996826171875	-4.932403564453125	-2.605438232421875	10.000580334472655	0.014963760375976562	-0.2693476867675781	3.74603271484375	-4.734039306640625	-1.766204833984375	
130	0.52	0.0	0.0	0.0	0.0	4.611	4.6530000000000005	4.65	4.587	9.911396322631836	0.09935936889648436	0.0430956298828125	5.977630615234375	-5.79833984375	-0.99945068359375	9.607332711791992	1.561618032836914	0.31004911499023435	0.247955322265625	-4.7607421875	-3.780364990234375	9.824007962036132	-0.16340426330566404	-0.1849520782470703	3.978729248046875	-4.482269287109375	-2.796173095703125	
131	0.524	0.0	0.0	0.0	0.0	4.614	4.65	4.65	4.59	9.926360083007811	0.33399113159179683	-0.032920272827148434	5.458831787109375	-5.5389404296875	-1.384735107421875	9.79348189086914	-0.40581718139648437	0.16460136413574217	-0.598907470703125	-4.856109619140625	-1.834869384765625	9.991003527832031	0.08080430603027343	-0.3064578125	3.543853759765625	-4.4097900390625	-1.720428466796875	
132	0.528	0.0	0.0	0.0	0.0	4.617	4.644	4.6530000000000005	4.605	9.910797772216796	-0.3016694091796875	0.08918401184082031	5.401611328125	-5.184173583984375	-0.820159912109375	9.771335525512695	0.70868369140625	0.12509703674316405	0.194549560546875	-4.791259765625	-3.665924072265625	9.878476049804688	-0.19572598571777342	-0.1849520782470703	3.631591796875	-4.383087158203125	-2.765655517578125	
133	0.532	0.0	0.0	0.0	0.0	4.611	4.6530000000000005	4.6530000000000005	4.611	9.907206469726562	-0.19093758239746092	-0.044292730712890624	3.8909912109375	-4.46319580078125	-0.873565673828125	9.758167416381836	-0.21068974609375	0.18136077575683593	-0.278472900390625	-4.9591064453125	-2.78472900390625	9.903016616821288	0.354940396118164	-0.012569558715820313	3.704071044921875	-4.60052490234375	-1.739501953125	
134	0.536	0.0	0.0	0.0	0.0	4.611	4.6530000000000005	4.65	0.003	9.916783276367187	0.047884033203124995	0.051475335693359374	5.04302978515625	-5.069732666015625	-0.629425048828125	9.714473236083984	0.8643067993164062	0.1484405029296875	0.484466552734375	-4.611968994140625	-3.139495849609375	9.816226806640625	-0.20051438903808594	-0.15861585998535155	3.803253173828125	-4.180908203125	-2.63214111328125	
135	0.54	0.0	0.0	0.0	0.0	0.006	0.003	0.006	0.006	9.906607919311522	-0.2232593048095703	0.06703764648437499	4.50897216796875	-4.9285888671875	-1.064300537109375	9.832986218261718	-0.022146365356445312	0.0718260498046875	-0.011444091796875	-4.817962646484375	-2.40325927734375	9.868300692749022	0.3687070556640625	0.022146365356445312	3.74603271484375	-4.79888916015625	-1.911163330078125	
136	0.544	0.0	0.0	0.0	0.0	0.006	0.003	0.003	0.003	9.924564431762695	-0.1131260284423828	0.06943184814453125	6.275177001953125	-5.85174560546875	-1.438140869140625	9.749787710571288	0.49799394531249996	0.16699556579589842	0.392913818359375	-4.79888916015625	-2.8533935546875	10.319009155273436	-0.3022679595947265	-0.5722141967773438	3.662109375	-4.680633544921875	-1.880645751953125	
137	0.548	0.0	0.0	0.0	0.0	0.003	0.003	0.003	0.003	9.885060104370117	-0.51714755859375	0.15203180541992187	2.872467041015625	-4.21142578125	-0.732421875	9.79348189086914	0.29568390502929687	0.09636661682128905	0.102996826171875	-5.046844482421875	-2.643585205078125	9.860519537353515	0.3399766357421875	0.018555062866210937	3.643035888671875	-4.81414794921875	-2.227783203125	
138	0.552	0.0	0.0	0.0	0.0	0.003	0.003	0.003	0.003	9.916184725952148	-0.21009119567871093	0.08678981018066406	0.957489013671875	-2.60162353515625	-0.8544921875	9.913191973876952	0.4626794708251953	-0.07242460021972656	1.003265380859375	-5.023956298828125	-2.47955322265625	10.254365710449218	-0.2166752502441406	-0.5476736297607422	3.528594970703125	-4.718780517578125	-1.85394287109375	
139	0.556	0.0	0.0	0.0	0.0	0.006	0.003	0.003	0.006	9.894038360595703	-0.3028665100097656	0.14425065002441406	3.795623779296875	-4.5623779296875	-0.743865966796875	9.795277542114258	0.4626794708251953	0.13168109130859373	0.308990478515625	-4.901885986328125	-2.51007080078125	10.135254177856444	0.1771709228515625	-0.25917232971191406	3.68499755859375	-4.802703857421875	-2.29644775390625	
140	0.56	0.0	0.0	0.0	0.0	0.003	0.003	0.003	0.003	9.928155734252929	-0.37708676147460934	-0.17477672119140625	1.190185546875	-2.765655517578125	-0.957489013671875	9.941922393798828	0.25917232971191406	-0.07302315063476562	0.6103515625	-4.901885986328125	-2.552032470703125	10.266336718749999	-0.201112939453125	-0.5632359405517577	3.795623779296875	-4.779815673828125	-1.983642578125	
141	0.5640000000000001	0.0	0.0	0.0	0.0	0.0	0.003	0.003	0.003	9.867103591918944	-0.4387374542236328	0.1562216583251953	3.589630126953125	-4.383087158203125	-0.926971435546875	9.624690673828125	0.7044938385009765	0.38247371520996093	0.152587890625	-5.008697509765625	-2.483367919921875	10.077194787597655	0.17776947326660156	-0.22445640563964842	3.879547119140625	-4.791259765625	-2.25830078125	
142	0.5680000000000001	0.0	0.0	0.0	0.0	0.006	0.003	0.003	0.006	9.934739788818359	-0.3537432952880859	-0.16460136413574217	0.3509521484375	-2.26593017578125	-0.690460205078125	9.96586441040039	0.3190273712158203	-0.07362170104980469	0.640869140625	-4.634857177734375	-2.933502197265625	10.32379755859375	-0.24361001892089842	-0.36212300109863277	3.662109375	-4.4403076171875	-1.659393310546875	
143	0.5720000000000001	0.0	0.0	0.0	0.0	0.006	0.003	0.006	0.003	9.641450085449218	-0.017357962036132813	0.37768531188964843	0.8087158203125	-2.197265625	-0.858306884765625	9.660603698730467	0.6075286712646484	0.3716998077392578	0.2899169921875	-4.8828125	-2.60162353515625	10.122086068725585	0.1083376251220703	-0.21727380065917967	3.704071044921875	-4.711151123046875	-2.52532958984375	
144	0.5760000000000001	0.0	0.0	0.0	0.0	0.0	0.006	0.006	0.003	9.904812268066406	-0.3381809844970703	-0.11252747802734374	0.095367431640625	-1.949310302734375	-0.812530517578125	9.83178911743164	0.34237083740234375	0.10654197387695312	0.423431396484375	-4.848480224609375	-3.2958984375	10.133458526611328	0.1131260284423828	-0.42975919799804685	3.3721923828125	-4.611968994140625	-1.79290771484375	
145	0.58	0.0	0.0	0.0	0.0	0.0	0.006	0.006	0.006	9.637858782958984	-0.025139117431640625	0.3687070556640625	0.335693359375	-1.842498779296875	-0.9002685546875	9.6779616607666	0.4997895965576172	0.3746925598144531	0.225067138671875	-4.8828125	-2.635955810546875	10.077194787597655	0.11013327636718749	-0.18734627990722655	3.6163330078125	-4.817962646484375	-2.3040771484375	
146	0.584	0.0	0.0	0.0	0.0	0.003	0.003	0.003	0.009000000000000001	9.93354268798828	-0.43454760131835934	-0.10654197387695312	-0.732421875	-1.495361328125	-0.797271728515625	9.904812268066406	0.41838674011230464	0.07062894897460938	0.682830810546875	-4.7760009765625	-3.05938720703125	10.226832391357421	0.076614453125	-0.46507367248535153	3.620147705078125	-4.718780517578125	-1.911163330078125	
147	0.588	0.0	0.0	0.0	0.0	0.0	0.003	0.003	0.003	9.686939916992188	0.055066638183593745	0.3280056274414062	0.316619873046875	-1.850128173828125	-1.04522705078125	9.733626849365233	0.5159504577636719	0.2651578338623047	0.415802001953125	-4.638671875	-3.231048583984375	9.916783276367187	-0.037110125732421874	-0.03172317199707031	3.406524658203125	-4.57763671875	-2.32696533203125	
148	0.592	0.0	0.0	0.0	0.0	0.003	0.003	0.003	0.003	9.89463691101074	0.20769699401855468	0.12449848632812499	1.5869140625	-2.593994140625	-0.80108642578125	9.83837317199707	0.46208092041015625	0.11192892761230468	0.46539306640625	-5.0048828125	-2.925872802734375	10.128071572875976	0.0987608184814453	-0.44532150878906246	3.765106201171875	-4.69207763671875	-1.8463134765625	
149	0.596	0.0	0.0	0.0	0.0	0.006	0.003	0.003	0.003	9.718064538574218	0.05327098693847656	0.2765302917480469	0.1678466796875	-2.1209716796875	-0.865936279296875	9.756371765136718	0.479438882446289	0.23343466186523437	0.156402587890625	-4.596710205078125	-3.116607666015625	9.93354268798828	-0.05386953735351562	-0.020949264526367185	3.734588623046875	-4.550933837890625	-2.23541259765625	
150	0.6	0.0	0.0	0.0	0.0	0.003	0.003	0.003	0.006	9.952696301269532	0.14963760375976562	0.07362170104980469	2.05230712890625	-3.063201904296875	-0.732421875	9.889249957275391	0.4082113830566406	0.07422025146484375	0.011444091796875	-4.8675537109375	-2.87628173828125	9.94671079711914	0.09636661682128905	-0.1406593475341797	3.51715087890625	-4.69970703125	-2.20489501953125	
151	0.604	0.0	0.0	0.0	0.0	0.003	0.003	0.006	0.006	9.725845693969726	0.143652099609375	0.2262520568847656	4.497528076171875	-4.852294921875	-0.904083251953125	9.69771382446289	0.5165490081787109	0.24899697265624998	0.52642822265625	-5.0201416015625	-3.093719482421875	9.85632968444824	0.012569558715820313	0.00239420166015625	3.80706787109375	-4.60052490234375	-2.323150634765625	
152	0.608	0.0	0.0	0.0	0.0	0.006	0.003	0.003	0.003	9.929951385498047	0.24480711975097655	0.086191259765625	2.765655517578125	-3.849029541015625	-0.934600830078125	9.689334118652344	0.3274070770263672	0.34177228698730466	-0.03814697265625	-5.1422119140625	-2.811431884765625	9.860519537353515	0.08080430603027343	-0.1149216796875	3.84521484375	-4.871368408203125	-2.3040771484375	
153	0.612	0.0	0.0	0.0	0.0	0.003	0.006	0.006	0.006	9.919177478027343	0.018555062866210937	0.07481880187988281	4.985809326171875	-5.0048828125	-0.84686279296875	9.787496386718749	0.5231330627441406	0.18375497741699218	0.461578369140625	-4.8980712890625	-3.223419189453125	9.882067352294921	0.031124621582031248	-0.14724340209960937	3.993988037109375	-4.428863525390625	-2.11334228515625	
154	0.616	0.0	0.0	0.0	0.0	0.003	0.003	0.003	0.006	9.931747036743163	0.2154781494140625	0.051475335693359374	3.50189208984375	-4.31060791015625	-1.010894775390625	9.745597857666015	0.2519897247314453	0.2855085479736328	-0.06103515625	-4.64630126953125	-2.8076171875	9.878476049804688	-0.022146365356445312	-0.12629413757324218	3.51715087890625	-4.528045654296875	-2.346038818359375	
155	0.62	0.0	0.0	0.0	0.0	0.006	0.003	0.003	0.003	9.865906491088866	-0.0430956298828125	0.10953472595214843	5.07354736328125	-4.810333251953125	-0.682830810546875	9.637858782958984	0.42377369384765623	0.22744915771484372	0.22125244140625	-4.688262939453125	-2.9449462890625	9.785102185058593	0.13347674255371092	-0.12689268798828124	3.597259521484375	-4.383087158203125	-2.193450927734375	
156	0.624	0.0	0.0	0.0	0.0	0.003	0.006	0.003	0.006	9.952696301269532	-0.1867477294921875	-0.16041151123046873	5.72967529296875	-5.931854248046875	-1.018524169921875	9.752780462646484	0.26815058593749996	0.30705636291503907	0.16021728515625	-5.031585693359375	-2.910614013671875	9.89523546142578	-0.04908113403320312	-0.13826514587402344	3.780364990234375	-4.894256591796875	-2.34222412109375	
157	0.628	0.0	0.0	0.0	0.0	0.003	0.003	0.003	0.003	9.906607919311522	-0.181959326171875	0.08918401184082031	5.88226318359375	-5.558013916015625	-0.946044921875	9.735422500610351	0.32142157287597656	0.17298106994628906	0.06103515625	-4.82940673828125	-2.933502197265625	9.928155734252929	0.09816226806640624	-0.16819266662597654	3.73077392578125	-4.14276123046875	-2.208709716796875	
158	0.632	0.0	0.0	0.0	0.0	0.006	0.006	0.003	0.006	9.920973129272461	-0.3178302703857422	-0.12629413757324218	4.894256591796875	-5.37872314453125	-0.8544921875	9.756970315551758	0.3363853332519531	0.03232172241210937	0.133514404296875	-4.7454833984375	-2.552032470703125	9.923367330932617	-0.14006079711914063	-0.14784195251464843	3.59344482421875	-4.57763671875	-2.140045166015625	
159	0.636	0.0	0.0	0.0	0.0	0.003	0.006	0.003	0.003	9.878476049804688	-0.02154781494140625	0.11552023010253906	6.206512451171875	-5.962371826171875	-0.865936279296875	9.672574707031249	0.36930560607910157	0.1753752716064453	0.11444091796875	-4.94384765625	-2.93731689453125	9.813832604980469	0.2645592834472656	-0.15322890625	3.7689208984375	-4.61578369140625	-2.063751220703125	
160	0.64	0.0	0.0	0.0	0.0	0.003	0.003	0.003	0.003	9.94012674255371	-0.5668272430419922	-0.12150573425292968	4.78363037109375	-5.2642822265625	-0.926971435546875	9.835978970336914	0.28311434631347654	0.003591302490234375	0.179290771484375	-4.894256591796875	-2.69317626953125	10.04906291809082	-0.24779987182617186	-0.1693897674560547	3.612518310546875	-4.657745361328125	-2.086639404296875	
161	0.644	0.0	0.0	0.0	0.0	0.006	0.003	0.006	0.0	9.882067352294921	-0.4004302276611328	-0.19333178405761717	1.911163330078125	-3.30352783203125	-1.064300537109375	9.93354268798828	0.34117373657226563	-0.1131260284423828	0.904083251953125	-4.856109619140625	-2.765655517578125	10.229226593017577	0.07003039855957031	-0.4896142395019531	3.765106201171875	-4.306793212890625	-2.2125244140625	
162	0.648	0.0	0.0	0.0	0.0	0.006	0.003	0.003	0.003	9.866505041503906	-0.4387374542236328	-0.08379705810546874	4.764556884765625	-5.22613525390625	-1.1749267578125	9.726444244384766	0.3848679168701172	-0.033518823242187495	0.30517578125	-5.023956298828125	-2.4871826171875	9.843760125732421	-0.06045359191894531	-0.15023615417480468	3.631591796875	-4.7454833984375	-1.93023681640625	
163	0.652	0.0	0.0	0.0	0.0	0.003	0.003	0.003	0.003	9.87668039855957	-0.7026981872558593	-0.19393033447265623	0.217437744140625	-2.117156982421875	-0.484466552734375	9.93952819213867	0.32142157287597656	-0.05327098693847656	0.713348388671875	-4.772186279296875	-2.666473388671875	10.262745416259765	0.07062894897460938	-0.4944026428222656	3.879547119140625	-4.680633544921875	-2.2125244140625	
164	0.656	0.0	0.0	0.0	0.0	0.003	0.003	0.006	0.006	9.900023864746093	-0.5704185455322265	-0.059256491088867186	-0.091552734375	-1.720428466796875	-0.934600830078125	9.859322436523437	0.4100070343017578	0.29927520751953124	0.125885009765625	-4.94384765625	-3.040313720703125	10.225036740112303	-0.016759411621093748	-0.1640028137207031	3.42559814453125	-4.802703857421875	-1.91497802734375	
165	0.66	0.0	0.0	0.0	0.0	0.003	0.003	0.003	0.003	9.81263550415039	-0.5835866546630859	-0.12150573425292968	-0.255584716796875	-1.514434814453125	-1.071929931640625	9.834781869506836	0.4052186309814453	-0.06284779357910156	0.80108642578125	-4.795074462890625	-2.666473388671875	10.120290417480469	0.1693897674560547	-0.5063736511230469	3.818511962890625	-4.291534423828125	-2.25067138671875	
166	0.664	0.0	0.0	0.0	0.0	0.006	0.003	0.003	0.003	9.634267480468749	-0.15562310791015624	0.5021837982177734	-1.48773193359375	-1.140594482421875	-0.54168701171875	9.759963067626952	0.5494692810058593	0.4171896392822265	0.522613525390625	-5.115509033203125	-2.872467041015625	10.120290417480469	0.13646949462890623	-0.1562216583251953	3.696441650390625	-4.638671875	-1.7852783203125	
167	0.668	0.0	0.0	0.0	0.0	0.003	0.003	0.003	0.006	9.83837317199707	-0.3633201019287109	-0.020350714111328123	-0.621795654296875	-1.361846923828125	-0.759124755859375	9.937133990478515	0.24660277099609373	0.12449848632812499	0.335693359375	-4.78363037109375	-3.16619873046875	10.338162768554687	-0.07302315063476562	-0.49200844116210934	3.589630126953125	-4.791259765625	-2.4871826171875	
168	0.672	0.0	0.0	0.0	0.0	0.003	0.003	0.003	0.006	9.611522564697266	0.0005985504150390625	0.5967547637939453	-0.31280517578125	-1.285552978515625	-0.93841552734375	9.758765966796874	0.5045779998779296	0.3477577911376953	0.3662109375	-4.6844482421875	-2.948760986328125	10.082581741333007	0.18375497741699218	-0.17178396911621094	3.543853759765625	-4.665374755859375	-1.766204833984375	
169	0.676	0.0	0.0	0.0	0.0	0.003	0.006	0.006	0.003	9.95987890625	0.46627077331542965	0.08858546142578125	-0.133514404296875	-2.124786376953125	-0.339508056640625	9.810839852905273	0.4860229370117187	0.21906945190429686	0.61798095703125	-4.82940673828125	-2.948760986328125	10.110713610839843	-0.07481880187988281	-0.5237316131591797	3.887176513671875	-4.497528076171875	-2.147674560546875	
170	0.68	0.0	0.0	0.0	0.0	0.003	0.003	0.003	0.009000000000000001	9.698910925292969	0.43574470214843747	0.5398924743652344	-0.03814697265625	-1.7547607421875	-0.34332275390625	9.87608184814453	0.3908534210205078	0.41539398803710936	0.0457763671875	-4.657745361328125	-2.8228759765625	10.308235247802735	0.034715924072265626	-0.21308394775390624	3.681182861328125	-4.863739013671875	-1.71661376953125	
171	0.684	0.0	0.0	0.0	0.0	0.003	0.003	0.003	0.006	10.02392380065918	0.603338818359375	-0.05566518859863281	4.093170166015625	-4.352569580078125	-1.323699951171875	9.891045608520507	0.412401235961914	0.1849520782470703	0.335693359375	-4.810333251953125	-2.90679931640625	10.147823736572265	-0.15083470458984374	-0.5159504577636719	3.60107421875	-4.627227783203125	-2.43377685546875	
172	0.6880000000000001	0.0	0.0	0.0	0.0	0.006	0.003	0.003	0.006	9.629479077148437	0.31543606872558594	0.6494272003173828	1.270294189453125	-2.521514892578125	-0.949859619140625	9.707290631103515	0.5859808563232421	0.25318682556152344	-0.286102294921875	-4.604339599609375	-2.788543701171875	9.795876092529296	0.3651157531738281	-0.11133037719726561	3.749847412109375	-4.79888916015625	-2.0294189453125	
173	0.6920000000000001	0.0	0.0	0.0	0.0	0.003	0.003	0.003	0.009000000000000001	10.074202035522461	0.4686649749755859	-0.18136077575683593	3.448486328125	-4.20379638671875	-0.58746337890625	9.917980377197265	0.3711012573242187	0.20530279235839843	0.885009765625	-4.878997802734375	-2.765655517578125	10.162188946533202	-0.2136824981689453	-0.489015689086914	3.76129150390625	-4.650115966796875	-2.323150634765625	
174	0.6960000000000001	0.0	0.0	0.0	0.0	0.003	0.003	0.003	0.0	10.140042581176758	0.18734627990722655	-0.3908534210205078	8.9263916015625	-7.8582763671875	-1.56402587890625	9.832986218261718	0.5009866973876953	0.0909796630859375	-0.0152587890625	-4.932403564453125	-2.605438232421875	9.970054263305663	0.21906945190429686	-0.16280571289062498	3.90625	-4.974365234375	-2.201080322265625	
175	0.7000000000000001	0.0	0.0	0.0	0.0	0.003	0.003	0.003	0.003	10.051457119750976	0.6344634399414062	-0.28012159423828126	8.1634521484375	-7.13348388671875	-1.758575439453125	9.752780462646484	0.35194764404296874	-0.04668693237304687	-0.003814697265625	-5.054473876953125	-2.51007080078125	9.843760125732421	-0.0718260498046875	-0.32501287536621093	3.50189208984375	-4.894256591796875	-2.1820068359375	
176	0.704	0.0	0.0	0.0	0.0	0.0	0.006	0.003	0.006	9.937732540893554	-0.9301473449707031	-0.07721300354003906	4.23431396484375	-5.035400390625	-0.7171630859375	9.764152920532226	0.5165490081787109	0.13946224670410157	-0.179290771484375	-4.92095947265625	-2.61688232421875	9.859322436523437	0.2759317413330078	-0.03172317199707031	3.5400390625	-4.703521728515625	-1.80816650390625	
177	0.708	0.0	0.0	0.0	0.0	0.006	0.006	0.003	0.003	10.058041174316406	-0.364517202758789	-0.3274070770263672	2.105712890625	-3.017425537109375	-0.644683837890625	9.82460651245117	0.24480711975097655	-0.06703764648437499	0.09918212890625	-4.70733642578125	-3.108978271484375	10.03050785522461	-0.21906945190429686	-0.32022447204589843	3.627777099609375	-4.863739013671875	-2.162933349609375	
178	0.712	0.0	0.0	0.0	0.0	0.006	0.003	0.003	0.006	9.958083255004881	0.001197100830078125	-0.17058686828613281	4.932403564453125	-5.21087646484375	-0.946044921875	9.712079034423828	0.5620388397216797	0.00239420166015625	0.949859619140625	-4.749298095703125	-3.215789794921875	9.874884747314452	0.31962592163085934	-0.16340426330566404	3.894805908203125	-4.428863525390625	-2.6092529296875	
179	0.716	0.0	0.0	0.0	0.0	0.006	0.003	0.003	0.003	9.623493572998047	-0.47285482788085936	0.3333925811767578	1.9989013671875	-3.116607666015625	-1.52587890625	9.744400756835937	0.45070846252441404	0.03411737365722656	0.537872314453125	-5.176544189453125	-2.742767333984375	9.865307940673828	-0.022744915771484374	-0.17597382202148437	3.6468505859375	-4.8675537109375	-2.246856689453125	
180	0.72	0.0	0.0	0.0	0.0	0.003	0.006	0.006	0.009000000000000001	9.815628256225585	-1.0983400115966797	0.10654197387695312	1.064300537109375	-2.63214111328125	-1.384735107421875	9.72285294189453	0.3842693664550781	0.26874913635253905	0.331878662109375	-4.718780517578125	-3.36456298828125	9.913191973876952	0.06584054565429687	0.15263035583496093	3.5858154296875	-4.0283203125	-2.32696533203125	
181	0.724	0.0	0.0	0.0	0.0	0.006	0.003	0.006	0.003	9.847351428222655	-0.49739539489746093	0.07481880187988281	-2.79998779296875	-0.43487548828125	-0.22125244140625	9.75517466430664	0.33399113159179683	0.21188684692382811	0.49591064453125	-4.9896240234375	-3.5858154296875	10.004770187377929	-0.03890577697753906	-0.3327940307617187	3.76129150390625	-4.955291748046875	-1.93023681640625	
182	0.728	0.0	0.0	0.0	0.0	0.006	0.003	0.003	0.003	9.986215124511718	0.7020996368408202	0.03950432739257812	4.08172607421875	-4.32586669921875	-0.84686279296875	9.631873278808593	0.36391865234375	0.3220201232910156	0.476837158203125	-4.72259521484375	-3.30352783203125	9.676764559936522	0.1406593475341797	0.16519991455078123	3.803253173828125	-4.21905517578125	-2.5787353515625	
183	0.732	0.0	0.0	0.0	0.0	0.0	0.003	0.003	0.003	9.93354268798828	0.5279214660644531	0.003591302490234375	4.726409912109375	-4.96673583984375	-1.651763916015625	9.765948571777344	0.3345896820068359	0.25318682556152344	0.30517578125	-5.22613525390625	-2.666473388671875	9.877877499389648	0.06584054565429687	0.18255787658691405	3.574371337890625	-4.72259521484375	-1.77001953125	
184	0.736	0.0	0.0	0.0	0.0	0.003	0.003	0.006	0.006	9.993397729492187	-0.4261678955078125	0.032920272827148434	4.44793701171875	-4.5318603515625	-1.323699951171875	9.875483297729492	0.3854664672851562	0.12330138549804687	0.60272216796875	-4.5166015625	-2.777099609375	9.919776028442381	0.014963760375976562	-0.040102877807617184	3.86810302734375	-4.5318603515625	-2.5634765625	
185	0.74	0.0	0.0	0.0	0.0	0.003	0.006	0.003	0.006	9.874884747314452	-0.411802685546875	-0.0718260498046875	2.521514892578125	-3.704071044921875	-0.95367431640625	9.674370358276366	0.4213794921875	0.15562310791015624	0.087738037109375	-5.214691162109375	-2.811431884765625	9.78689783630371	0.17477672119140625	0.17238251953125	3.856658935546875	-4.451751708984375	-1.73187255859375	
186	0.744	0.0	0.0	0.0	0.0	0.0	0.006	0.003	0.003	9.911994873046874	-0.354341845703125	0.143652099609375	1.956939697265625	-3.39508056640625	-0.06103515625	9.78629928588867	0.41898529052734373	0.21308394775390624	0.67138671875	-4.5318603515625	-2.96783447265625	10.223241088867187	-0.05327098693847656	-0.4638765716552734	3.673553466796875	-4.444122314453125	-1.93023681640625	
187	0.748	0.0	0.0	0.0	0.0	0.006	0.003	0.003	0.003	9.913191973876952	0.010773907470703125	0.24779987182617186	4.871368408203125	-4.76837158203125	-0.9307861328125	9.858723886108399	0.3058592620849609	0.3633201019287109	0.20599365234375	-5.138397216796875	-2.574920654296875	9.938929641723632	0.017956512451171875	0.11192892761230468	3.692626953125	-4.60052490234375	-2.002716064453125	
188	0.752	0.0	0.0	0.0	0.0	0.003	0.003	0.003	0.003	9.913191973876952	0.037110125732421874	0.0526724365234375	5.7830810546875	-5.279541015625	-0.934600830078125	9.758765966796874	0.5087678527832031	0.1580173095703125	0.774383544921875	-4.581451416015625	-3.1280517578125	10.237606298828124	-0.05626373901367187	-0.535702621459961	3.803253173828125	-4.23431396484375	-2.140045166015625	
189	0.756	0.0	0.0	0.0	0.0	-0.003	0.006	0.006	0.003	9.720458740234374	-0.10354922180175781	0.5183446594238281	3.2958984375	-4.062652587890625	-1.190185546875	9.776722479248047	0.3190273712158203	0.36691140441894526	-0.23651123046875	-5.16510009765625	-2.7008056640625	9.818022457885741	0.1274912384033203	0.20530279235839843	3.265380859375	-4.596710205078125	-1.8768310546875	
190	0.76	0.0	0.0	0.0	0.0	0.003	0.003	0.003	0.003	9.868300692749022	-0.28431144714355466	0.12330138549804687	-1.750946044921875	-0.9307861328125	-0.92315673828125	9.85692823486328	0.4471171600341797	0.1771709228515625	1.094818115234375	-4.8675537109375	-2.796173095703125	10.350133776855468	-0.11073182678222655	-0.49320554199218747	3.8299560546875	-4.40216064453125	-2.02178955078125	
191	0.764	0.0	0.0	0.0	0.0	0.003	0.003	0.003	0.0	9.771335525512695	-0.008379705810546874	0.46208092041015625	1.674652099609375	-2.8076171875	-0.91552734375	9.878476049804688	0.28012159423828126	0.22505495605468748	-0.148773193359375	-4.726409912109375	-2.887725830078125	10.205284576416014	0.1514332550048828	-0.37828386230468747	3.5858154296875	-4.53948974609375	-2.193450927734375	
192	0.768	0.0	0.0	0.0	0.0	0.006	0.003	0.006	0.003	9.894038360595703	-0.11192892761230468	-0.0796072052001953	-0.995635986328125	-1.190185546875	-1.049041748046875	9.836577520751952	0.6578069061279297	-0.03531447448730469	0.57220458984375	-4.72259521484375	-2.73895263671875	10.132859976196288	-0.00239420166015625	-0.33518823242187495	3.42559814453125	-4.360198974609375	-2.05230712890625	
193	0.772	0.0	0.0	0.0	0.0	0.009000000000000001	0.003	0.003	0.003	9.752780462646484	-0.17597382202148437	0.5638344909667968	1.247406005859375	-2.5177001953125	-0.759124755859375	9.867702142333984	0.2819172454833984	0.35134909362792965	-0.37384033203125	-5.60760498046875	-2.78472900390625	10.14483098449707	0.11731588134765625	-0.25917232971191406	3.765106201171875	-4.75311279296875	-2.033233642578125	
194	0.776	0.0	0.0	0.0	0.0	0.003	0.006	0.003	0.0	10.035894808959961	-0.3555389465332031	-0.21487959899902342	-0.28228759765625	-1.659393310546875	-0.5645751953125	10.000580334472655	0.4908113403320312	-0.14185644836425781	0.67138671875	-4.734039306640625	-2.86865234375	10.244190353393554	-0.11731588134765625	-0.6177040283203125	3.398895263671875	-4.61578369140625	-2.0599365234375	
195	0.78	0.0	0.0	0.0	0.0	0.006	0.006	0.003	0.003	9.874286196899414	0.13646949462890623	-0.12569558715820311	4.3182373046875	-4.497528076171875	-0.9918212890625	9.566032733154296	0.4369418029785156	0.48542438659667964	-0.080108642578125	-4.78363037109375	-2.964019775390625	9.982025271606444	0.181959326171875	-0.13407529296874998	3.63922119140625	-4.7454833984375	-2.0294189453125	
196	0.784	0.0	0.0	0.0	0.0	0.006	0.003	0.003	0.003	9.88386300354004	-0.031124621582031248	0.05805939025878906	1.132965087890625	-2.864837646484375	-0.70953369140625	9.891644158935547	0.4542997650146484	0.011971008300781249	1.194000244140625	-4.669189453125	-2.902984619140625	10.092757098388672	-0.0143652099609375	-0.4495113616943359	3.71551513671875	-4.82940673828125	-1.62506103515625	
197	0.788	0.0	0.0	0.0	0.0	0.003	0.006	0.006	0.003	9.889249957275391	0.07122749938964844	-0.06404489440917968	4.024505615234375	-4.352569580078125	-1.178741455078125	9.680355862426758	0.4177881896972656	0.43634325256347656	0.17547607421875	-4.795074462890625	-2.7923583984375	9.988609326171874	-0.029328970336914062	-0.20949264526367187	3.681182861328125	-4.53948974609375	-2.35748291015625	
198	0.792	0.0	0.0	0.0	0.0	0.003	0.006	0.006	0.006	9.87668039855957	0.09935936889648436	0.14963760375976562	1.18255615234375	-2.460479736328125	-0.713348388671875	9.88386300354004	0.3920505218505859	0.013168109130859374	0.263214111328125	-4.6844482421875	-2.956390380859375	10.173561404418944	-0.040102877807617184	-0.5015852478027344	3.757476806640625	-4.878997802734375	-1.972198486328125	
199	0.796	0.0	0.0	0.0	0.0	0.003	0.006	0.003	0.003	9.822810861206055	0.25438392639160157	0.037110125732421874	2.742767333984375	-4.055023193359375	-1.399993896484375	9.521740002441407	0.5213374114990235	0.508169302368164	0.102996826171875	-4.833221435546875	-2.89154052734375	9.783905084228515	0.054468087768554684	-0.0987608184814453	3.44085693359375	-4.711151123046875	-2.26593017578125	
200	0.8	0.0	0.0	0.0	0.0	-0.006	0.006	0.003	0.006	9.957484704589843	0.06584054565429687	-0.09576806640624999	3.57818603515625	-4.547119140625	-1.007080078125	9.904213717651366	0.3603273498535156	0.032920272827148434	0.415802001953125	-4.978179931640625	-2.872467041015625	10.214262832641602	-0.06404489440917968	-0.4626794708251953	3.658294677734375	-4.82177734375	-2.11334228515625	
201	0.804	0.0	0.0	0.0	0.0	0.003	0.003	4.635	4.599	9.963470208740233	0.06703764648437499	-0.11192892761230468	3.326416015625	-4.058837890625	-1.346588134765625	9.703100778198241	0.3429693878173828	0.2615665313720703	0.091552734375	-4.604339599609375	-3.124237060546875	9.919776028442381	-0.047884033203124995	-0.16280571289062498	3.665924072265625	-4.604339599609375	-2.101898193359375	
202	0.808	0.0	0.0	0.0	0.0	4.611	4.647	4.65	4.605	9.87727894897461	0.055066638183593745	-0.00239420166015625	3.635406494140625	-4.314422607421875	-0.751495361328125	9.8311905670166	0.4495113616943359	0.07062894897460938	0.49591064453125	-4.764556884765625	-2.956390380859375	9.852738381958007	0.21966800231933592	-0.1610100616455078	3.9215087890625	-4.7149658203125	-2.05230712890625	
203	0.812	0.0	0.0	0.0	0.0	4.605	4.647	4.647	4.614	9.9078050201416	-0.014963760375976562	0.013766659545898436	4.718780517578125	-2.971649169921875	-1.033782958984375	9.62109937133789	0.32142157287597656	0.3806780639648437	0.217437744140625	-4.84466552734375	-3.246307373046875	9.815029705810547	-0.040701428222656245	-0.07541735229492187	3.41796875	-4.78363037109375	-2.323150634765625	
204	0.8160000000000001	0.0	0.0	0.0	0.0	4.614	4.65	4.641	4.605	9.913790524291992	0.06763619689941405	-0.005985504150390624	3.604888916015625	-4.314422607421875	-0.75531005859375	9.781510882568359	0.3010708587646484	-0.00239420166015625	0.415802001953125	-5.268096923828125	-3.16619873046875	10.016142645263672	0.15562310791015624	-0.2765302917480469	3.536224365234375	-4.680633544921875	-2.025604248046875	
205	0.8200000000000001	0.0	0.0	0.0	0.0	4.611	4.647	4.647	4.59	9.821613760375977	-0.12629413757324218	0.14185644836425781	4.352569580078125	-4.764556884765625	-0.957489013671875	9.582193594360351	0.41539398803710936	0.42437224426269526	0.3814697265625	-4.611968994140625	-3.162384033203125	9.841964474487304	-0.22864625854492185	-0.13826514587402344	3.7689208984375	-4.047393798828125	-2.471923828125	
206	0.8240000000000001	0.0	0.0	0.0	0.0	4.617	4.65	4.65	4.581	9.829394915771484	0.04967968444824218	0.13407529296874998	2.033233642578125	-3.688812255859375	-0.865936279296875	9.702502227783203	0.33099837951660155	0.1292868896484375	0.438690185546875	-5.008697509765625	-2.89154052734375	9.90241806640625	0.27353753967285155	-0.1753752716064453	3.62396240234375	-4.67681884765625	-1.97601318359375	
207	0.8280000000000001	0.0	0.0	0.0	0.0	4.614	4.644	4.65	4.605	9.89523546142578	-0.016759411621093748	0.08738836059570312	4.306793212890625	-4.604339599609375	-0.942230224609375	9.810241302490233	0.3591302490234375	0.17417817077636719	0.091552734375	-4.535675048828125	-2.910614013671875	9.891045608520507	-0.2711433380126953	-0.1867477294921875	3.77655029296875	-4.2724609375	-2.452850341796875	
208	0.8320000000000001	0.0	0.0	0.0	0.0	4.614	4.6530000000000005	4.6530000000000005	4.6080000000000005	10.022128149414062	-0.13347674255371092	-0.0987608184814453	4.24957275390625	-5.07354736328125	-0.980377197265625	9.694122521972655	0.22086510314941404	0.16879121704101563	0.46539306640625	-5.01251220703125	-2.960205078125	9.973645565795898	0.22505495605468748	-0.1274912384033203	3.536224365234375	-4.772186279296875	-2.178192138671875	
209	0.836	0.0	0.0	0.0	0.0	4.614	4.65	4.6530000000000005	4.605	9.8449572265625	0.028730419921875	0.17118541870117188	4.5318603515625	-4.596710205078125	-0.888824462890625	9.725247143554688	0.46627077331542965	0.25797522888183594	0.324249267578125	-4.673004150390625	-2.99072265625	9.779715231323241	-0.16041151123046873	-0.08319850769042968	3.6773681640625	-4.2724609375	-2.57110595703125	
210	0.84	0.0	0.0	0.0	0.0	4.602	4.65	4.647	4.614	9.981426721191406	-0.12689268798828124	-0.05386953735351562	4.4708251953125	-4.94384765625	-0.98419189453125	9.782109432983399	0.1897404815673828	0.00718260498046875	-0.286102294921875	-4.711151123046875	-2.17437744140625	9.996390481567381	0.23403321228027343	-0.10295067138671875	3.742218017578125	-4.6234130859375	-1.934051513671875	
211	0.844	0.0	0.0	0.0	0.0	4.614	4.65	4.6530000000000005	4.605	9.929352835083007	-0.008978256225585938	0.04548983154296875	4.75311279296875	-4.940032958984375	-0.858306884765625	9.769539874267577	0.43454760131835934	0.18854338073730467	0.537872314453125	-4.520416259765625	-2.93731689453125	9.83837317199707	-0.2154781494140625	-0.12509703674316405	3.696441650390625	-4.604339599609375	-1.9378662109375	
212	0.848	0.0	0.0	0.0	0.0	4.614	4.6530000000000005	4.6530000000000005	4.59	9.9461122467041	-0.06344634399414062	0.01915361328125	5.4779052734375	-5.69915771484375	-1.0986328125	9.80665	0.30406361083984373	0.1640028137207031	0.087738037109375	-5.2337646484375	-2.6397705078125	9.849147079467773	0.24600422058105467	0.07481880187988281	3.6773681640625	-4.608154296875	-2.132415771484375	
213	0.852	0.0	0.0	0.0	0.0	4.614	4.65	4.65	4.59	9.884461553955077	-0.23223756103515625	-0.0017956512451171875	3.376007080078125	-4.146575927734375	-0.980377197265625	9.75517466430664	0.4465186096191406	0.17956512451171874	0.72479248046875	-4.82940673828125	-3.681182861328125	10.270526571655273	-0.09038111267089843	-0.5057751007080078	3.77655029296875	-4.512786865234375	-1.857757568359375	
214	0.856	0.0	0.0	0.0	0.0	4.614	4.644	4.65	0.003	9.98501802368164	-0.34656069030761716	-0.061650692749023434	5.24139404296875	-5.57708740234375	-1.010894775390625	9.882067352294921	0.2765302917480469	0.07242460021972656	0.179290771484375	-4.749298095703125	-2.498626708984375	9.983820922851562	0.12030863342285156	-0.005985504150390624	3.73077392578125	-4.467010498046875	-2.1820068359375	
215	0.86	0.0	0.0	0.0	0.0	0.003	0.003	0.003	0.006	9.87668039855957	-0.2609679809570312	-0.10414777221679687	2.43377685546875	-3.387451171875	-0.91552734375	9.815029705810547	0.5512649322509765	0.07481880187988281	1.0528564453125	-4.810333251953125	-2.986907958984375	10.05564697265625	-0.032920272827148434	-0.23642741394042968	3.53240966796875	-4.29534912109375	-2.166748046875	
216	0.864	0.0	0.0	0.0	0.0	0.003	0.003	0.003	0.006	9.928754284667969	-0.4584896179199218	0.09457096557617187	3.95965576171875	-4.96673583984375	-0.823974609375	9.840168823242188	0.28371289672851563	0.10354922180175781	0.270843505859375	-5.207061767578125	-2.605438232421875	10.116699114990233	0.19632453613281248	-0.296881005859375	3.509521484375	-4.70733642578125	-1.941680908203125	
217	0.868	0.0	0.0	0.0	0.0	0.003	0.003	0.003	0.003	9.900023864746093	-0.4339490509033203	-0.017956512451171875	1.537322998046875	-2.69317626953125	-0.934600830078125	10.001777435302733	0.4842272857666015	-0.18435352783203124	0.98419189453125	-5.031585693359375	-2.880096435546875	10.357316381835936	-0.08140285644531249	-0.6386532928466796	3.810882568359375	-4.57763671875	-2.140045166015625	
218	0.872	0.0	0.0	0.0	0.0	0.003	0.003	0.003	0.003	9.689334118652344	-0.06943184814453125	0.3268085266113281	0.1373291015625	-1.8463134765625	-0.782012939453125	9.68454571533203	0.5494692810058593	0.2280477081298828	0.54931640625	-4.8980712890625	-2.76947021484375	10.142436782836914	0.14544775085449219	-0.2549824768066406	3.726959228515625	-5.04302978515625	-2.132415771484375	
219	0.876	0.0	0.0	0.0	0.0	0.009000000000000001	0.006	0.003	0.003	9.788094937133788	-0.47644613037109373	0.02693476867675781	-0.4730224609375	-1.8310546875	-0.827789306640625	9.85632968444824	0.4997895965576172	0.015562310791015624	1.0528564453125	-4.8065185546875	-2.55584716796875	10.04247886352539	0.06584054565429687	-0.20949264526367187	3.54766845703125	-4.6844482421875	-1.789093017578125	
220	0.88	0.0	0.0	0.0	0.0	0.003	0.006	0.003	0.003	9.649829791259766	-0.12509703674316405	0.39145197143554683	-0.152587890625	-1.59454345703125	-0.850677490234375	9.708487731933593	0.565031591796875	0.3363853332519531	-0.03814697265625	-4.852294921875	-2.712249755859375	10.219649786376953	0.11372457885742186	-0.32142157287597656	3.66973876953125	-4.84466552734375	-2.010345458984375	
221	0.884	0.0	0.0	0.0	0.0	0.006	0.003	0.003	0.006	9.820416659545899	-0.23582886352539062	0.02633621826171875	0.1068115234375	-1.857757568359375	-0.728607177734375	9.892242709350585	0.3142389678955078	0.13587094421386717	0.3509521484375	-4.749298095703125	-3.231048583984375	10.281899029541014	-0.02454056701660156	-0.5380968231201172	3.51715087890625	-4.718780517578125	-1.819610595703125	
222	0.888	0.0	0.0	0.0	0.0	0.003	0.003	0.003	0.006	9.585186346435547	0.06883329772949218	0.4483142608642578	0.064849853515625	-1.880645751953125	-0.881195068359375	9.592967501831055	0.650624301147461	0.2555810272216797	0.179290771484375	-5.008697509765625	-2.651214599609375	9.975441217041014	0.23582886352539062	-0.25318682556152344	3.635406494140625	-4.58526611328125	-2.44140625	
223	0.892	0.0	0.0	0.0	0.0	0.006	0.006	0.003	0.006	9.889249957275391	0.2759317413330078	0.11073182678222655	0.213623046875	-2.15911865234375	-0.9307861328125	9.83178911743164	0.3956418243408203	0.11192892761230468	0.30517578125	-5.14984130859375	-3.192901611328125	10.188525164794921	0.08259995727539061	-0.507570751953125	3.570556640625	-4.901885986328125	-1.83868408203125	
224	0.896	0.0	0.0	0.0	0.0	0.003	0.003	0.006	0.003	9.700706576538085	0.023942016601562498	0.34835634155273437	0.560760498046875	-2.162933349609375	-0.865936279296875	9.833584768676758	0.5051765502929687	0.18614917907714842	0.244140625	-4.772186279296875	-3.18145751953125	10.041281762695311	-0.032920272827148434	-0.08559270935058594	3.627777099609375	-4.8370361328125	-2.132415771484375	
225	0.9	0.0	0.0	0.0	0.0	0.003	0.003	0.003	0.003	9.91438907470703	0.27293898925781246	0.08738836059570312	1.056671142578125	-2.674102783203125	-1.007080078125	9.798270294189452	0.3333925811767578	0.143652099609375	0.324249267578125	-4.85992431640625	-3.261566162109375	10.114304913330077	0.05027823486328125	-0.4955997436523437	3.51715087890625	-4.695892333984375	-2.34222412109375	
226	0.904	0.0	0.0	0.0	0.0	0.006	0.003	0.003	0.003	9.909600671386718	0.19033903198242186	0.014963760375976562	4.0283203125	-4.241943359375	-1.068115234375	9.628281976318359	0.6643909606933593	0.36391865234375	0.194549560546875	-4.817962646484375	-2.834320068359375	9.724050042724608	0.16220716247558592	0.06584054565429687	3.543853759765625	-4.70733642578125	-1.94549560546875	
227	0.908	0.0	0.0	0.0	0.0	0.006	0.003	0.003	0.003	10.01733974609375	0.14903905334472656	-0.0383072265625	0.8544921875	-2.72369384765625	-0.60272216796875	9.76116016845703	0.18734627990722655	0.23642741394042968	-0.095367431640625	-4.66156005859375	-2.620697021484375	9.949703549194336	-0.012569558715820313	-0.21188684692382811	3.37982177734375	-4.756927490234375	-1.983642578125	
228	0.912	0.0	0.0	0.0	0.0	0.003	0.006	0.006	0.003	10.018536846923828	-0.032920272827148434	-0.11552023010253906	4.93621826171875	-4.9591064453125	-1.018524169921875	9.79348189086914	0.5129577056884765	0.21128829650878905	0.35858154296875	-4.76837158203125	-3.01361083984375	9.980229620361328	0.008978256225585938	-0.08499415893554688	3.780364990234375	-4.6234130859375	-2.079010009765625	
229	0.916	0.0	0.0	0.0	0.0	0.006	0.006	0.003	0.006	9.898826763916015	0.44113165588378905	0.040701428222656245	2.34222412109375	-3.688812255859375	-1.0528564453125	9.589376199340819	0.30705636291503907	0.2232593048095703	-0.4119873046875	-4.7607421875	-2.76947021484375	9.66000514831543	0.05985504150390625	-0.1370680450439453	3.6468505859375	-4.627227783203125	-2.49481201171875	
230	0.92	0.0	0.0	0.0	0.0	0.003	0.006	0.003	0.003	9.93414123840332	0.01915361328125	-0.023942016601562498	5.6304931640625	-5.466461181640625	-0.9307861328125	9.871891995239258	0.32142157287597656	0.058657940673828124	0.614166259765625	-4.89044189453125	-2.597808837890625	9.79408044128418	0.1927332336425781	-0.0987608184814453	3.77655029296875	-4.535675048828125	-1.850128173828125	
231	0.924	0.0	0.0	0.0	0.0	0.006	0.003	0.003	0.003	9.97843396911621	-0.31064766540527344	-0.16639701538085935	6.519317626953125	-6.259918212890625	-0.896453857421875	9.86291373901367	0.20829554443359374	0.03591302490234375	-0.019073486328125	-4.795074462890625	-2.89154052734375	10.019135397338866	-0.20769699401855468	-0.2902969512939453	3.4332275390625	-4.669189453125	-2.3956298828125	
232	0.928	0.0	0.0	0.0	0.0	0.003	0.003	0.006	0.006	9.943119494628906	-0.047285482788085934	-0.1149216796875	6.14166259765625	-6.069183349609375	-0.9918212890625	9.708487731933593	0.3399766357421875	-0.00239420166015625	0.28228759765625	-4.69207763671875	-2.8076171875	9.821015209960937	0.14604630126953125	-0.16460136413574217	3.902435302734375	-4.38690185546875	-2.498626708984375	
233	0.932	0.0	0.0	0.0	0.0	0.006	0.003	0.003	0.003	9.83238766784668	-0.2597708801269531	-0.10295067138671875	5.962371826171875	-6.160736083984375	-0.84686279296875	9.634267480468749	0.4950011932373047	0.18375497741699218	0.324249267578125	-5.069732666015625	-2.681732177734375	9.740809454345703	0.07481880187988281	0.007781155395507812	3.696441650390625	-4.642486572265625	-1.796722412109375	
234	0.936	0.0	0.0	0.0	0.0	0.0	0.003	0.003	0.006	10.012551342773437	-0.4542997650146484	-0.1753752716064453	1.155853271484375	-2.87628173828125	-0.8544921875	9.817423907470703	0.13347674255371092	0.005985504150390624	0.507354736328125	-4.92095947265625	-2.819061279296875	9.9461122467041	-0.002992752075195312	0.004189852905273437	3.696441650390625	-4.375457763671875	-2.178192138671875	
235	0.9400000000000001	0.0	0.0	0.0	0.0	0.003	0.003	0.006	0.003	9.906009368896484	-0.7487865692138671	-0.15263035583496093	4.116058349609375	-4.8065185546875	-1.201629638671875	9.821015209960937	0.3381809844970703	0.05566518859863281	0.5340576171875	-4.913330078125	-2.956390380859375	10.075997686767577	-0.21128829650878905	-0.03890577697753906	3.582000732421875	-4.604339599609375	-1.987457275390625	
236	0.9440000000000001	0.0	0.0	0.0	0.0	0.006	0.003	0.006	0.006	9.718064538574218	-0.5398924743652344	0.11372457885742186	-1.155853271484375	-1.10626220703125	-0.659942626953125	9.526528405761718	0.5578489868164063	0.1352723937988281	0.6103515625	-4.978179931640625	-2.8533935546875	9.606734161376952	0.32082302246093747	0.020350714111328123	3.814697265625	-4.18853759765625	-2.37274169921875	
237	0.9480000000000001	0.0	0.0	0.0	0.0	0.0	0.006	0.003	0.006	9.809044201660155	-0.6272808349609375	0.10953472595214843	2.864837646484375	-4.077911376953125	-0.946044921875	9.807847100830077	0.2472013214111328	0.17657237243652343	0.60272216796875	-4.974365234375	-2.90679931640625	9.99160207824707	-0.076614453125	0.04548983154296875	3.841400146484375	-4.5013427734375	-1.80816650390625	
238	0.9520000000000001	0.0	0.0	0.0	0.0	0.006	0.006	0.003	0.003	9.85752678527832	-0.5716156463623047	0.15682020874023436	-0.6256103515625	-0.8544921875	-0.91552734375	10.06163247680664	0.3716998077392578	0.11073182678222655	0.751495361328125	-4.802703857421875	-3.265380859375	10.554838018798828	-0.2154781494140625	-0.5764040496826172	3.59344482421875	-4.35638427734375	-2.28118896484375	
239	0.9560000000000001	0.0	0.0	0.0	0.0	0.003	0.006	0.006	0.006	9.790489138793944	0.21188684692382811	0.4112041351318359	0.560760498046875	-2.193450927734375	-0.682830810546875	9.617508068847656	0.32441432495117184	0.2902969512939453	0.370025634765625	-4.90570068359375	-3.353118896484375	9.700706576538085	0.005985504150390624	0.12330138549804687	3.643035888671875	-4.4403076171875	-1.93023681640625	
240	0.96	0.0	0.0	0.0	0.0	0.003	0.006	0.006	0.006	9.791686239624022	-0.16340426330566404	0.16160861206054686	-1.31988525390625	-0.988006591796875	-0.4119873046875	9.797073193359374	0.6787561706542968	0.1388636962890625	0.705718994140625	-4.5928955078125	-2.521514892578125	10.20827732849121	0.16879121704101563	-0.6344634399414062	3.734588623046875	-4.40216064453125	-2.166748046875	
241	0.964	0.0	0.0	0.0	0.0	0.003	0.003	0.006	0.003	9.937133990478515	0.13168109130859373	0.18555062866210936	3.4027099609375	-4.100799560546875	-0.789642333984375	10.000580334472655	0.07302315063476562	0.3381809844970703	0.1983642578125	-4.680633544921875	-2.44903564453125	10.409988818359375	-0.08020575561523437	-0.3896563201904297	3.66973876953125	-4.90570068359375	-1.842498779296875	
242	0.968	0.0	0.0	0.0	0.0	0.003	0.003	0.003	0.006	9.92755718383789	0.20949264526367187	0.022744915771484374	2.09808349609375	-3.41033935546875	-0.89263916015625	9.833584768676758	0.5279214660644531	0.04129997863769531	0.7781982421875	-4.8370361328125	-3.02886962890625	10.180145458984374	-0.0143652099609375	-0.4423287567138672	3.658294677734375	-4.428863525390625	-2.330780029296875	
243	0.972	0.0	0.0	0.0	0.0	0.003	0.003	0.003	0.006	9.732429748535155	0.3022679595947265	0.3363853332519531	5.27191162109375	-5.37109375	-0.9307861328125	9.578602291870117	0.479438882446289	0.38367081604003905	-0.240325927734375	-4.917144775390625	-2.4261474609375	9.867103591918944	0.40940848388671874	-0.24001871643066405	3.4942626953125	-4.78363037109375	-1.865386962890625	
244	0.976	0.0	0.0	0.0	0.0	0.003	0.006	0.003	0.006	9.910797772216796	-0.2603694305419922	0.011971008300781249	1.514434814453125	-3.31878662109375	-0.79345703125	9.963470208740233	0.51714755859375	-0.031124621582031248	0.728607177734375	-4.852294921875	-2.811431884765625	10.146028085327147	-0.15023615417480468	-0.3058592620849609	3.856658935546875	-4.955291748046875	-2.033233642578125	
245	0.98	0.0	0.0	0.0	0.0	0.006	0.003	0.003	0.0	9.737218151855469	0.012569558715820313	0.41359833679199215	4.199981689453125	-4.474639892578125	-1.102447509765625	9.803657247924804	0.17776947326660156	0.4291606475830078	0.1068115234375	-4.94384765625	-3.265380859375	10.305242495727539	-0.03651157531738281	-0.3184288208007812	3.7841796875	-4.673004150390625	-2.227783203125	
246	0.984	0.0	0.0	0.0	0.0	0.003	0.003	0.003	0.006	9.782707983398437	0.21906945190429686	0.2041056915283203	0.179290771484375	-2.025604248046875	-1.0223388671875	9.765948571777344	0.7924807495117187	-0.040701428222656245	0.732421875	-4.70733642578125	-2.910614013671875	9.957484704589843	0.14425065002441406	-0.6248866333007812	3.66973876953125	-4.7607421875	-2.399444580078125	
247	0.988	0.0	0.0	0.0	0.0	0.006	0.006	0.003	0.003	9.590573300170897	0.005985504150390624	0.5279214660644531	1.544952392578125	-3.047943115234375	-0.77056884765625	9.576806640625	0.42317514343261714	0.5033808990478515	-0.217437744140625	-4.993438720703125	-2.95257568359375	10.17056865234375	0.19632453613281248	-0.12808978881835936	3.62396240234375	-4.7607421875	-1.739501953125	
248	0.992	0.0	0.0	0.0	0.0	0.0	0.006	0.003	0.003	9.941922393798828	-0.16340426330566404	0.07601590270996093	-1.25885009765625	-1.155853271484375	-1.03759765625	10.096348400878906	0.32082302246093747	-0.1131260284423828	0.75531005859375	-4.673004150390625	-3.04412841796875	10.417171423339843	-0.42437224426269526	-0.5189432098388671	3.6773681640625	-4.726409912109375	-2.292633056640625	
249	0.996	0.0	0.0	0.0	0.0	0.003	0.003	0.003	0.006	10.058041174316406	-0.02633621826171875	-0.30705636291503907	2.20489501953125	-3.322601318359375	-0.988006591796875	9.6151138671875	0.5596446380615234	0.2699462371826172	0.125885009765625	-4.634857177734375	-3.078460693359375	9.828796365356444	0.2615665313720703	-0.29388825378417965	3.70025634765625	-4.50897216796875	-2.582550048828125	
250	1.0	0.0	0.0	0.0	0.0	0.006	0.006	0.006	0.003	9.818022457885741	0.3268085266113281	0.29269115295410153	0.32806396484375	-2.132415771484375	-0.43487548828125	9.581595043945311	0.5099649536132812	0.2537853759765625	-0.072479248046875	-4.76837158203125	-2.79998779296875	9.955090502929687	0.01975216369628906	-0.3130418670654297	3.353118896484375	-4.66156005859375	-1.415252685546875	
251	1.004	0.0	0.0	0.0	0.0	0.003	0.003	0.006	0.003	10.063428128051758	-0.1897404815673828	-0.11671733093261719	4.82177734375	-5.18798828125	-1.422882080078125	9.846752877807617	0.2154781494140625	0.36810850524902344	0.057220458984375	-4.87518310546875	-2.8839111328125	10.11909331665039	-0.15203180541992187	-0.05386953735351562	3.509521484375	-4.619598388671875	-2.147674560546875	
252	1.008	0.0	0.0	0.0	0.0	0.003	0.003	0.006	0.003	9.99160207824707	-0.13287819213867186	-0.16699556579589842	5.1422119140625	-5.1422119140625	-1.1749267578125	9.937133990478515	0.3705027069091797	-0.105344873046875	0.591278076171875	-4.833221435546875	-3.078460693359375	10.063428128051758	0.020949264526367185	-0.3495534423828125	3.70025634765625	-4.7149658203125	-2.3040771484375	
253	1.012	0.0	0.0	0.0	0.0	0.003	0.006	0.006	0.006	9.801861596679688	0.17776947326660156	0.12509703674316405	3.36456298828125	-4.26483154296875	-1.094818115234375	9.440337145996093	0.7224503509521484	0.5428852264404297	0.20599365234375	-4.611968994140625	-3.01361083984375	9.533711010742186	0.3333925811767578	0.032920272827148434	3.658294677734375	-4.627227783203125	-2.38800048828125	
254	1.016	0.0	0.0	0.0	0.0	0.003	2.286	4.635	4.5840000000000005	9.866505041503906	-0.0430956298828125	-0.0017956512451171875	4.150390625	-5.02777099609375	-0.93841552734375	9.909600671386718	0.13587094421386717	0.15562310791015624	0.2899169921875	-5.046844482421875	-2.750396728515625	9.994594830322265	0.023343466186523436	-0.11372457885742186	3.59344482421875	-4.848480224609375	-1.834869384765625	
255	1.02	0.0	0.0	0.0	0.0	4.617	4.644	4.65	4.602	10.06881508178711	0.010773907470703125	-0.16041151123046873	3.71551513671875	-4.0283203125	-1.239776611328125	9.777321029663085	0.39803602600097654	0.09756371765136718	0.1983642578125	-4.93621826171875	-3.34930419921875	10.162787496948242	-0.31184476623535157	-0.3112462158203125	3.73077392578125	-4.3487548828125	-2.368927001953125	
256	1.024	0.0	0.0	0.0	0.0	4.6080000000000005	4.65	4.65	4.611	9.83837317199707	0.28311434631347654	-0.05746083984375	4.520416259765625	-5.016326904296875	-0.820159912109375	9.657012396240233	0.4261678955078125	0.105344873046875	0.354766845703125	-5.054473876953125	-2.864837646484375	9.679158761596678	0.3902548706054687	-0.22445640563964842	3.665924072265625	-4.608154296875	-1.9989013671875	
257	1.028	0.0	0.0	0.0	0.0	4.614	4.65	4.65	4.605	9.756371765136718	-0.23403321228027343	0.2813186950683594	4.543304443359375	-4.791259765625	-0.54931640625	9.473257418823241	0.4896142395019531	0.46208092041015625	0.1983642578125	-5.0048828125	-2.87628173828125	9.698910925292969	-0.11671733093261719	0.02454056701660156	3.658294677734375	-4.34112548828125	-2.1209716796875	
258	1.032	0.0	0.0	0.0	0.0	4.602	4.647	4.644	4.614	10.026916552734374	-0.2424129180908203	-0.10414777221679687	4.08172607421875	-5.01251220703125	-0.949859619140625	10.06881508178711	0.08140285644531249	-0.08918401184082031	0.5340576171875	-5.01251220703125	-2.79998779296875	10.227430941772461	0.032920272827148434	-0.411802685546875	3.56292724609375	-4.718780517578125	-2.0294189453125	
259	1.036	0.0	0.0	0.0	0.0	4.614	4.65	4.6530000000000005	4.602	9.910797772216796	-0.08738836059570312	-0.017357962036132813	4.608154296875	-4.322052001953125	-1.049041748046875	9.524134204101562	0.5955576629638671	0.2657563842773437	0.080108642578125	-4.730224609375	-3.204345703125	9.81263550415039	-0.1292868896484375	-0.24959552307128904	3.597259521484375	-4.459381103515625	-2.49481201171875	
260	1.04	0.0	0.0	0.0	0.0	4.611	4.6530000000000005	4.65	4.59	9.771934075927733	0.15741875915527342	0.21128829650878905	2.895355224609375	-3.856658935546875	-0.67138671875	9.573215338134766	0.34715924072265625	0.35314474487304687	0.38909912109375	-5.023956298828125	-2.605438232421875	9.683348614501952	0.4746504791259765	0.19093758239746092	3.582000732421875	-4.5928955078125	-2.05230712890625	
261	1.044	0.0	0.0	0.0	0.0	4.614	4.65	4.65	4.59	9.928754284667969	-0.3716998077392578	0.11013327636718749	3.7994384765625	-4.703521728515625	-0.965118408203125	9.912593423461914	0.39923312683105466	0.13467384338378904	0.438690185546875	-4.405975341796875	-2.92205810546875	10.081384640502929	-0.3184288208007812	-0.239420166015625	3.520965576171875	-4.505157470703125	-2.31170654296875	
262	1.048	0.0	0.0	0.0	0.0	4.614	4.644	4.65	4.605	10.083778842163085	-0.37229835815429685	-0.17058686828613281	2.74658203125	-3.910064697265625	-0.86212158203125	9.861118087768554	0.2699462371826172	0.0383072265625	0.1678466796875	-4.673004150390625	-2.93731689453125	10.17056865234375	0.09277531433105468	-0.31483751831054685	3.51715087890625	-4.302978515625	-2.216339111328125	
263	1.052	0.0	0.0	0.0	0.0	4.611	4.65	4.6530000000000005	4.6080000000000005	9.798270294189452	0.0	0.24301146850585936	3.8299560546875	-4.108428955078125	-0.782012939453125	9.631873278808593	0.546476528930664	0.26396073303222656	0.30517578125	-4.913330078125	-2.590179443359375	10.014945544433592	0.03411737365722656	-0.49739539489746093	3.70025634765625	-4.047393798828125	-1.9073486328125	
264	1.056	0.0	0.0	0.0	0.0	4.6080000000000005	4.65	2.793	0.003	9.924564431762695	-0.20829554443359374	0.105344873046875	4.3792724609375	-4.940032958984375	-0.759124755859375	9.815029705810547	0.3920505218505859	0.2855085479736328	0.11444091796875	-4.917144775390625	-2.349853515625	10.013748443603514	0.17238251953125	-0.11133037719726561	3.582000732421875	-4.70733642578125	-1.9683837890625	
265	1.06	0.0	0.0	0.0	0.0	0.003	0.003	0.003	0.003	10.035894808959961	-0.4848258361816406	-0.29867665710449215	2.277374267578125	-3.71551513671875	-1.087188720703125	10.034697708129881	0.24361001892089842	-0.1484405029296875	0.743865966796875	-4.61578369140625	-2.933502197265625	10.574590182495117	-0.2920926025390625	-0.7673416320800781	4.207611083984375	-4.82177734375	-1.956939697265625	
266	1.064	0.0	0.0	0.0	0.0	0.003	0.003	0.003	0.009000000000000001	9.898826763916015	-0.33698388366699217	0.06045359191894531	3.99017333984375	-4.50897216796875	-0.823974609375	9.76116016845703	0.526125814819336	0.14245499877929688	0.213623046875	-4.642486572265625	-2.76947021484375	10.022726699829102	0.1867477294921875	-0.2920926025390625	3.37982177734375	-4.47845458984375	-2.323150634765625	
267	1.068	0.0	0.0	0.0	0.0	0.003	0.003	0.006	0.003	9.755773214721678	-0.19931728820800781	0.059256491088867186	0.61798095703125	-2.46429443359375	-0.70953369140625	9.739013803100585	0.5339069702148437	0.1227028350830078	0.99945068359375	-5.046844482421875	-2.559661865234375	10.064026678466796	0.011971008300781249	-0.3597287994384765	3.536224365234375	-4.730224609375	-1.9073486328125	
268	1.072	0.0	0.0	0.0	0.0	0.006	0.003	0.003	0.003	9.967660061645507	-0.5297171173095703	-0.0053869537353515625	4.299163818359375	-4.772186279296875	-1.026153564453125	10.036493359375	0.24361001892089842	-0.0017956512451171875	0.3509521484375	-5.0048828125	-2.74658203125	10.372280142211913	-0.09816226806640624	-0.37289690856933594	3.448486328125	-4.734039306640625	-2.010345458984375	
269	1.076	0.0	0.0	0.0	0.0	0.003	0.003	0.003	0.003	9.904213717651366	-0.44412440795898434	-0.16699556579589842	0.37384033203125	-1.781463623046875	-0.96893310546875	9.97903251953125	0.4165910888671875	-0.22505495605468748	1.079559326171875	-4.978179931640625	-2.902984619140625	10.243591802978514	-0.03172317199707031	-0.6332663391113281	3.54766845703125	-4.82177734375	-2.11334228515625	
270	1.08	0.0	0.0	0.0	0.0	0.009000000000000001	0.003	0.006	0.006	9.529521157836914	0.06584054565429687	0.45549686584472654	-0.812530517578125	-1.361846923828125	-0.45013427734375	9.51276174621582	0.7188590484619141	0.29927520751953124	0.316619873046875	-4.8675537109375	-2.910614013671875	9.849745629882811	0.1693897674560547	-0.13287819213867186	3.658294677734375	-4.581451416015625	-2.223968505859375	
271	1.084	0.0	0.0	0.0	0.0	0.006	0.006	0.006	0.003	9.872490545654296	-0.36212300109863277	-0.04129997863769531	-0.20599365234375	-1.89208984375	-0.518798828125	9.999383233642577	0.3232172241210937	-0.076614453125	0.66375732421875	-4.871368408203125	-2.796173095703125	10.237606298828124	0.07422025146484375	-0.5291185668945312	3.47900390625	-4.894256591796875	-1.819610595703125	
272	1.088	0.0	0.0	0.0	0.0	0.003	0.006	0.006	0.006	9.801861596679688	-0.047884033203124995	0.1562216583251953	0.64849853515625	-2.22015380859375	-0.8392333984375	9.846752877807617	0.5069722015380859	0.047884033203124995	0.37384033203125	-4.718780517578125	-3.0975341796875	10.297461340332031	-0.1406593475341797	-0.43155484924316406	3.719329833984375	-4.459381103515625	-2.239227294921875	
273	1.092	0.0	0.0	0.0	0.0	0.006	0.003	0.003	0.006	9.743802206420899	-0.21487959899902342	0.12150573425292968	1.659393310546875	-2.941131591796875	-0.820159912109375	9.702502227783203	0.5213374114990235	0.13587094421386717	0.11444091796875	-4.932403564453125	-3.12042236328125	9.991003527832031	0.20470424194335937	-0.47704468078613277	3.482818603515625	-4.67681884765625	-2.22015380859375	
274	1.096	0.0	0.0	0.0	0.0	0.006	0.003	0.003	0.003	9.652223992919922	0.17597382202148437	0.4752490295410156	0.255584716796875	-2.208709716796875	-0.743865966796875	9.644442837524414	0.6009446166992187	0.3435679382324219	0.244140625	-4.92095947265625	-2.895355224609375	9.737816702270507	0.03531447448730469	0.033518823242187495	3.54766845703125	-4.886627197265625	-1.979827880859375	
275	1.1	0.0	0.0	0.0	0.0	0.003	0.003	0.003	0.009000000000000001	10.056844073486328	0.15023615417480468	-0.2059013427734375	2.8533935546875	-3.72314453125	-1.003265380859375	9.951499200439452	0.2214636535644531	0.10654197387695312	0.20599365234375	-4.7607421875	-3.10516357421875	10.370484490966795	-0.02154781494140625	-0.5979518646240234	3.4637451171875	-4.52423095703125	-2.2125244140625	
276	1.104	0.0	0.0	0.0	0.0	0.003	0.003	0.003	0.003	9.713874685668944	0.26874913635253905	0.40462008056640625	1.346588134765625	-2.346038818359375	-1.102447509765625	9.585186346435547	0.5883750579833984	0.36212300109863277	0.244140625	-4.638671875	-3.08990478515625	9.861716638183593	-0.04608838195800781	-0.08439560852050781	3.597259521484375	-4.53948974609375	-2.193450927734375	
277	1.108	0.0	0.0	0.0	0.0	0.003	0.003	0.003	0.006	9.85752678527832	0.4261678955078125	0.022146365356445312	3.368377685546875	-4.070281982421875	-0.667572021484375	9.610325463867188	0.4740519287109375	0.412401235961914	-0.14495849609375	-5.153656005859375	-2.933502197265625	9.610924014282226	0.10175357055664062	-0.14305354919433594	3.322601318359375	-4.558563232421875	-2.44903564453125	
278	1.112	0.0	0.0	0.0	0.0	-0.003	0.006	0.003	0.003	10.007164389038085	-0.028730419921875	-0.19213468322753904	6.732940673828125	-6.43157958984375	-0.9307861328125	9.888052856445311	0.32920272827148434	0.03232172241210937	0.29754638671875	-4.734039306640625	-3.047943115234375	10.044274514770507	-0.05386953735351562	-0.13407529296874998	3.635406494140625	-4.7454833984375	-1.789093017578125	
279	1.116	0.0	0.0	0.0	0.0	0.006	0.003	0.003	0.003	10.061033926391602	0.2998737579345703	-0.29269115295410153	5.641937255859375	-5.80596923828125	-1.19781494140625	9.86411083984375	0.22385785522460935	0.1640028137207031	-0.1068115234375	-4.7760009765625	-2.994537353515625	9.975441217041014	-0.21188684692382811	-0.3459621398925781	3.429412841796875	-4.543304443359375	-2.460479736328125	
280	1.12	0.0	0.0	0.0	0.0	0.003	0.006	0.003	0.003	9.843161575317382	-0.1406593475341797	-0.012569558715820313	6.5460205078125	-6.160736083984375	-1.0528564453125	9.564835632324218	0.604535919189453	0.2603694305419922	0.011444091796875	-4.611968994140625	-2.964019775390625	9.628281976318359	0.277727392578125	0.07900865478515624	3.787994384765625	-4.535675048828125	-2.162933349609375	
281	1.124	0.0	0.0	0.0	0.0	0.006	0.006	0.003	0.003	10.017938296508788	0.1292868896484375	-0.22744915771484372	5.649566650390625	-5.908966064453125	-0.980377197265625	9.688735568237304	0.16160861206054686	0.037110125732421874	0.446319580078125	-5.268096923828125	-2.777099609375	9.841365924072266	-0.14245499877929688	-0.22505495605468748	3.635406494140625	-4.89044189453125	-2.101898193359375	
282	1.1280000000000001	0.0	0.0	0.0	0.0	0.012	0.006	0.003	0.006	9.975441217041014	-0.5213374114990235	-0.19692308654785154	6.0882568359375	-5.86700439453125	-0.965118408203125	9.860519537353515	0.30885201416015623	-0.008978256225585938	0.63323974609375	-4.932403564453125	-2.849578857421875	10.073603485107421	0.055066638183593745	-0.15083470458984374	3.73077392578125	-4.35638427734375	-2.26593017578125	
283	1.1320000000000001	0.0	0.0	0.0	0.0	0.003	0.003	0.003	0.0	9.814431155395507	-0.7026981872558593	0.03411737365722656	2.124786376953125	-3.60870361328125	-1.0528564453125	9.555258825683593	0.297479556274414	0.1370680450439453	0.4119873046875	-4.85992431640625	-3.11279296875	9.744400756835937	-0.06943184814453125	-0.18914193115234373	3.5247802734375	-4.638671875	-2.41851806640625	
284	1.1360000000000001	0.0	0.0	0.0	0.0	0.006	0.003	0.003	0.003	9.721057290649414	-0.48542438659667964	0.23223756103515625	4.0283203125	-4.825592041015625	-0.6866455078125	9.694122521972655	0.5434837768554687	0.2902969512939453	0.804901123046875	-4.917144775390625	-2.864837646484375	9.672574707031249	0.35134909362792965	0.16699556579589842	3.7078857421875	-4.5013427734375	-2.124786376953125	
285	1.1400000000000001	0.0	0.0	0.0	0.0	0.006	0.003	0.003	0.006	9.929951385498047	-0.8176198669433593	0.09756371765136718	0.156402587890625	-2.00653076171875	-0.705718994140625	9.815029705810547	0.2424129180908203	0.08259995727539061	0.66375732421875	-4.917144775390625	-3.215789794921875	10.156203442382813	-0.23403321228027343	-0.013168109130859374	3.582000732421875	-4.57763671875	-1.781463623046875	
286	1.1440000000000001	0.0	0.0	0.0	0.0	0.006	0.003	0.006	0.006	9.74200655517578	-0.5536591339111328	0.2705447875976562	0.0	-1.644134521484375	-0.91552734375	9.843161575317382	0.33698388366699217	0.22266075439453123	0.736236572265625	-4.79888916015625	-3.2958984375	9.913191973876952	0.19333178405761717	-0.08559270935058594	3.753662109375	-4.390716552734375	-2.69317626953125	
287	1.1480000000000001	0.0	0.0	0.0	0.0	0.003	0.006	0.003	0.006	9.843161575317382	-0.2711433380126953	0.1657984649658203	-0.52642822265625	-1.689910888671875	-0.598907470703125	9.683348614501952	0.4417302062988281	0.41419688720703124	0.28228759765625	-5.161285400390625	-2.838134765625	9.752780462646484	0.07900865478515624	0.12090718383789062	3.513336181640625	-4.497528076171875	-1.77764892578125	
288	1.1520000000000001	0.0	0.0	0.0	0.0	0.006	0.003	0.006	0.003	9.973047015380859	-0.13646949462890623	-0.00239420166015625	1.903533935546875	-3.040313720703125	-0.667572021484375	9.928155734252929	0.22685060729980466	0.181959326171875	0.370025634765625	-4.962921142578125	-2.716064453125	10.255562811279296	-0.032920272827148434	-0.34237083740234375	3.490447998046875	-4.329681396484375	-2.132415771484375	
289	1.156	0.0	0.0	0.0	0.0	0.006	0.003	0.003	0.0	10.089165795898436	-0.4896142395019531	-0.15502455749511718	2.15911865234375	-3.147125244140625	-0.972747802734375	9.935936889648437	0.28490999755859375	0.24061726684570311	-0.030517578125	-4.833221435546875	-2.758026123046875	10.091559997558592	-0.16519991455078123	-0.012569558715820313	3.566741943359375	-4.5318603515625	-2.13623046875	
290	1.16	0.0	0.0	0.0	0.0	0.006	0.003	0.003	0.003	9.89523546142578	-0.1388636962890625	-0.016160861206054686	2.269744873046875	-3.37982177734375	-0.6561279296875	9.750386260986328	0.6057330200195312	0.17178396911621094	0.843048095703125	-4.787445068359375	-2.887725830078125	10.056844073486328	0.09516951599121093	-0.27952304382324217	3.673553466796875	-4.489898681640625	-2.437591552734375	
291	1.164	0.0	0.0	0.0	0.0	0.003	0.006	0.003	0.003	9.606135610961914	0.20709844360351562	0.5255272644042969	3.73077392578125	-4.032135009765625	-0.79345703125	9.809044201660155	0.41419688720703124	0.34656069030761716	0.45013427734375	-5.0811767578125	-2.330780029296875	9.996989031982421	0.04189852905273437	0.003591302490234375	3.692626953125	-4.680633544921875	-1.86920166015625	
292	1.168	0.0	0.0	0.0	0.0	0.003	0.006	0.003	0.003	9.956287603759765	-0.41419688720703124	-0.03651157531738281	2.60162353515625	-3.73077392578125	-0.919342041015625	10.038887561035155	0.3758896606445312	0.01915361328125	1.026153564453125	-4.840850830078125	-2.986907958984375	10.427346780395506	-0.25797522888183594	-0.3597287994384765	3.47900390625	-4.360198974609375	-2.124786376953125	
293	1.172	0.0	0.0	0.0	0.0	0.003	0.003	0.003	0.006	9.637260232543944	0.11252747802734374	0.48183308410644526	1.705169677734375	-2.685546875	-0.850677490234375	9.718064538574218	0.37828386230468747	0.33518823242187495	0.049591064453125	-4.985809326171875	-2.994537353515625	10.084377392578125	0.2950853546142578	-0.18734627990722655	3.681182861328125	-4.2877197265625	-1.94549560546875	
294	1.176	0.0	0.0	0.0	0.0	0.006	0.003	0.006	0.006	9.758765966796874	-0.3477577911376953	0.181959326171875	0.51116943359375	-2.262115478515625	-0.789642333984375	9.789890588378906	0.6691793640136718	0.12030863342285156	1.110076904296875	-4.764556884765625	-2.9754638671875	10.098144052124022	-0.02154781494140625	-0.2651578338623047	3.757476806640625	-4.4097900390625	-2.20489501953125	
295	1.18	0.0	0.0	0.0	0.0	0.006	0.003	0.003	0.006	9.763554370117188	-0.10175357055664062	0.35194764404296874	0.396728515625	-2.20489501953125	-0.701904296875	9.77432827758789	0.3393780853271484	0.43035774841308594	-0.0762939453125	-4.940032958984375	-2.7313232421875	10.286088882446288	0.1657984649658203	-0.25139117431640623	3.68499755859375	-4.825592041015625	-1.91497802734375	
296	1.184	0.0	0.0	0.0	0.0	0.009000000000000001	0.003	0.003	4.596	10.002974536132811	0.13407529296874998	0.017357962036132813	0.3509521484375	-2.498626708984375	-0.988006591796875	9.911994873046874	0.565031591796875	0.014963760375976562	0.408172607421875	-4.58526611328125	-3.002166748046875	10.212467181396484	-0.18914193115234373	-0.3280056274414062	3.66973876953125	-4.528045654296875	-2.216339111328125	
297	1.188	0.0	0.0	0.0	0.0	4.605	4.647	4.65	4.6080000000000005	9.627084875488281	0.2885013000488281	0.4159925384521484	1.708984375	-2.979278564453125	-0.762939453125	9.494805233764648	0.5787982513427734	0.5392939239501953	0.0152587890625	-5.153656005859375	-2.86102294921875	9.977236868286132	0.41060558471679687	-0.23523031311035156	3.4942626953125	-4.688262939453125	-1.91497802734375	
298	1.192	0.0	0.0	0.0	0.0	4.611	4.65	4.65	4.605	9.886855755615233	0.13946224670410157	0.20949264526367187	0.87738037109375	-2.7923583984375	-0.8544921875	9.862315188598632	0.4537012145996093	0.15741875915527342	0.18310546875	-4.787445068359375	-3.108978271484375	10.153210690307617	-0.09636661682128905	-0.26216508178710934	3.513336181640625	-4.8370361328125	-1.8463134765625	
299	1.196	0.0	0.0	0.0	0.0	4.605	4.65	4.647	4.614	9.726444244384766	-0.015562310791015624	0.297479556274414	3.055572509765625	-3.917694091796875	-1.0528564453125	9.749189160156249	0.4165910888671875	0.30047230834960936	0.286102294921875	-5.1116943359375	-2.9754638671875	9.952696301269532	-0.0526724365234375	-0.00239420166015625	3.7994384765625	-4.72259521484375	-2.468109130859375	
300	1.2	0.0	0.0	0.0	0.0	4.614	4.65	4.6530000000000005	4.596	9.86351228942871	0.0652419952392578	0.05327098693847656	-0.446319580078125	-1.68609619140625	-0.72479248046875	9.775525378417969	0.5201403106689453	0.06943184814453125	0.69427490234375	-4.974365234375	-2.895355224609375	9.98501802368164	0.08978256225585937	-0.3172317199707031	3.47900390625	-4.825592041015625	-1.953125	
301	1.204	0.0	0.0	0.0	0.0	4.611	4.647	4.647	4.587	9.874286196899414	-0.03890577697753906	0.06763619689941405	3.047943115234375	-3.902435302734375	-0.885009765625	9.612719665527344	0.49859249572753905	0.4070142822265625	0.217437744140625	-4.695892333984375	-2.994537353515625	9.679158761596678	0.09636661682128905	0.13407529296874998	3.582000732421875	-4.3487548828125	-2.292633056640625	
302	1.208	0.0	0.0	0.0	0.0	4.617	4.647	4.65	4.587	10.00955859069824	-0.11611878051757812	-0.16460136413574217	1.399993896484375	-2.6702880859375	-0.736236572265625	10.008361489868163	0.2442085693359375	-0.08200140686035155	0.64849853515625	-4.840850830078125	-2.960205078125	10.313023651123046	-0.09217676391601562	-0.5799953521728515	3.810882568359375	-4.87518310546875	-2.361297607421875	
303	1.212	0.0	0.0	0.0	0.0	4.614	4.647	4.65	4.602	9.898826763916015	-0.13168109130859373	0.03172317199707031	2.99072265625	-3.51715087890625	-0.926971435546875	9.663596450805663	0.5955576629638671	0.21787235107421873	0.293731689453125	-5.107879638671875	-3.33404541015625	9.8449572265625	0.017956512451171875	-0.11791443176269531	3.71551513671875	-4.650115966796875	-2.452850341796875	
