	time	dac1	dac2	dac3	dac4	adc1.3	adc2.3	adc3.3	adc4.3	imu1accx	imu1accy	imu1accz	imu1gyrox	imu1gyroy	imu1gyroz	imu2accx	imu2accy	imu2accz	imu2gyrox	imu2gyroy	imu2gyroz	imu3accx	imu3accy	imu3accz	imu3gyrox	imu3gyroy	imu3gyroz	log
0	0.0	0.0	0.0	0.0	0.0	4.593	4.635	4.635	4.575	9.87668039855957	0.5093664031982421	0.07302315063476562	2.704620361328125	-3.35693359375	-0.736236572265625	9.788693487548828	0.3507505432128906	0.17836802368164062	0.42724609375	-4.96673583984375	-2.64739990234375	10.013748443603514	-0.02154781494140625	-0.21787235107421873	3.780364990234375	-4.55474853515625	-2.02178955078125	Estabilizou em 4s, 528 rpm
1	0.004	0.0	0.0	0.0	0.0	4.596	4.635	4.635	4.5600000000000005	9.8694977935791	0.5153519073486328	0.06763619689941405	2.31170654296875	-3.77655029296875	-0.949859619140625	9.78629928588867	0.354940396118164	0.1753752716064453	0.278472900390625	-4.8828125	-2.89154052734375	10.007164389038085	-0.02154781494140625	-0.2214636535644531	3.726959228515625	-4.67681884765625	-1.9989013671875	Started
2	0.008	0.0	0.0	0.0	0.0	4.599	4.632	4.635	4.575	9.859920986938477	0.5297171173095703	0.06404489440917968	2.63214111328125	-3.56292724609375	-0.83160400390625	9.782707983398437	0.36810850524902344	0.0053869537353515625	0.3662109375	-4.955291748046875	-2.834320068359375	10.00955859069824	-0.010773907470703125	-0.23403321228027343	3.604888916015625	-4.451751708984375	-2.12860107421875	IMU1|LSM6DS3|0x6A|I2C-1|±2g (±19,6m/s²)|±125º/s|400Hz
3	0.012	0.0	0.0	0.0	0.0	4.59	4.635	4.635	4.5840000000000005	9.86411083984375	0.5345055206298828	0.06404489440917968	2.69317626953125	-3.826141357421875	-0.87738037109375	9.785102185058593	0.37409400939941406	0.15382745666503905	0.49591064453125	-4.9285888671875	-2.899169921875	10.008960040283203	0.011971008300781249	-0.2537853759765625	3.51715087890625	-4.665374755859375	-2.223968505859375	IMU2|LSM6DS3|0x6B|I2C-1|±2g (±19,6m/s²)|±125º/s|400Hz
4	0.016	0.0	0.0	0.0	0.0	4.596	4.635	4.638	4.59	9.862315188598632	0.5524620330810547	0.040701428222656245	2.43377685546875	-3.383636474609375	-0.759124755859375	9.780912332153319	0.39264907226562495	0.14006079711914063	0.492095947265625	-4.970550537109375	-3.021240234375	10.014346994018554	0.02454056701660156	-0.2693476867675781	3.780364990234375	-4.58526611328125	-2.201080322265625	IMU3|LSM6DS3|0x6B|I2C-2|±2g (±19,6m/s²)|±125º/s|400Hz
5	0.02	0.0	0.0	0.0	0.0	4.5840000000000005	4.632	4.632	4.593	9.860519537353515	0.5596446380615234	0.03172317199707031	2.655029296875	-3.73077392578125	-0.823974609375	9.782109432983399	0.4082113830566406	0.1322796417236328	0.42724609375	-4.8828125	-2.75421142578125	10.011952792358398	0.03232172241210937	-0.26216508178710934	3.570556640625	-4.825592041015625	-2.197265625	ADC|ADS1015|0|0|1|0|±6,144 V|2400 SPS
6	0.024	0.0	0.0	0.0	0.0	4.593	4.635	4.6290000000000004	4.581	9.867103591918944	0.5644330413818359	0.030526071166992186	2.552032470703125	-3.780364990234375	-0.865936279296875	9.784503634643555	0.4147954376220703	0.14544775085449219	0.545501708984375	-4.787445068359375	-2.9449462890625	10.008960040283203	0.03651157531738281	-0.2699462371826172	3.71551513671875	-4.67681884765625	-2.0904541015625	Gen1|Disabled
7	0.028	0.0	0.0	0.0	0.0	4.593	4.638	4.635	4.566	9.868899243164062	0.5931634613037109	0.02693476867675781	2.681732177734375	-3.83758544921875	-0.720977783203125	9.785700735473633	0.4261678955078125	0.1370680450439453	0.0457763671875	-4.76837158203125	-2.73895263671875	10.01015714111328	0.0526724365234375	-0.2885013000488281	3.6773681640625	-4.795074462890625	-1.93023681640625	Gen2|Enabled|Noise|0.0|10.0|1668
8	0.032	0.0	0.0	0.0	0.0	4.596	4.635	4.635	4.5600000000000005	9.85692823486328	0.6015431671142578	0.016759411621093748	2.61688232421875	-3.82232666015625	-0.820159912109375	9.783905084228515	0.4321533996582031	0.12868833923339842	0.28228759765625	-4.78363037109375	-2.895355224609375	10.012551342773437	0.06344634399414062	-0.28311434631347654	3.6468505859375	-4.444122314453125	-2.09808349609375	Gen3|Enabled|Noise|0.0|10.0|128
9	0.036000000000000004	0.0	0.0	0.0	0.0	4.593	4.6290000000000004	4.635	4.578	9.860519537353515	0.6009446166992187	0.01915361328125	2.44140625	-3.65447998046875	-0.70953369140625	9.782109432983399	0.4375403533935547	0.13587094421386717	0.324249267578125	-4.756927490234375	-2.689361572265625	10.012551342773437	0.0718260498046875	-0.2819172454833984	3.780364990234375	-4.5928955078125	-2.254486083984375	Gen4|Enabled|Noise|0.0|10.0|128
10	0.04	0.0	0.0	0.0	0.0	4.593	4.635	4.638	4.59	9.86411083984375	0.6081272216796875	0.017956512451171875	2.567291259765625	-3.509521484375	-0.81634521484375	9.783905084228515	0.4471171600341797	0.1274912384033203	0.29754638671875	-4.863739013671875	-2.849578857421875	10.019733947753906	0.08319850769042968	-0.27293898925781246	3.414154052734375	-4.45556640625	-2.216339111328125	Ctrl|Disabled
11	0.044	0.0	0.0	0.0	0.0	4.593	4.635	4.635	4.587	9.86291373901367	0.6057330200195312	0.01915361328125	2.61688232421875	-3.631591796875	-0.873565673828125	9.790489138793944	0.44592005920410155	0.12988544006347655	0.339508056640625	-4.81414794921875	-3.002166748046875	10.01075569152832	0.08439560852050781	-0.2759317413330078	3.757476806640625	-4.741668701171875	-2.178192138671875	
12	0.048	0.0	0.0	0.0	0.0	4.581	4.632	4.632	4.593	9.858723886108399	0.6183025787353515	0.016160861206054686	2.544403076171875	-3.582000732421875	-0.75531005859375	9.78629928588867	0.4531026641845703	0.1292868896484375	0.18310546875	-4.970550537109375	-2.735137939453125	10.012551342773437	0.086191259765625	-0.2711433380126953	3.50189208984375	-4.58526611328125	-2.048492431640625	
13	0.052000000000000005	0.0	0.0	0.0	0.0	4.593	4.635	4.635	4.5840000000000005	9.864709390258788	0.6057330200195312	0.015562310791015624	2.4871826171875	-3.620147705078125	-0.850677490234375	9.782707983398437	0.4590881683349609	0.14245499877929688	0.41961669921875	-4.901885986328125	-2.773284912109375	10.011952792358398	0.08918401184082031	-0.2753331909179687	3.59344482421875	-4.70733642578125	-2.18963623046875	
14	0.056	0.0	0.0	0.0	0.0	4.593	4.638	4.635	4.563	9.859920986938477	0.6147112762451171	0.020949264526367185	2.40325927734375	-3.330230712890625	-0.759124755859375	9.776722479248047	0.45489831542968745	0.14305354919433594	0.522613525390625	-4.89044189453125	-2.864837646484375	10.011354241943359	0.08499415893554688	-0.25797522888183594	3.574371337890625	-4.57000732421875	-2.155303955078125	
15	0.06	0.0	0.0	0.0	0.0	4.599	4.6290000000000004	4.632	4.566	9.864709390258788	0.6141127258300781	0.025139117431640625	2.666473388671875	-3.505706787109375	-0.8392333984375	9.780912332153319	0.45549686584472654	0.14305354919433594	0.30517578125	-4.848480224609375	-2.819061279296875	10.01733974609375	0.09337386474609374	-0.2555810272216797	3.711700439453125	-4.60052490234375	-2.1514892578125	
16	0.064	0.0	0.0	0.0	0.0	4.599	4.6290000000000004	4.635	4.581	9.86291373901367	0.6087257720947266	0.03890577697753906	2.899169921875	-3.559112548828125	-0.682830810546875	9.782109432983399	0.45669396667480466	0.1592144104003906	0.499725341796875	-5.107879638671875	-2.887725830078125	10.008361489868163	0.07721300354003906	-0.2603694305419922	3.77655029296875	-4.589080810546875	-2.178192138671875	
17	0.068	0.0	0.0	0.0	0.0	4.593	4.635	4.638	4.5840000000000005	9.858723886108399	0.6171054779052734	0.03950432739257812	2.613067626953125	-3.582000732421875	-0.843048095703125	9.78629928588867	0.4525041137695312	0.14784195251464843	0.18310546875	-4.673004150390625	-2.64739990234375	10.01075569152832	0.07601590270996093	-0.24660277099609373	3.559112548828125	-4.69207763671875	-2.34222412109375	
18	0.07200000000000001	0.0	0.0	0.0	0.0	4.593	4.635	4.635	4.587	9.85752678527832	0.6194996795654296	0.037708676147460936	2.70843505859375	-3.414154052734375	-0.820159912109375	9.785102185058593	0.45190556335449217	0.16460136413574217	0.545501708984375	-5.01251220703125	-2.76947021484375	10.011354241943359	0.07541735229492187	-0.2424129180908203	3.582000732421875	-4.852294921875	-2.063751220703125	
19	0.076	0.0	0.0	0.0	0.0	4.581	4.632	4.632	4.596	9.85692823486328	0.613514175415039	0.04548983154296875	2.605438232421875	-3.692626953125	-0.835418701171875	9.777919580078125	0.4465186096191406	0.15981296081542967	0.2288818359375	-5.0048828125	-3.055572509765625	10.00417163696289	0.06703764648437499	-0.23642741394042968	3.505706787109375	-4.825592041015625	-2.292633056640625	
20	0.08	0.0	0.0	0.0	0.0	4.596	4.635	4.635	4.572	9.861118087768554	0.6057330200195312	0.05686228942871093	2.5482177734375	-3.658294677734375	-0.86212158203125	9.791087689208984	0.4417302062988281	0.16280571289062498	0.22125244140625	-4.9896240234375	-2.6702880859375	10.01015714111328	0.07302315063476562	-0.24361001892089842	3.963470458984375	-4.29534912109375	-1.857757568359375	
21	0.084	0.0	0.0	0.0	0.0	4.593	4.635	4.638	4.563	9.85692823486328	0.5991489654541016	0.06045359191894531	2.620697021484375	-3.696441650390625	-0.888824462890625	9.788693487548828	0.4291606475830078	0.1657984649658203	0.213623046875	-4.92095947265625	-2.86865234375	10.00955859069824	0.055066638183593745	-0.239420166015625	3.7384033203125	-4.7454833984375	-2.231597900390625	
22	0.088	0.0	0.0	0.0	0.0	4.599	4.632	4.635	4.569	9.861716638183593	0.5919663604736328	0.07003039855957031	2.838134765625	-3.704071044921875	-1.049041748046875	9.78629928588867	0.42018239135742186	0.17178396911621094	0.217437744140625	-4.970550537109375	-2.84576416015625	10.007762939453125	0.05566518859863281	-0.24001871643066405	3.787994384765625	-4.5928955078125	-2.033233642578125	
23	0.092	0.0	0.0	0.0	0.0	4.596	4.626	4.635	4.5840000000000005	9.858125335693359	0.5847837554931641	0.07900865478515624	2.61688232421875	-3.6163330078125	-0.7171630859375	9.782707983398437	0.41898529052734373	0.17597382202148437	0.362396240234375	-4.810333251953125	-2.880096435546875	10.007164389038085	0.0430956298828125	-0.23223756103515625	3.37982177734375	-4.596710205078125	-2.197265625	
24	0.096	0.0	0.0	0.0	0.0	4.593	4.635	4.638	4.593	9.861716638183593	0.5710170959472656	0.08020575561523437	2.696990966796875	-3.6468505859375	-0.79345703125	9.779116680908203	0.4171896392822265	0.1849520782470703	0.385284423828125	-5.199432373046875	-2.758026123046875	9.996989031982421	0.04249707946777344	-0.229843359375	3.6773681640625	-4.550933837890625	-2.101898193359375	
25	0.1	0.0	0.0	0.0	0.0	4.59	4.632	4.632	4.587	9.865307940673828	0.5488707305908203	0.07422025146484375	2.651214599609375	-3.68499755859375	-0.904083251953125	9.78629928588867	0.4034229797363281	0.1849520782470703	0.11444091796875	-4.688262939453125	-2.9449462890625	10.008960040283203	0.030526071166992186	-0.22385785522460935	3.635406494140625	-4.756927490234375	-2.17437744140625	
26	0.10400000000000001	0.0	0.0	0.0	0.0	4.581	4.632	4.6290000000000004	4.596	9.858723886108399	0.5500678314208984	0.0909796630859375	2.50244140625	-3.452301025390625	-0.90789794921875	9.785700735473633	0.3956418243408203	0.17836802368164062	0.331878662109375	-4.730224609375	-2.69317626953125	10.012551342773437	0.018555062866210937	-0.2292448089599609	3.681182861328125	-4.528045654296875	-2.170562744140625	
27	0.108	0.0	0.0	0.0	0.0	4.596	4.638	4.635	4.572	9.871891995239258	0.5416881256103515	0.09277531433105468	2.422332763671875	-3.77655029296875	-0.850677490234375	9.785102185058593	0.3848679168701172	0.18375497741699218	0.057220458984375	-4.7607421875	-2.941131591796875	10.01733974609375	0.012569558715820313	-0.22685060729980466	3.76129150390625	-4.730224609375	-2.285003662109375	
28	0.112	0.0	0.0	0.0	0.0	4.596	4.635	4.635	4.563	9.8694977935791	0.5374982727050781	0.0796072052001953	2.57110595703125	-3.658294677734375	-0.904083251953125	9.783306533813477	0.3711012573242187	0.18734627990722655	0.255584716796875	-5.08880615234375	-2.838134765625	10.01015714111328	0.0017956512451171875	-0.20649989318847656	3.82232666015625	-4.63104248046875	-2.330780029296875	
29	0.116	0.0	0.0	0.0	0.0	4.596	4.632	4.635	4.572	9.86411083984375	0.5285200164794922	0.07422025146484375	2.635955810546875	-3.5247802734375	-0.93841552734375	9.783905084228515	0.3699041564941406	0.19093758239746092	0.049591064453125	-4.66156005859375	-2.872467041015625	10.016142645263672	0.0005985504150390625	-0.19632453613281248	3.50189208984375	-4.58526611328125	-2.1209716796875	
30	0.12	0.0	0.0	0.0	0.0	4.599	4.626	4.635	4.5840000000000005	9.86291373901367	0.51714755859375	0.08020575561523437	2.43377685546875	-3.70025634765625	-0.762939453125	9.785102185058593	0.35134909362792965	0.19512743530273435	0.370025634765625	-4.8675537109375	-2.841949462890625	10.005368737792969	-0.006584054565429687	-0.19871873779296872	3.77655029296875	-4.547119140625	-2.1820068359375	
31	0.124	0.0	0.0	0.0	0.0	4.593	4.635	4.638	4.587	9.86411083984375	0.5057751007080078	0.08499415893554688	2.4566650390625	-3.37982177734375	-0.782012939453125	9.783306533813477	0.3489548919677734	0.18914193115234373	0.2593994140625	-4.93621826171875	-2.7313232421875	10.00955859069824	-0.022146365356445312	-0.21009119567871093	3.4942626953125	-4.444122314453125	-2.05230712890625	
32	0.128	0.0	0.0	0.0	0.0	4.587	4.632	4.635	4.593	9.8694977935791	0.5099649536132812	0.07302315063476562	2.44903564453125	-3.65447998046875	-0.888824462890625	9.785700735473633	0.354341845703125	0.1849520782470703	0.213623046875	-5.023956298828125	-3.0059814453125	10.016142645263672	-0.011372457885742187	-0.2166752502441406	3.765106201171875	-4.634857177734375	-2.2125244140625	
33	0.132	0.0	0.0	0.0	0.0	4.593	4.635	4.626	4.593	9.868899243164062	0.5153519073486328	0.06823474731445311	2.529144287109375	-3.635406494140625	-0.850677490234375	9.784503634643555	0.354940396118164	0.18076222534179687	0.347137451171875	-4.89044189453125	-2.72369384765625	10.012551342773437	-0.02154781494140625	-0.21128829650878905	3.753662109375	-4.802703857421875	-2.048492431640625	
34	0.136	0.0	0.0	0.0	0.0	4.593	4.638	4.635	4.569	9.868899243164062	0.5189432098388671	0.07781155395507812	2.635955810546875	-3.437042236328125	-0.67901611328125	9.776722479248047	0.35314474487304687	0.17776947326660156	0.278472900390625	-4.985809326171875	-2.735137939453125	10.00955859069824	-0.02154781494140625	-0.2166752502441406	3.520965576171875	-4.383087158203125	-1.86920166015625	
35	0.14	0.0	0.0	0.0	0.0	4.599	4.635	4.635	4.5600000000000005	9.85752678527832	0.51714755859375	0.05686228942871093	2.552032470703125	-3.59344482421875	-0.858306884765625	9.778518130493163	0.36152445068359373	0.18076222534179687	0.30517578125	-4.932403564453125	-2.834320068359375	10.01015714111328	-0.017956512451171875	-0.2262520568847656	3.604888916015625	-4.756927490234375	-2.033233642578125	
36	0.14400000000000002	0.0	0.0	0.0	0.0	4.593	4.6290000000000004	4.635	4.575	9.86291373901367	0.5189432098388671	0.06284779357910156	2.681732177734375	-3.627777099609375	-0.69427490234375	9.783306533813477	0.3603273498535156	0.17118541870117188	0.209808349609375	-4.673004150390625	-2.8228759765625	10.01015714111328	-0.006584054565429687	-0.24779987182617186	3.59344482421875	-4.535675048828125	-2.025604248046875	
37	0.148	0.0	0.0	0.0	0.0	4.593	4.635	4.638	4.581	9.853336932373047	0.5321113189697265	0.05386953735351562	2.64739990234375	-3.810882568359375	-0.896453857421875	9.781510882568359	0.3573345977783203	0.15981296081542967	0.274658203125	-4.657745361328125	-3.021240234375	10.008960040283203	-0.012569558715820313	-0.24001871643066405	3.41796875	-4.60052490234375	-2.13623046875	
38	0.152	0.0	0.0	0.0	0.0	4.596	4.635	4.638	4.587	9.861716638183593	0.5321113189697265	0.04129997863769531	2.696990966796875	-3.856658935546875	-0.732421875	9.777321029663085	0.36631285400390623	0.1514332550048828	0.46539306640625	-4.974365234375	-2.87628173828125	10.008960040283203	0.002992752075195312	-0.2609679809570312	3.7841796875	-4.528045654296875	-2.18963623046875	
39	0.156	0.0	0.0	0.0	0.0	4.581	4.635	4.632	4.596	9.85692823486328	0.5422866760253906	0.033518823242187495	2.62451171875	-3.757476806640625	-0.728607177734375	9.78031378173828	0.3800795135498047	0.15023615417480468	0.19073486328125	-4.69207763671875	-2.613067626953125	10.016142645263672	0.010773907470703125	-0.2645592834472656	3.543853759765625	-4.57763671875	-2.033233642578125	
40	0.16	0.0	0.0	0.0	0.0	4.596	4.632	4.635	4.581	9.859322436523437	0.5434837768554687	0.027533319091796873	2.483367919921875	-3.60107421875	-0.804901123046875	9.781510882568359	0.3920505218505859	0.1406593475341797	0.3814697265625	-4.848480224609375	-2.95257568359375	10.008960040283203	0.013168109130859374	-0.2699462371826172	3.448486328125	-4.459381103515625	-1.941680908203125	
41	0.164	0.0	0.0	0.0	0.0	4.593	4.635	4.635	4.566	9.859322436523437	0.5632359405517577	0.02454056701660156	2.38800048828125	-3.551483154296875	-0.782012939453125	9.779715231323241	0.3968389251708984	0.14245499877929688	0.522613525390625	-4.8675537109375	-2.92205810546875	10.006565838623047	0.020949264526367185	-0.2651578338623047	3.6163330078125	-4.45556640625	-2.18963623046875	
42	0.168	0.0	0.0	0.0	0.0	4.596	4.632	4.635	4.563	9.86351228942871	0.5692214447021484	0.02633621826171875	2.60162353515625	-3.7689208984375	-0.629425048828125	9.78031378173828	0.4082113830566406	0.13946224670410157	0.396728515625	-4.878997802734375	-2.841949462890625	10.005368737792969	0.03411737365722656	-0.2657563842773437	3.528594970703125	-4.7149658203125	-2.056121826171875	
43	0.17200000000000001	0.0	0.0	0.0	0.0	4.593	4.626	4.635	4.5840000000000005	9.858125335693359	0.575206948852539	0.03232172241210937	2.75421142578125	-3.803253173828125	-0.823974609375	9.782707983398437	0.4064157318115234	0.13587094421386717	0.18310546875	-4.795074462890625	-2.7313232421875	10.015544094848632	0.037110125732421874	-0.2759317413330078	3.498077392578125	-4.8675537109375	-2.056121826171875	
44	0.176	0.0	0.0	0.0	0.0	4.593	4.635	4.638	4.587	9.86291373901367	0.5710170959472656	0.03172317199707031	2.460479736328125	-3.620147705078125	-0.732421875	9.785102185058593	0.4064157318115234	0.13946224670410157	0.186920166015625	-4.817962646484375	-2.7923583984375	10.015544094848632	0.0430956298828125	-0.26336218261718747	3.704071044921875	-4.608154296875	-2.002716064453125	
45	0.18	0.0	0.0	0.0	0.0	4.596	4.635	4.635	4.587	9.854534033203125	0.5776011505126952	0.016759411621093748	2.490997314453125	-3.391265869140625	-0.675201416015625	9.781510882568359	0.42377369384765623	0.1388636962890625	0.247955322265625	-4.856109619140625	-2.66265869140625	10.005368737792969	0.04249707946777344	-0.25139117431640623	3.627777099609375	-4.550933837890625	-2.44140625	
46	0.184	0.0	0.0	0.0	0.0	4.5840000000000005	4.632	4.6290000000000004	4.593	9.860519537353515	0.5823895538330078	0.028730419921875	2.788543701171875	-3.41033935546875	-0.9307861328125	9.781510882568359	0.4261678955078125	0.14245499877929688	0.5035400390625	-5.092620849609375	-2.96783447265625	10.005967288208007	0.052073886108398436	-0.2555810272216797	3.589630126953125	-4.85992431640625	-2.197265625	
47	0.188	0.0	0.0	0.0	0.0	4.593	4.635	4.635	4.578	9.86411083984375	0.5835866546630859	0.017357962036132813	2.658843994140625	-3.597259521484375	-1.018524169921875	9.785102185058593	0.4267664459228515	0.13946224670410157	0.553131103515625	-4.6844482421875	-2.765655517578125	10.000580334472655	0.06464344482421874	-0.24600422058105467	3.70025634765625	-4.44793701171875	-2.285003662109375	
48	0.192	0.0	0.0	0.0	0.0	4.593	4.638	4.635	4.563	9.8694977935791	0.5979518646240234	0.040701428222656245	2.6702880859375	-3.63922119140625	-0.8392333984375	9.78629928588867	0.4273649963378906	0.14185644836425781	0.400543212890625	-4.8828125	-2.78472900390625	10.003573086547851	0.0652419952392578	-0.23822306518554687	3.429412841796875	-4.63104248046875	-2.086639404296875	
49	0.196	0.0	0.0	0.0	0.0	4.599	4.632	4.635	4.569	9.855731134033203	0.5728127471923827	0.04848258361816406	2.368927001953125	-3.482818603515625	-0.843048095703125	9.779715231323241	0.4010287780761719	0.17118541870117188	0.34332275390625	-4.913330078125	-2.819061279296875	9.997587582397461	0.040701428222656245	-0.24361001892089842	3.79180908203125	-4.505157470703125	-2.05230712890625	
50	0.2	0.0	0.0	0.0	0.0	4.596	4.626	4.635	4.5840000000000005	9.867103591918944	0.5961562133789062	0.01975216369628906	2.292633056640625	-3.4332275390625	-1.018524169921875	9.80066449584961	0.44891281127929683	0.12150573425292968	0.415802001953125	-4.791259765625	-2.712249755859375	10.040084661865233	0.09038111267089843	-0.28311434631347654	3.757476806640625	-4.425048828125	-2.376556396484375	
51	0.20400000000000001	0.0	0.0	0.0	0.0	4.59	4.635	4.638	4.587	9.852139831542969	0.5943605621337891	0.07302315063476562	2.5634765625	-3.875732421875	-0.698089599609375	9.785102185058593	0.41419688720703124	0.17657237243652343	0.049591064453125	-4.680633544921875	-2.872467041015625	10.002974536132811	0.12389993591308593	-0.23882161560058593	3.82232666015625	-4.703521728515625	-2.13623046875	
52	0.20800000000000002	0.0	0.0	0.0	0.0	4.587	4.635	4.632	4.587	9.873687646484374	0.5374982727050781	0.025139117431640625	2.208709716796875	-3.330230712890625	-0.8392333984375	9.809044201660155	0.3651157531738281	0.12389993591308593	0.209808349609375	-4.913330078125	-3.025054931640625	10.025719451904296	-0.013766659545898436	-0.2932897033691406	3.662109375	-4.734039306640625	-2.498626708984375	
53	0.212	0.0	0.0	0.0	0.0	4.581	4.635	4.626	4.593	9.859322436523437	0.6619967590332031	0.03411737365722656	2.735137939453125	-3.726959228515625	-0.865936279296875	9.777919580078125	0.5363011718749999	0.16998831787109375	0.316619873046875	-5.077362060546875	-2.857208251953125	10.04906291809082	0.19871873779296872	-0.26336218261718747	3.7994384765625	-4.7760009765625	-2.117156982421875	
54	0.216	0.0	0.0	0.0	0.0	4.593	4.635	4.638	4.575	9.854534033203125	0.5488707305908203	0.047285482788085934	2.3040771484375	-3.253936767578125	-0.942230224609375	9.807847100830077	0.3758896606445312	0.10235212097167969	0.49591064453125	-4.924774169921875	-2.628326416015625	10.035894808959961	0.011971008300781249	-0.29568390502929687	3.59344482421875	-4.69970703125	-1.995086669921875	
55	0.22	0.0	0.0	0.0	0.0	4.596	4.635	4.635	4.563	9.85692823486328	0.6452373474121094	0.02693476867675781	2.460479736328125	-3.276824951171875	-0.762939453125	9.764152920532226	0.4483142608642578	0.18614917907714842	0.484466552734375	-4.726409912109375	-2.895355224609375	10.039486111450195	0.12449848632812499	-0.2537853759765625	3.643035888671875	-4.52423095703125	-2.132415771484375	
56	0.224	0.0	0.0	0.0	0.0	4.596	4.632	4.632	4.572	9.872490545654296	0.5530605834960938	0.023343466186523436	2.32696533203125	-3.276824951171875	-0.78582763671875	9.83777462158203	0.3495534423828125	0.13407529296874998	0.1068115234375	-4.924774169921875	-2.979278564453125	10.073004934692381	-0.006584054565429687	-0.33698388366699217	3.604888916015625	-4.5166015625	-2.105712890625	
57	0.228	0.0	0.0	0.0	0.0	4.593	4.626	4.635	4.581	9.868899243164062	0.6937199310302734	0.020350714111328123	2.552032470703125	-3.757476806640625	-0.926971435546875	9.762955819702148	0.5201403106689453	0.21009119567871093	0.22125244140625	-4.665374755859375	-2.574920654296875	10.038887561035155	0.19871873779296872	-0.2501940734863281	3.5552978515625	-4.53948974609375	-1.708984375	
58	0.232	0.0	0.0	0.0	0.0	4.59	4.635	4.638	4.587	9.88386300354004	0.546476528930664	0.04908113403320312	2.712249755859375	-3.475189208984375	-0.55694580078125	9.822810861206055	0.2507926239013672	0.1580173095703125	0.213623046875	-5.001068115234375	-2.6397705078125	10.05564697265625	-0.09816226806640624	-0.32920272827148434	3.597259521484375	-4.50897216796875	-2.11334228515625	
59	0.23600000000000002	0.0	0.0	0.0	0.0	4.5840000000000005	4.632	4.635	4.593	9.88386300354004	0.6733692169189452	0.011971008300781249	2.399444580078125	-3.2806396484375	-1.087188720703125	9.777321029663085	0.5662286926269531	0.14903905334472656	0.492095947265625	-4.60052490234375	-2.95257568359375	9.991003527832031	0.17298106994628906	-0.21248539733886718	3.429412841796875	-4.57000732421875	-2.044677734375	
60	0.24	0.0	0.0	0.0	0.0	4.575	4.632	4.6290000000000004	4.596	9.894038360595703	0.575206948852539	0.04189852905273437	3.040313720703125	-3.875732421875	-1.01470947265625	9.837176071166992	0.26695348510742184	0.14724340209960937	0.286102294921875	-4.94384765625	-2.857208251953125	10.047865817260742	-0.07302315063476562	-0.3489548919677734	3.5400390625	-4.5623779296875	-2.03704833984375	
61	0.244	0.0	0.0	0.0	0.0	4.596	4.638	4.635	4.572	9.871293444824218	0.6685808135986328	-0.003591302490234375	2.99072265625	-3.5858154296875	-0.823974609375	9.756970315551758	0.5476736297607422	0.1640028137207031	0.064849853515625	-4.70733642578125	-2.9144287109375	9.947907897949218	0.15741875915527342	-0.1867477294921875	3.54766845703125	-4.5928955078125	-2.3193359375	
62	0.248	0.0	0.0	0.0	0.0	4.599	4.635	4.635	4.5600000000000005	9.889249957275391	0.5422866760253906	0.04908113403320312	2.994537353515625	-3.841400146484375	-0.713348388671875	9.763554370117188	0.3896563201904297	0.13108254089355467	0.446319580078125	-5.1727294921875	-2.643585205078125	9.955689053344726	-0.022744915771484374	-0.1592144104003906	3.51715087890625	-4.69207763671875	-2.025604248046875	
63	0.252	0.0	0.0	0.0	0.0	4.596	4.632	4.635	4.575	9.83238766784668	0.5991489654541016	0.11073182678222655	3.0059814453125	-3.85284423828125	-0.96893310546875	9.778518130493163	0.5476736297607422	0.15442600708007811	0.690460205078125	-4.985809326171875	-2.918243408203125	9.962273107910155	0.17238251953125	-0.19033903198242186	3.66973876953125	-4.741668701171875	-2.22015380859375	
64	0.256	0.0	0.0	0.0	0.0	4.596	4.635	4.635	4.587	9.889848507690429	0.5518634826660156	0.03591302490234375	2.864837646484375	-3.772735595703125	-0.736236572265625	9.745597857666015	0.3794809631347656	0.13287819213867186	0.400543212890625	-4.947662353515625	-2.704620361328125	9.92755718383789	-0.029927520751953124	-0.15263035583496093	3.444671630859375	-4.596710205078125	-1.953125	
65	0.26	0.0	0.0	0.0	0.0	4.593	4.635	4.635	4.59	9.828197814941406	0.5817910034179687	0.11911153259277343	2.811431884765625	-3.536224365234375	-0.858306884765625	9.779116680908203	0.5488707305908203	0.18435352783203124	0.461578369140625	-4.856109619140625	-3.1280517578125	9.919177478027343	0.025139117431640625	-0.15263035583496093	3.528594970703125	-4.520416259765625	-2.2125244140625	
66	0.264	0.0	0.0	0.0	0.0	4.5840000000000005	4.635	4.632	4.593	9.886257205200195	0.4800374328613281	-0.017357962036132813	2.105712890625	-3.688812255859375	-0.84686279296875	9.76116016845703	0.3459621398925781	0.12988544006347655	0.54168701171875	-5.0201416015625	-2.7313232421875	9.929352835083007	-0.054468087768554684	-0.16160861206054686	3.673553466796875	-4.505157470703125	-1.873016357421875	
67	0.268	0.0	0.0	0.0	0.0	4.593	4.632	4.626	4.5840000000000005	9.82520506286621	0.5668272430419922	0.12509703674316405	3.116607666015625	-4.169464111328125	-0.896453857421875	9.74799205932617	0.49320554199218747	0.23882161560058593	0.4119873046875	-4.619598388671875	-3.22723388671875	9.923965881347655	0.012569558715820313	-0.1771709228515625	3.681182861328125	-4.512786865234375	-2.414703369140625	
68	0.272	0.0	0.0	0.0	0.0	4.593	4.635	4.635	4.563	9.906009368896484	0.48183308410644526	0.005985504150390624	2.239227294921875	-3.80706787109375	-0.74005126953125	9.737218151855469	0.36571430358886714	0.12808978881835936	0.274658203125	-5.001068115234375	-2.582550048828125	9.918578927612304	-0.028131869506835935	-0.1562216583251953	3.742218017578125	-4.512786865234375	-1.804351806640625	
69	0.276	0.0	0.0	0.0	0.0	4.596	4.632	4.632	4.563	9.840168823242188	0.5195417602539062	0.11073182678222655	3.261566162109375	-4.047393798828125	-0.81634521484375	9.75517466430664	0.4914098907470703	0.23582886352539062	0.324249267578125	-4.8065185546875	-3.42559814453125	9.923965881347655	-0.008379705810546874	-0.17776947326660156	3.753662109375	-4.558563232421875	-2.38037109375	
70	0.28	0.0	0.0	0.0	0.0	4.593	4.6290000000000004	4.635	4.5840000000000005	9.89523546142578	0.4435258575439453	-0.006584054565429687	2.269744873046875	-3.23486328125	-0.80108642578125	9.771934075927733	0.4955997436523437	0.181959326171875	-0.213623046875	-4.917144775390625	-2.63214111328125	9.973047015380859	0.10893617553710937	-0.10115502014160156	3.82232666015625	-4.894256591796875	-1.9378662109375	
71	0.28400000000000003	0.0	0.0	0.0	0.0	4.593	4.635	4.638	4.59	9.874884747314452	0.40581718139648437	0.004189852905273437	2.8839111328125	-3.726959228515625	-1.03759765625	9.724050042724608	0.5494692810058593	0.2424129180908203	0.507354736328125	-5.096435546875	-3.276824951171875	9.897031112670899	0.029328970336914062	-0.17597382202148437	3.79180908203125	-4.57000732421875	-2.552032470703125	
72	0.28800000000000003	0.0	0.0	0.0	0.0	4.596	4.635	4.635	4.587	9.888651406860351	0.45070846252441404	0.012569558715820313	1.873016357421875	-3.284454345703125	-0.69427490234375	9.770736975097655	0.5015852478027344	0.17357962036132812	-0.087738037109375	-4.974365234375	-2.719879150390625	9.968258612060547	0.11372457885742186	-0.09816226806640624	3.7384033203125	-4.665374755859375	-1.97601318359375	
73	0.292	0.0	0.0	0.0	0.0	4.5840000000000005	4.635	4.632	4.596	9.861118087768554	0.4082113830566406	0.011372457885742187	2.9449462890625	-3.780364990234375	-0.888824462890625	9.880870251464843	0.239420166015625	0.08259995727539061	0.2899169921875	-4.40216064453125	-3.05938720703125	10.164583148193358	-0.2567781280517578	-0.40402153015136716	3.757476806640625	-4.45556640625	-2.34222412109375	
74	0.296	0.0	0.0	0.0	0.0	4.596	4.635	4.635	4.581	9.886855755615233	0.4387374542236328	0.010773907470703125	3.086090087890625	-3.71551513671875	-0.659942626953125	9.755773214721678	0.5548562347412109	0.17238251953125	0.095367431640625	-5.008697509765625	-2.9449462890625	9.968857162475585	0.14903905334472656	-0.09696516723632811	3.505706787109375	-4.505157470703125	-1.903533935546875	
75	0.3	0.0	0.0	0.0	0.0	4.593	4.635	4.638	4.566	9.849745629882811	0.4423287567138672	0.0017956512451171875	3.2806396484375	-3.772735595703125	-0.926971435546875	9.861118087768554	0.25797522888183594	0.09157821350097656	0.3204345703125	-4.695892333984375	-3.231048583984375	10.148422286987303	-0.2280477081298828	-0.4165910888671875	3.68499755859375	-4.57000732421875	-2.35748291015625	
76	0.304	0.0	0.0	0.0	0.0	4.602	4.632	4.635	4.566	9.750386260986328	0.833182177734375	0.2920926025390625	3.078460693359375	-3.8604736328125	-0.774383544921875	9.740809454345703	0.41359833679199215	0.3393780853271484	0.12969970703125	-5.08880615234375	-2.3345947265625	10.087968695068358	0.2262520568847656	-0.2615665313720703	3.4637451171875	-4.573822021484375	-2.08282470703125	
77	0.308	0.0	0.0	0.0	0.0	4.587	4.6290000000000004	4.635	4.5840000000000005	9.880271701049804	0.4495113616943359	-0.008978256225585938	3.47137451171875	-4.14276123046875	-0.93841552734375	9.878476049804688	0.2519897247314453	0.08379705810546874	0.385284423828125	-4.695892333984375	-3.070831298828125	10.178948358154296	-0.2645592834472656	-0.4429273071289062	3.6163330078125	-4.535675048828125	-2.307891845703125	
78	0.312	0.0	0.0	0.0	0.0	4.59	4.635	4.638	4.587	9.715670336914062	0.8936357696533203	0.3058592620849609	3.173828125	-3.86810302734375	-0.797271728515625	9.73602105102539	0.4267664459228515	0.3459621398925781	-0.293731689453125	-5.0506591796875	-2.31170654296875	10.091559997558592	0.24361001892089842	-0.28431144714355466	3.711700439453125	-4.795074462890625	-2.0294189453125	
79	0.316	0.0	0.0	0.0	0.0	4.59	4.635	4.635	4.593	9.907206469726562	0.4369418029785156	0.040102877807617184	0.9307861328125	-2.61688232421875	-0.93841552734375	9.906009368896484	-0.09457096557617187	-0.017357962036132813	0.179290771484375	-4.703521728515625	-2.78472900390625	10.194510668945313	-0.26396073303222656	-0.46686932373046874	3.5400390625	-4.726409912109375	-1.941680908203125	
80	0.32	0.0	0.0	0.0	0.0	4.581	4.635	4.6290000000000004	4.596	9.721655841064452	0.9175777862548827	0.28012159423828126	3.35693359375	-4.047393798828125	-0.84686279296875	9.765350021362304	0.43035774841308594	0.3345896820068359	0.30517578125	-5.260467529296875	-2.346038818359375	10.117297665405273	0.2645592834472656	-0.30466216125488277	3.528594970703125	-4.627227783203125	-2.105712890625	
81	0.324	0.0	0.0	0.0	0.0	4.596	4.635	4.638	4.575	9.891644158935547	0.3890577697753906	0.034715924072265626	0.789642333984375	-2.63214111328125	-0.84686279296875	9.928754284667969	-0.1514332550048828	-0.03232172241210937	0.06866455078125	-4.791259765625	-2.62451171875	10.113706362915039	-0.2316390106201172	-0.4273649963378906	3.6468505859375	-4.7760009765625	-1.800537109375	
82	0.328	0.0	0.0	0.0	0.0	4.593	4.635	4.635	4.563	9.688137017822266	0.9445125549316405	0.2950853546142578	3.16619873046875	-3.971099853515625	-0.980377197265625	9.724648593139648	0.603338818359375	0.15322890625	0.827789306640625	-4.917144775390625	-2.8839111328125	10.096348400878906	0.3172317199707031	-0.3172317199707031	3.559112548828125	-4.53948974609375	-1.89971923828125	
83	0.332	0.0	0.0	0.0	0.0	4.596	4.632	4.632	4.566	9.916783276367187	0.35015199279785153	0.028730419921875	0.61798095703125	-2.376556396484375	-0.820159912109375	9.941922393798828	-0.16639701538085935	-0.07422025146484375	0.213623046875	-5.0048828125	-2.38037109375	10.09993970336914	-0.20649989318847656	-0.4225765930175781	3.60107421875	-4.7454833984375	-1.949310302734375	
84	0.336	0.0	0.0	0.0	0.0	4.596	4.626	4.635	4.5840000000000005	9.890447058105469	0.5626373901367188	-0.06643909606933593	1.071929931640625	-2.880096435546875	-1.064300537109375	9.718064538574218	0.603338818359375	0.15203180541992187	0.675201416015625	-5.1727294921875	-2.979278564453125	9.885658654785155	0.2885013000488281	-0.15382745666503905	3.986358642578125	-4.8828125	-2.3193359375	
85	0.34	0.0	0.0	0.0	0.0	4.593	4.635	4.638	4.59	9.91438907470703	0.28311434631347654	0.04249707946777344	0.225067138671875	-2.1514892578125	-0.64849853515625	9.95389340209961	-0.21787235107421873	-0.06284779357910156	0.087738037109375	-4.985809326171875	-2.773284912109375	10.08677159423828	-0.2262520568847656	-0.4070142822265625	3.711700439453125	-4.7760009765625	-2.155303955078125	
86	0.34400000000000003	0.0	0.0	0.0	0.0	4.59	4.635	4.635	4.59	9.885658654785155	0.5434837768554687	-0.02154781494140625	0.81634521484375	-2.38800048828125	-0.99945068359375	9.726444244384766	0.6356605407714844	0.16160861206054686	0.087738037109375	-4.779815673828125	-3.204345703125	9.87668039855957	0.3184288208007812	-0.1466448516845703	3.574371337890625	-4.596710205078125	-2.285003662109375	
87	0.34800000000000003	0.0	0.0	0.0	0.0	4.581	4.635	4.6290000000000004	4.593	9.900622415161132	0.25438392639160157	0.05087678527832031	2.02178955078125	-3.4637451171875	-0.438690185546875	9.776722479248047	0.29089550170898437	0.09935936889648436	0.43487548828125	-4.924774169921875	-2.780914306640625	9.917381826782226	0.015562310791015624	-0.13946224670410157	3.833770751953125	-4.695892333984375	-1.83868408203125	
88	0.352	0.0	0.0	0.0	0.0	4.593	4.638	4.635	4.575	9.866505041503906	0.5333084197998047	0.018555062866210937	0.8697509765625	-2.38037109375	-1.041412353515625	9.701903677368163	0.612915625	0.16699556579589842	0.720977783203125	-4.6844482421875	-2.742767333984375	9.87069489440918	0.30406361083984373	-0.13287819213867186	3.650665283203125	-4.383087158203125	-2.38037109375	
89	0.356	0.0	0.0	0.0	0.0	4.596	4.635	4.635	4.563	9.878476049804688	0.7188590484619141	-0.05746083984375	2.147674560546875	-3.84521484375	-0.6561279296875	9.783905084228515	0.25258827514648435	0.09277531433105468	0.42724609375	-4.711151123046875	-2.712249755859375	9.919177478027343	-0.030526071166992186	-0.13108254089355467	3.59344482421875	-4.673004150390625	-1.953125	
90	0.36	0.0	0.0	0.0	0.0	4.59	4.632	4.635	4.575	9.85692823486328	0.5829881042480468	0.04189852905273437	0.804901123046875	-2.471923828125	-0.789642333984375	9.619902270507811	0.842758984375	0.296881005859375	0.400543212890625	-4.730224609375	-3.925323486328125	9.874884747314452	0.3393780853271484	-0.11133037719726561	3.803253173828125	-4.261016845703125	-2.685546875	
91	0.364	0.0	0.0	0.0	0.0	4.596	4.635	4.638	4.5840000000000005	9.903016616821288	0.7787140899658203	-0.0796072052001953	2.666473388671875	-3.63922119140625	-0.644683837890625	9.791087689208984	0.21308394775390624	0.12030863342285156	0.232696533203125	-5.035400390625	-2.735137939453125	9.919177478027343	-0.037708676147460936	-0.10175357055664062	3.719329833984375	-4.67681884765625	-1.865386962890625	
92	0.368	0.0	0.0	0.0	0.0	4.593	4.635	4.638	4.587	9.979631069946288	0.6530185028076172	-0.03232172241210937	5.748748779296875	-5.4168701171875	-1.13677978515625	9.60852981262207	0.8415618835449218	0.3082534637451172	0.591278076171875	-4.528045654296875	-3.86810302734375	9.86291373901367	-0.04908113403320312	-0.17118541870117188	3.66973876953125	-4.37164306640625	-2.7313232421875	
93	0.372	0.0	0.0	0.0	0.0	4.578	4.635	4.632	4.593	9.913790524291992	0.8295908752441405	-0.08918401184082031	3.032684326171875	-3.83758544921875	-0.835418701171875	9.740809454345703	0.7140706451416016	0.1753752716064453	0.02288818359375	-4.93621826171875	-2.3956298828125	9.91498762512207	-0.03890577697753906	-0.10414777221679687	3.60870361328125	-4.6539306640625	-1.888275146484375	
94	0.376	0.0	0.0	0.0	0.0	4.593	4.635	4.6290000000000004	4.581	9.99160207824707	0.6919242797851562	-0.04249707946777344	6.015777587890625	-5.420684814453125	-1.01470947265625	9.618705169677733	0.8487444885253905	0.31962592163085934	0.499725341796875	-4.94384765625	-3.772735595703125	9.865906491088866	-0.040701428222656245	-0.1592144104003906	3.83758544921875	-4.28009033203125	-2.6397705078125	
95	0.38	0.0	0.0	0.0	0.0	4.593	4.638	4.635	4.572	9.923965881347655	0.9062053283691406	-0.0939724151611328	3.246307373046875	-4.3487548828125	-0.70953369140625	9.732429748535155	0.7074865905761718	0.18734627990722655	0.35858154296875	-4.93621826171875	-2.468109130859375	9.923965881347655	0.27952304382324217	-0.04608838195800781	3.631591796875	-4.695892333984375	-1.7547607421875	
96	0.384	0.0	0.0	0.0	0.0	4.599	4.635	4.635	4.563	9.97903251953125	0.6907271789550781	-0.037708676147460936	6.320953369140625	-5.718231201171875	-1.132965087890625	9.871293444824218	0.29448680419921874	0.08020575561523437	0.2899169921875	-4.69207763671875	-3.18145751953125	9.855132583618163	-0.07122749938964844	-0.15322890625	3.80706787109375	-4.451751708984375	-2.674102783203125	
97	0.388	0.0	0.0	0.0	0.0	4.593	4.6290000000000004	4.635	4.587	9.913191973876952	0.6967126831054687	0.13347674255371092	4.787445068359375	-4.78363037109375	-0.64849853515625	9.730035546875	0.6386532928466796	0.18136077575683593	0.347137451171875	-4.878997802734375	-2.40325927734375	9.925761532592773	0.21248539733886718	-0.054468087768554684	3.772735595703125	-4.764556884765625	-1.865386962890625	
98	0.392	0.0	0.0	0.0	0.0	4.596	4.635	4.638	4.587	9.97125136413574	0.6949170318603515	-0.008379705810546874	6.30950927734375	-5.828857421875	-0.9918212890625	9.867702142333984	0.32082302246093747	0.0909796630859375	0.18310546875	-4.985809326171875	-3.5247802734375	10.286687432861328	-0.3142389678955078	-0.6009446166992187	3.62396240234375	-4.45556640625	-2.391815185546875	
99	0.396	0.0	0.0	0.0	0.0	4.593	4.635	4.635	4.59	9.904213717651366	0.6763619689941406	0.15263035583496093	4.390716552734375	-4.756927490234375	-0.48828125	9.802460147094726	0.5386953735351562	0.24959552307128904	-0.125885009765625	-4.78363037109375	-2.132415771484375	9.929951385498047	0.22744915771484372	-0.04967968444824218	3.635406494140625	-4.573822021484375	-1.67083740234375	
100	0.4	0.0	0.0	0.0	0.0	4.5840000000000005	4.632	4.632	4.596	9.95987890625	0.689530078125	-0.020949264526367185	1.96075439453125	-3.116607666015625	-1.1444091796875	9.867702142333984	0.3226186737060547	0.08858546142578125	0.118255615234375	-4.241943359375	-3.0670166015625	10.299855541992187	-0.2855085479736328	-0.5853823059082031	3.7841796875	-4.665374755859375	-2.23541259765625	
101	0.404	0.0	0.0	0.0	0.0	4.596	4.635	4.638	4.5840000000000005	9.888052856445311	0.6440402465820312	0.14484920043945312	4.116058349609375	-4.5928955078125	-0.60272216796875	9.815029705810547	0.5207388610839844	0.2651578338623047	0.202178955078125	-5.2032470703125	-2.197265625	9.912593423461914	0.21906945190429686	-0.03950432739257812	3.5552978515625	-4.6234130859375	-1.773834228515625	
102	0.40800000000000003	0.0	0.0	0.0	0.0	4.596	4.638	4.635	4.569	9.900023864746093	0.09696516723632811	-0.034715924072265626	1.605987548828125	-3.02886962890625	-0.888824462890625	9.982025271606444	-0.22505495605468748	-0.07721300354003906	0.453948974609375	-5.0811767578125	-3.0517578125	10.306439596557617	-0.29568390502929687	-0.603338818359375	3.71551513671875	-4.398345947265625	-2.1820068359375	
103	0.41200000000000003	0.0	0.0	0.0	0.0	4.596	4.632	4.635	4.569	9.87608184814453	0.6841431243896484	0.15442600708007811	4.116058349609375	-4.497528076171875	-0.67901611328125	9.816226806640625	0.5799953521728515	0.229843359375	-0.2288818359375	-5.039215087890625	-2.109527587890625	10.110115060424803	0.5446808776855468	-0.2567781280517578	3.60870361328125	-4.52423095703125	-2.063751220703125	
104	0.41600000000000004	0.0	0.0	0.0	0.0	4.596	4.626	4.635	4.5840000000000005	9.91438907470703	0.07900865478515624	-0.061650692749023434	1.049041748046875	-2.84576416015625	-0.881195068359375	9.983820922851562	-0.18435352783203124	-0.07481880187988281	0.453948974609375	-4.955291748046875	-2.780914306640625	10.280103378295898	-0.2723404388427734	-0.5692214447021484	3.7841796875	-4.70733642578125	-2.346038818359375	
105	0.42	0.0	0.0	0.0	0.0	4.593	4.635	4.638	4.587	9.682151513671874	0.5740098480224609	0.2154781494140625	0.701904296875	-2.468109130859375	-0.84686279296875	9.815029705810547	0.5686228942871093	0.18914193115234373	0.52642822265625	-4.993438720703125	-2.899169921875	10.08737014465332	0.5009866973876953	-0.24001871643066405	3.856658935546875	-4.863739013671875	-2.17437744140625	
106	0.424	0.0	0.0	0.0	0.0	4.593	4.635	4.635	4.587	9.936535440063476	0.0652419952392578	-0.08020575561523437	0.90789794921875	-2.773284912109375	-0.904083251953125	9.990404977416992	-0.1484405029296875	-0.0987608184814453	0.22125244140625	-4.741668701171875	-2.735137939453125	10.10053825378418	-0.4034229797363281	-0.26815058593749996	3.498077392578125	-4.764556884765625	-1.949310302734375	
107	0.428	0.0	0.0	0.0	0.0	4.5840000000000005	4.635	4.632	4.596	9.704896429443359	0.5668272430419922	0.18914193115234373	0.698089599609375	-2.4566650390625	-1.09100341796875	9.630077627563477	0.74699091796875	0.3315969299316406	0.675201416015625	-4.99725341796875	-2.8228759765625	10.089165795898436	0.44053310546874996	-0.2442085693359375	3.681182861328125	-4.69970703125	-2.23541259765625	
108	0.432	0.0	0.0	0.0	0.0	4.596	4.635	4.638	4.578	9.949703549194336	0.054468087768554684	-0.11851298217773437	0.965118408203125	-2.73895263671875	-1.0223388671875	9.99160207824707	-0.10414777221679687	-0.08858546142578125	0.049591064453125	-4.95147705078125	-2.69317626953125	10.114304913330077	-0.4584896179199218	-0.3327940307617187	3.62396240234375	-4.894256591796875	-2.017974853515625	
109	0.436	0.0	0.0	0.0	0.0	4.596	4.638	4.638	4.563	9.700108026123047	0.5811924530029297	0.2166752502441406	0.74005126953125	-2.7313232421875	-0.881195068359375	9.627084875488281	0.7787140899658203	0.31064766540527344	0.31280517578125	-4.779815673828125	-2.84576416015625	9.866505041503906	0.2747346405029297	-0.07601590270996093	3.448486328125	-4.4708251953125	-2.2735595703125	
110	0.44	0.0	0.0	0.0	0.0	4.596	4.632	4.635	4.569	9.832986218261718	0.38845921936035155	0.15083470458984374	-0.0152587890625	-2.323150634765625	-0.3662109375	9.807847100830077	-0.033518823242187495	0.10354922180175781	0.2593994140625	-4.848480224609375	-2.685546875	10.103531005859374	-0.5404910247802734	-0.33698388366699217	3.536224365234375	-4.665374755859375	-1.76239013671875	
111	0.444	0.0	0.0	0.0	0.0	4.596	4.626	4.635	4.581	9.720458740234374	0.5428852264404297	0.1945288848876953	0.67138671875	-2.407073974609375	-1.07574462890625	9.626486325073241	0.690128628540039	0.34835634155273437	0.5340576171875	-4.98199462890625	-2.7313232421875	9.848548529052733	0.21188684692382811	-0.007781155395507812	3.6163330078125	-4.669189453125	-2.32696533203125	
112	0.448	0.0	0.0	0.0	0.0	4.59	4.635	4.638	4.587	9.824007962036132	0.517746109008789	0.15682020874023436	0.545501708984375	-2.323150634765625	-0.766754150390625	9.795876092529296	0.007781155395507812	0.1514332550048828	0.2899169921875	-5.0811767578125	-2.73895263671875	10.120290417480469	-0.430956298828125	-0.3082534637451172	3.662109375	-4.87518310546875	-1.71661376953125	
113	0.452	0.0	0.0	0.0	0.0	4.593	4.635	4.635	4.59	9.741408004760741	0.6015431671142578	0.17417817077636719	3.360748291015625	-3.89862060546875	-1.148223876953125	9.688137017822266	0.6494272003173828	0.2454056701660156	0.659942626953125	-4.89044189453125	-3.692626953125	9.804854348754882	0.14903905334472656	0.025737667846679687	3.631591796875	-4.5928955078125	-2.43377685546875	
114	0.456	0.0	0.0	0.0	0.0	4.581	4.635	4.6290000000000004	4.596	9.821015209960937	0.546476528930664	0.16998831787109375	0.827789306640625	-2.399444580078125	-0.759124755859375	9.816825357055663	-0.05985504150390625	0.1388636962890625	0.274658203125	-5.126953125	-2.74658203125	9.975441217041014	-0.05626373901367187	-0.3094505645751953	3.559112548828125	-4.772186279296875	-1.86920166015625	
115	0.46	0.0	0.0	0.0	0.0	4.596	4.635	4.638	4.572	9.892841259765625	0.8200140686035156	-0.08499415893554688	3.45611572265625	-3.997802734375	-1.06048583984375	9.708487731933593	0.7511807708740234	0.24181436767578124	0.6103515625	-4.825592041015625	-3.551483154296875	9.83897172241211	0.2567781280517578	-0.04548983154296875	3.4332275390625	-4.497528076171875	-2.44140625	
116	0.464	0.0	0.0	0.0	0.0	4.596	4.638	4.635	4.563	9.815029705810547	0.6937199310302734	0.1592144104003906	1.705169677734375	-3.086090087890625	-1.361846923828125	9.751583361816406	0.46627077331542965	0.18614917907714842	-0.0152587890625	-5.24139404296875	-2.429962158203125	9.966462960815429	0.13467384338378904	-0.3220201232910156	3.62396240234375	-4.871368408203125	-1.86920166015625	
117	0.468	0.0	0.0	0.0	0.0	0.003	0.003	0.003	0.006	9.890447058105469	0.517746109008789	-0.05626373901367187	2.23541259765625	-3.0670166015625	-0.732421875	9.690531219482422	0.7900865478515624	0.25797522888183594	0.67901611328125	-4.749298095703125	-3.3111572265625	9.86411083984375	0.22864625854492185	-0.26755203552246093	3.72314453125	-4.35638427734375	-2.685546875	
118	0.47200000000000003	0.0	0.0	0.0	0.0	0.006	0.003	0.006	0.003	10.032303506469725	0.6482300994873047	-0.19153613281249998	4.016876220703125	-4.909515380859375	-0.55694580078125	9.7545761138916	0.38247371520996093	0.20470424194335937	0.0152587890625	-4.8675537109375	-2.353668212890625	9.988609326171874	-0.017357962036132813	-0.29568390502929687	3.604888916015625	-4.852294921875	-1.880645751953125	
119	0.47600000000000003	0.0	0.0	0.0	0.0	0.006	0.006	0.006	0.003	9.92755718383789	0.7990648040771484	-0.09337386474609374	3.39508056640625	-3.978729248046875	-0.84686279296875	9.83777462158203	0.3178302703857422	0.09816226806640624	0.171661376953125	-4.779815673828125	-3.810882568359375	9.871293444824218	-0.003591302490234375	-0.24121581726074218	3.604888916015625	-4.24957275390625	-2.960205078125	
120	0.48	0.0	0.0	0.0	0.0	0.003	0.006	0.003	0.003	10.037690460205077	0.709880792236328	-0.17836802368164062	5.481719970703125	-5.542755126953125	-0.95367431640625	9.734823950195311	0.5339069702148437	0.2059013427734375	0.0457763671875	-4.60052490234375	-2.54058837890625	9.898228213500976	0.2567781280517578	0.047884033203124995	3.79180908203125	-4.459381103515625	-2.0751953125	
121	0.484	0.0	0.0	0.0	0.0	0.003	0.003	0.006	0.003	9.898826763916015	0.7553706237792969	-0.03591302490234375	4.486083984375	-4.7454833984375	-1.071929931640625	9.804854348754882	0.5764040496826172	0.0987608184814453	0.0762939453125	-4.82177734375	-3.353118896484375	9.87009634399414	0.12210428466796874	-0.3016694091796875	3.528594970703125	-4.41741943359375	-1.956939697265625	
122	0.488	0.0	0.0	0.0	0.0	0.003	0.006	0.003	0.006	10.014945544433592	0.47704468078613277	-0.1466448516845703	4.791259765625	-5.237579345703125	-0.736236572265625	9.803058697509766	0.6027402679443359	0.09696516723632811	-0.041961669921875	-5.222320556640625	-1.888275146484375	9.919776028442381	-0.034715924072265626	0.017357962036132813	3.85284423828125	-4.573822021484375	-1.5716552734375	
123	0.492	0.0	0.0	0.0	0.0	0.006	0.003	0.003	0.006	9.93952819213867	0.6308721374511719	-0.12629413757324218	5.466461181640625	-5.2032470703125	-0.560760498046875	9.815029705810547	0.3848679168701172	0.12808978881835936	-0.034332275390625	-4.665374755859375	-3.582000732421875	9.956287603759765	-0.239420166015625	-0.5321113189697265	3.711700439453125	-4.2572021484375	-2.28118896484375	
124	0.496	0.0	0.0	0.0	0.0	0.009000000000000001	0.006	0.006	0.003	10.014945544433592	0.6560112548828124	-0.15382745666503905	4.787445068359375	-5.359649658203125	-0.885009765625	9.836577520751952	0.3058592620849609	0.08080430603027343	0.030517578125	-4.85992431640625	-2.32696533203125	9.93952819213867	0.18914193115234373	-0.03232172241210937	3.849029541015625	-4.825592041015625	-1.70135498046875	
125	0.5	0.0	0.0	0.0	0.0	0.009000000000000001	0.003	0.003	0.006	9.917381826782226	0.6147112762451171	-0.10594342346191406	5.916595458984375	-5.657196044921875	-0.83160400390625	9.928155734252929	0.35673604736328124	-0.11851298217773437	0.6561279296875	-5.046844482421875	-2.75421142578125	10.197503421020507	-0.26755203552246093	-0.4495113616943359	3.582000732421875	-4.45556640625	-2.38037109375	
126	0.504	0.0	0.0	0.0	0.0	0.006	0.006	0.003	0.006	9.986215124511718	0.5063736511230469	-0.12090718383789062	1.983642578125	-3.360748291015625	-0.7171630859375	9.801861596679688	0.011971008300781249	0.10295067138671875	-0.186920166015625	-4.718780517578125	-1.68609619140625	9.916783276367187	0.25258827514648435	-0.04967968444824218	3.520965576171875	-4.444122314453125	-1.80816650390625	
127	0.508	0.0	0.0	0.0	0.0	0.003	0.003	0.003	0.006	9.945513696289062	0.42796354675292964	-0.1370680450439453	4.37164306640625	-4.634857177734375	-0.5340576171875	9.922768780517577	0.526125814819336	-0.07481880187988281	0.865936279296875	-4.94384765625	-3.4942626953125	10.198101971435547	-0.2292448089599609	-0.35793314819335936	3.505706787109375	-4.4403076171875	-2.292633056640625	
128	0.512	0.0	0.0	0.0	0.0	0.006	0.003	0.006	0.003	9.611522564697266	0.5470750793457031	0.4578910675048828	2.452850341796875	-3.376007080078125	-0.530242919921875	9.80724855041504	0.07601590270996093	0.09516951599121093	0.518798828125	-4.78363037109375	-2.597808837890625	10.135852728271484	0.2501940734863281	-0.3441664886474609	3.48663330078125	-4.650115966796875	-2.040863037109375	
129	0.516	0.0	0.0	0.0	0.0	0.003	0.003	0.006	0.003	9.935936889648437	0.5811924530029297	-0.15502455749511718	4.2572021484375	-4.8675537109375	-0.83160400390625	9.874884747314452	0.6212953308105469	-0.055066638183593745	1.03759765625	-4.978179931640625	-2.834320068359375	10.244190353393554	-0.20051438903808594	-0.5386953735351562	3.68499755859375	-4.634857177734375	-2.048492431640625	
130	0.52	0.0	0.0	0.0	0.0	0.003	0.003	0.006	0.006	9.615712417602538	0.4896142395019531	0.42377369384765623	2.34222412109375	-3.47900390625	-0.60272216796875	9.652223992919922	0.421978042602539	0.34656069030761716	0.335693359375	-4.84466552734375	-2.60162353515625	10.128670123291014	0.17357962036132812	-0.2885013000488281	3.528594970703125	-4.749298095703125	-2.01416015625	
131	0.524	0.0	0.0	0.0	0.0	0.003	0.003	0.006	0.003	9.804854348754882	0.35673604736328124	0.14185644836425781	-1.5869140625	-1.10626220703125	-0.804901123046875	9.943718045043944	0.45070846252441404	-0.11133037719726561	1.041412353515625	-5.146026611328125	-2.681732177734375	10.178349807739258	-0.059256491088867186	-0.4255693450927734	3.513336181640625	-4.8065185546875	-1.74713134765625	
132	0.528	0.0	0.0	0.0	0.0	0.006	0.003	0.003	0.006	9.539696514892578	0.4644751220703125	0.46627077331542965	2.09808349609375	-3.25775146484375	-0.48065185546875	9.628281976318359	0.5422866760253906	0.32620997619628905	0.461578369140625	-4.962921142578125	-2.796173095703125	10.037690460205077	0.18914193115234373	-0.17657237243652343	3.70025634765625	-4.608154296875	-2.086639404296875	
133	0.532	0.0	0.0	0.0	0.0	0.006	0.006	0.003	0.006	9.7683427734375	0.421978042602539	0.20829554443359374	-1.6632080078125	-0.934600830078125	-1.0833740234375	9.813832604980469	0.3687070556640625	0.19512743530273435	0.42724609375	-4.70733642578125	-2.864837646484375	10.165780249023436	-0.002992752075195312	-0.4908113403320312	3.513336181640625	-4.7760009765625	-1.64031982421875	
134	0.536	0.0	0.0	0.0	0.0	0.003	0.003	0.003	0.003	9.585186346435547	0.4608838195800781	0.45968671875	1.6326904296875	-3.204345703125	-0.843048095703125	9.651625442504882	0.6200982299804687	0.3459621398925781	0.484466552734375	-4.787445068359375	-2.8228759765625	9.93354268798828	-0.08439560852050781	-0.09576806640624999	3.627777099609375	-4.6539306640625	-2.208709716796875	
135	0.54	0.0	0.0	0.0	0.0	0.003	0.003	0.006	0.003	9.779715231323241	0.4782417816162109	0.19512743530273435	-1.556396484375	-0.965118408203125	-0.789642333984375	9.842563024902343	0.27892449340820313	0.16460136413574217	0.40435791015625	-5.016326904296875	-3.15093994140625	10.128670123291014	0.013168109130859374	-0.40282442932128903	3.44085693359375	-4.82177734375	-1.834869384765625	
136	0.544	0.0	0.0	0.0	0.0	0.003	0.003	0.006	0.006	9.911994873046874	0.6123170745849609	-0.00239420166015625	-0.67901611328125	-1.346588134765625	-0.9918212890625	9.710881933593749	0.5674257934570313	0.29568390502929687	0.29754638671875	-4.909515380859375	-3.200531005859375	9.830592016601562	-0.01975216369628906	-0.04848258361816406	3.635406494140625	-4.360198974609375	-2.2125244140625	
137	0.548	0.0	0.0	0.0	0.0	0.003	0.006	0.003	0.006	9.787496386718749	0.5644330413818359	0.2059013427734375	-1.506805419921875	-1.026153564453125	-0.972747802734375	9.86291373901367	0.33698388366699217	0.15981296081542967	0.335693359375	-5.008697509765625	-3.1890869140625	10.19510921936035	0.03591302490234375	-0.4584896179199218	3.444671630859375	-4.70733642578125	-1.64794921875	
138	0.552	0.0	0.0	0.0	0.0	0.003	0.003	0.003	0.003	9.93952819213867	0.6691793640136718	0.0053869537353515625	0.0762939453125	-2.0294189453125	-0.99945068359375	9.791087689208984	0.5363011718749999	0.2555810272216797	0.194549560546875	-4.7149658203125	-3.19671630859375	9.91438907470703	-0.029328970336914062	-0.05686228942871093	3.467559814453125	-4.482269287109375	-2.567291259765625	
139	0.556	0.0	0.0	0.0	0.0	0.003	0.003	0.006	0.003	9.76774422302246	0.6218938812255859	0.2136824981689453	4.482269287109375	-0.064849853515625	-1.132965087890625	9.69831237487793	0.2950853546142578	0.26874913635253905	-0.11444091796875	-4.547119140625	-2.73895263671875	9.816825357055663	0.1466448516845703	-0.11133037719726561	3.70025634765625	-4.573822021484375	-2.3040771484375	
140	0.56	0.0	0.0	0.0	0.0	0.003	0.006	0.003	0.006	9.910797772216796	0.6643909606933593	0.007781155395507812	0.244140625	-2.132415771484375	-0.988006591796875	9.731831198120117	0.5117606048583984	0.3321954803466797	0.1678466796875	-4.688262939453125	-2.895355224609375	9.866505041503906	0.014963760375976562	-0.04369418029785156	3.57818603515625	-4.558563232421875	-2.197265625	
141	0.5640000000000001	0.0	0.0	0.0	0.0	0.003	0.006	0.003	0.006	9.97843396911621	1.034893667602539	-0.15861585998535155	5.626678466796875	-5.733489990234375	-1.09100341796875	9.725247143554688	0.3333925811767578	0.2711433380126953	-0.19073486328125	-4.852294921875	-2.857208251953125	9.879673150634765	0.09576806640624999	-0.13946224670410157	3.5858154296875	-4.688262939453125	-2.12860107421875	
142	0.5680000000000001	0.0	0.0	0.0	0.0	0.006	0.003	0.006	0.003	9.94671079711914	0.6859387756347656	-0.06823474731445311	0.949859619140625	-2.54058837890625	-1.0223388671875	9.770138424682617	0.35194764404296874	0.086191259765625	0.25177001953125	-4.95147705078125	-2.89154052734375	9.926360083007811	0.020949264526367185	-0.23223756103515625	3.650665283203125	-4.37164306640625	-2.162933349609375	
143	0.5720000000000001	0.0	0.0	0.0	0.0	0.006	0.006	0.003	0.006	9.976039767456054	1.043273373413086	-0.17836802368164062	6.313323974609375	-5.9814453125	-0.9307861328125	9.637260232543944	0.4159925384521484	0.3064578125	-0.49591064453125	-4.78363037109375	-2.788543701171875	9.789292037963866	0.08978256225585937	-0.12210428466796874	3.711700439453125	-4.5623779296875	-2.288818359375	
144	0.5760000000000001	0.0	0.0	0.0	0.0	0.006	0.003	0.003	0.006	10.005967288208007	0.6877344268798827	-0.08140285644531249	6.805419921875	-6.313323974609375	-0.45013427734375	9.739612353515625	0.33039982910156246	0.08798691101074219	0.217437744140625	-4.72259521484375	-2.716064453125	9.885658654785155	0.08379705810546874	-0.19991583862304688	3.85284423828125	-4.291534423828125	-2.208709716796875	
145	0.58	0.0	0.0	0.0	0.0	0.003	0.006	0.006	0.006	10.035894808959961	0.9720458740234375	-0.2723404388427734	6.15692138671875	-5.8441162109375	-0.885009765625	9.801861596679688	0.4016273284912109	0.022744915771484374	0.2288818359375	-5.04302978515625	-2.76947021484375	10.088567245483398	-0.07122749938964844	-0.22565350646972654	3.8299560546875	-4.547119140625	-2.017974853515625	
146	0.584	0.0	0.0	0.0	0.0	0.003	0.003	0.006	0.0	10.017938296508788	0.6470329986572265	-0.1083376251220703	7.007598876953125	-6.427764892578125	-0.41961669921875	9.715071786499022	0.3495534423828125	0.1197100830078125	-0.064849853515625	-4.6844482421875	-2.696990966796875	9.873687646484374	0.13168109130859373	-0.2280477081298828	3.543853759765625	-4.638671875	-2.162933349609375	
147	0.588	0.0	0.0	0.0	0.0	0.0	0.003	0.006	0.003	9.994594830322265	0.948103857421875	-0.2567781280517578	6.580352783203125	-6.29425048828125	-0.5645751953125	9.694122521972655	0.3902548706054687	0.086191259765625	0.141143798828125	-5.28717041015625	-2.597808837890625	9.943119494628906	-0.03531447448730469	-0.17298106994628906	3.757476806640625	-4.802703857421875	-1.8768310546875	
148	0.592	0.0	0.0	0.0	0.0	0.006	0.006	0.003	0.003	10.02990930480957	0.5734112976074218	-0.1640028137207031	7.05718994140625	-6.6070556640625	-0.60272216796875	9.79946739501953	0.3022679595947265	0.06344634399414062	0.89263916015625	-5.001068115234375	-2.811431884765625	9.955090502929687	0.11611878051757812	-0.25737667846679685	3.77655029296875	-4.505157470703125	-2.12860107421875	
149	0.596	0.0	0.0	0.0	0.0	0.003	0.006	0.006	0.003	9.814431155395507	0.04249707946777344	0.29568390502929687	3.643035888671875	-4.390716552734375	-0.385284423828125	9.78031378173828	0.33039982910156246	0.013168109130859374	0.41961669921875	-4.974365234375	-2.6092529296875	10.053851321411132	-0.14484920043945312	-0.21188684692382811	3.72314453125	-4.66156005859375	-2.025604248046875	
150	0.6	0.0	0.0	0.0	0.0	0.003	0.006	0.003	0.003	9.956287603759765	0.6099228729248046	-0.18315642700195311	6.038665771484375	-5.985260009765625	-0.51116943359375	9.87009634399414	0.4429273071289062	-0.10414777221679687	0.96893310546875	-5.1727294921875	-2.93731689453125	10.20169327392578	0.08918401184082031	-0.5363011718749999	3.818511962890625	-4.657745361328125	-2.490997314453125	
151	0.604	0.0	0.0	0.0	0.0	0.006	0.003	0.006	0.003	9.735422500610351	0.06404489440917968	0.40222587890625	3.330230712890625	-4.33349609375	-0.797271728515625	9.782109432983399	0.3525461944580078	-0.05027823486328125	0.4425048828125	-4.962921142578125	-2.63214111328125	10.019135397338866	-0.07003039855957031	-0.21966800231933592	3.80706787109375	-4.61578369140625	-1.621246337890625	
152	0.608	0.0	0.0	0.0	0.0	0.003	0.003	0.003	0.006	9.980229620361328	0.26396073303222656	-0.17357962036132812	6.66046142578125	-5.687713623046875	-0.598907470703125	9.941323843383788	0.38367081604003905	-0.07900865478515624	0.949859619140625	-4.974365234375	-2.98309326171875	10.350133776855468	-0.02454056701660156	-0.5764040496826172	3.780364990234375	-4.20379638671875	-2.201080322265625	
153	0.612	0.0	0.0	0.0	0.0	0.009000000000000001	0.003	0.003	0.006	9.658808047485351	0.19153613281249998	0.527322915649414	2.3956298828125	-3.391265869140625	-0.797271728515625	9.700108026123047	0.49739539489746093	0.4285620971679687	0.54168701171875	-4.95147705078125	-3.143310546875	10.102932455444336	0.1131260284423828	-0.11611878051757812	3.48663330078125	-4.6844482421875	-1.80816650390625	
154	0.616	0.0	0.0	0.0	0.0	0.003	0.003	0.003	0.009000000000000001	9.694721072387695	0.27174188842773433	0.28371289672851563	-2.933502197265625	0.0	-0.988006591796875	9.843760125732421	0.4896142395019531	-0.018555062866210937	1.224517822265625	-5.123138427734375	-2.758026123046875	10.212467181396484	0.09038111267089843	-0.5309142181396485	3.60870361328125	-4.543304443359375	-2.132415771484375	
155	0.62	0.0	0.0	0.0	0.0	0.009000000000000001	0.006	0.003	0.003	9.692925421142577	0.007781155395507812	0.5213374114990235	0.499725341796875	-2.254486083984375	-0.728607177734375	9.77492682800293	0.4435258575439453	0.49320554199218747	0.446319580078125	-4.810333251953125	-2.98309326171875	10.220248336791991	0.09816226806640624	-0.14963760375976562	3.692626953125	-4.856109619140625	-1.7242431640625	
156	0.624	0.0	0.0	0.0	0.0	0.006	0.006	0.003	0.006	9.744400756835937	0.6470329986572265	0.2501940734863281	-1.65557861328125	-0.583648681640625	-1.33514404296875	9.903016616821288	0.36810850524902344	0.17657237243652343	0.324249267578125	-4.852294921875	-3.223419189453125	10.167575900268554	-0.22445640563964842	-0.4878185882568359	3.814697265625	-4.8370361328125	-2.410888671875	
157	0.628	0.0	0.0	0.0	0.0	0.003	0.006	0.003	0.003	9.533112460327148	0.21487959899902342	0.008978256225585938	-0.3204345703125	-1.38092041015625	-1.28173828125	9.649829791259766	0.6027402679443359	0.5602431884765625	0.057220458984375	-4.98199462890625	-3.22723388671875	10.021529598999022	0.26336218261718747	-0.14006079711914063	3.570556640625	-4.53948974609375	-1.64031982421875	
158	0.632	0.0	0.0	0.0	0.0	0.003	0.003	0.003	0.006	9.801861596679688	0.46028526916503903	0.19692308654785154	-3.368377685546875	0.225067138671875	-0.885009765625	9.905410818481444	0.3603273498535156	0.16639701538085935	-0.186920166015625	-4.985809326171875	-2.880096435546875	10.095151300048828	-0.16340426330566404	-0.42796354675292964	3.665924072265625	-4.60052490234375	-2.201080322265625	
159	0.636	0.0	0.0	0.0	0.0	0.0	0.003	0.003	0.006	9.988010775756836	0.9738415252685546	-0.23223756103515625	1.678466796875	-2.838134765625	-1.262664794921875	9.861716638183593	0.412401235961914	0.054468087768554684	-0.030517578125	-4.810333251953125	-2.780914306640625	10.24718310546875	0.09457096557617187	-0.24839842224121092	3.5552978515625	-4.505157470703125	-2.185821533203125	
160	0.64	0.0	0.0	0.0	0.0	0.003	0.003	0.006	0.003	9.835380419921874	0.8421604339599609	0.1370680450439453	-1.04522705078125	-0.736236572265625	-0.942230224609375	9.822810861206055	0.4369418029785156	0.17896657409667968	-0.102996826171875	-4.75311279296875	-2.87628173828125	9.92755718383789	-0.09157821350097656	-0.40282442932128903	3.459930419921875	-4.6844482421875	-2.292633056640625	
161	0.644	0.0	0.0	0.0	0.0	0.003	0.006	0.003	0.003	10.04906291809082	0.7176619476318359	-0.2998737579345703	2.349853515625	-3.154754638671875	-0.75531005859375	9.779116680908203	0.5339069702148437	0.08020575561523437	-0.110626220703125	-4.749298095703125	-2.55584716796875	9.763554370117188	0.27832594299316404	-0.027533319091796873	3.53240966796875	-4.451751708984375	-1.926422119140625	
162	0.648	0.0	0.0	0.0	0.0	0.003	0.003	0.003	0.006	10.018536846923828	1.0672153900146484	-0.34177228698730466	7.3699951171875	-6.870269775390625	-0.675201416015625	9.827599264526366	0.1580173095703125	-0.1005564697265625	-0.186920166015625	-4.78363037109375	-2.429962158203125	10.141239682006836	-0.24839842224121092	-0.48063598327636714	3.696441650390625	-5.11932373046875	-2.239227294921875	
163	0.652	0.0	0.0	0.0	0.0	0.009000000000000001	0.003	0.003	0.003	10.05504842224121	0.9421183532714843	-0.3651157531738281	4.96673583984375	-5.33294677734375	-1.44195556640625	9.766547122192382	0.5434837768554687	0.0005985504150390625	-0.026702880859375	-4.82940673828125	-2.559661865234375	9.83178911743164	0.2442085693359375	-0.0796072052001953	3.459930419921875	-4.547119140625	-2.03704833984375	
164	0.656	0.0	0.0	0.0	0.0	0.006	0.006	0.003	0.003	9.861716638183593	0.42377369384765623	-0.06464344482421874	5.359649658203125	-5.401611328125	-0.579833984375	9.680954412841796	0.27892449340820313	0.0053869537353515625	0.396728515625	-5.22613525390625	-2.788543701171875	9.804255798339844	-0.07721300354003906	-0.19033903198242186	3.73077392578125	-4.772186279296875	-1.97601318359375	
165	0.66	0.0	0.0	0.0	0.0	0.006	0.003	0.003	0.006	10.090362896728514	0.3902548706054687	-0.26755203552246093	3.173828125	-4.138946533203125	-0.385284423828125	9.675567459106444	0.48722003784179685	0.1975216369628906	0.789642333984375	-4.947662353515625	-3.238677978515625	9.938331091308592	0.1466448516845703	-0.017357962036132813	3.59344482421875	-4.634857177734375	-2.147674560546875	
166	0.664	0.0	0.0	0.0	0.0	0.003	0.003	0.006	0.003	9.834781869506836	1.1109095703125	0.009576806640625	6.366729736328125	-6.130218505859375	-0.93841552734375	9.803058697509766	0.2861070983886719	-0.06703764648437499	0.5645751953125	-4.69207763671875	-3.05938720703125	9.95987890625	-0.1610100616455078	-0.15263035583496093	3.787994384765625	-4.5928955078125	-2.162933349609375	
167	0.668	0.0	0.0	0.0	0.0	0.006	0.003	0.003	0.006	9.79946739501953	0.028730419921875	0.2549824768066406	1.995086669921875	-3.459930419921875	-0.9918212890625	9.6151138671875	0.5249287139892578	0.2454056701660156	0.652313232421875	-4.833221435546875	-2.9754638671875	9.812036953735351	0.14006079711914063	-0.025139117431640625	3.719329833984375	-3.948211669921875	-2.61688232421875	
168	0.672	0.0	0.0	0.0	0.0	0.009000000000000001	0.003	0.003	0.003	9.767145672607422	0.06763619689941405	0.25318682556152344	1.941680908203125	-3.475189208984375	-0.78582763671875	9.706692080688477	0.44891281127929683	0.1801636749267578	-0.20599365234375	-5.157470703125	-3.30352783203125	9.858125335693359	-0.0526724365234375	-0.07541735229492187	3.47900390625	-4.764556884765625	-2.05230712890625	
169	0.676	0.0	0.0	0.0	0.0	0.003	0.003	0.006	0.003	9.96047745666504	0.63206923828125	0.03950432739257812	1.2969970703125	-2.826690673828125	-0.102996826171875	9.751583361816406	0.3190273712158203	0.2328361114501953	0.3204345703125	-4.856109619140625	-3.299713134765625	9.92755718383789	-0.016759411621093748	-0.020949264526367185	3.757476806640625	-4.116058349609375	-2.6092529296875	
170	0.68	0.0	0.0	0.0	0.0	0.0	0.006	0.003	0.003	9.83238766784668	1.2785036865234374	0.05746083984375	5.83648681640625	-5.313873291015625	-1.3885498046875	9.80665	0.32441432495117184	0.15741875915527342	0.408172607421875	-5.0048828125	-2.6397705078125	9.84555577697754	-0.018555062866210937	-0.14125789794921875	3.28826904296875	-4.337310791015625	-1.697540283203125	
171	0.684	0.0	0.0	0.0	0.0	0.003	0.006	0.003	0.003	9.881468801879882	0.6350619903564453	0.11192892761230468	5.6915283203125	-5.4931640625	-1.155853271484375	9.680954412841796	0.36930560607910157	0.21607669982910155	0.324249267578125	-4.6844482421875	-2.83050537109375	9.798270294189452	0.08499415893554688	-0.011971008300781249	3.643035888671875	-4.1961669921875	-2.445220947265625	
172	0.6880000000000001	0.0	0.0	0.0	0.0	0.003	0.003	0.003	0.006	10.00955859069824	-0.36750995483398435	0.007781155395507812	0.8392333984375	-2.964019775390625	-0.22125244140625	9.804255798339844	0.33518823242187495	0.20470424194335937	0.2593994140625	-5.21087646484375	-2.7923583984375	10.006565838623047	0.04129997863769531	0.010175357055664061	3.60107421875	-4.61578369140625	-1.8310546875	
173	0.6920000000000001	0.0	0.0	0.0	0.0	0.006	0.003	0.003	0.006	10.005967288208007	0.018555062866210937	-0.004189852905273437	0.885009765625	-2.70843505859375	-0.133514404296875	9.865307940673828	0.412401235961914	0.02454056701660156	0.598907470703125	-4.608154296875	-2.899169921875	9.893439810180663	0.0047884033203125	-0.07003039855957031	3.753662109375	-4.421234130859375	-2.3956298828125	
174	0.6960000000000001	0.0	0.0	0.0	0.0	0.006	0.003	0.006	0.0	9.928155734252929	1.0779892974853515	-0.003591302490234375	5.66864013671875	-5.756378173828125	-0.576019287109375	9.676166009521484	0.32920272827148434	0.23523031311035156	0.431060791015625	-4.947662353515625	-2.704620361328125	9.861716638183593	0.11671733093261719	0.06883329772949218	3.475189208984375	-4.413604736328125	-1.972198486328125	
175	0.7000000000000001	0.0	0.0	0.0	0.0	0.003	0.003	0.003	0.003	9.76116016845703	0.49739539489746093	0.08439560852050781	4.886627197265625	-4.749298095703125	-1.522064208984375	9.828197814941406	0.5099649536132812	0.13587094421386717	1.232147216796875	-5.084991455078125	-2.8533935546875	10.293870037841796	-0.033518823242187495	-0.5913678100585937	3.7078857421875	-4.41741943359375	-2.14385986328125	
176	0.704	0.0	0.0	0.0	0.0	0.003	0.003	0.006	0.003	9.849745629882811	0.18255787658691405	0.21727380065917967	6.099700927734375	-5.77545166015625	-1.46484375	9.879074600219726	0.33039982910156246	0.3447650390625	-0.34332275390625	-4.924774169921875	-2.857208251953125	10.062829577636718	0.04129997863769531	-0.013168109130859374	3.73077392578125	-4.581451416015625	-1.544952392578125	
177	0.708	0.0	0.0	0.0	0.0	0.003	0.006	0.003	0.003	9.82580361328125	-0.297479556274414	0.05027823486328125	-3.6468505859375	0.118255615234375	-0.518798828125	9.80665	0.5548562347412109	0.13407529296874998	0.52642822265625	-4.421234130859375	-2.719879150390625	10.290278735351562	-0.04967968444824218	-0.5674257934570313	3.620147705078125	-4.5623779296875	-2.407073974609375	
178	0.712	0.0	0.0	0.0	0.0	0.009000000000000001	0.006	0.006	0.006	9.840168823242188	-0.09636661682128905	0.32920272827148434	-0.8697509765625	-1.667022705078125	-0.324249267578125	9.770138424682617	0.35613749694824215	0.43634325256347656	0.1373291015625	-5.1116943359375	-2.841949462890625	10.011354241943359	0.21966800231933592	-0.20769699401855468	3.582000732421875	-4.772186279296875	-1.922607421875	
179	0.716	0.0	0.0	0.0	0.0	0.003	0.006	0.003	0.003	9.950302099609374	0.5740098480224609	-0.239420166015625	0.308990478515625	-2.288818359375	-0.705718994140625	9.95987890625	0.5087678527832031	-0.14245499877929688	0.885009765625	-4.79888916015625	-2.78472900390625	10.289680184936524	-0.14784195251464843	-0.5267243652343749	3.57818603515625	-4.49371337890625	-1.979827880859375	
180	0.72	0.0	0.0	0.0	0.0	0.006	0.006	0.003	0.006	9.710881933593749	0.824203921508789	0.181959326171875	4.787445068359375	-4.75311279296875	-1.148223876953125	9.82580361328125	0.25139117431640623	0.42497079467773435	0.152587890625	-5.077362060546875	-2.773284912109375	10.117896215820313	0.16460136413574217	-0.26396073303222656	3.879547119140625	-4.642486572265625	-2.01416015625	
181	0.724	0.0	0.0	0.0	0.0	0.003	0.003	0.003	0.003	9.828796365356444	0.46627077331542965	-0.10414777221679687	3.253936767578125	-3.978729248046875	-0.919342041015625	9.873089096069336	0.6278793853759765	-0.07122749938964844	1.033782958984375	-4.99725341796875	-2.70843505859375	10.164583148193358	-0.04548983154296875	-0.373495458984375	3.559112548828125	-4.665374755859375	-1.6937255859375	
182	0.728	0.0	0.0	0.0	0.0	0.003	0.003	0.006	0.003	9.567229833984374	0.7140706451416016	0.3764882110595703	1.861572265625	-3.139495849609375	-1.28173828125	9.664195001220703	0.4656722229003906	0.3315969299316406	-0.431060791015625	-4.7454833984375	-2.78472900390625	10.083778842163085	0.18435352783203124	-0.16699556579589842	3.70025634765625	-4.535675048828125	-1.983642578125	
183	0.732	0.0	0.0	0.0	0.0	0.003	0.006	0.006	0.006	9.730035546875	0.4800374328613281	0.06344634399414062	-1.422882080078125	-1.068115234375	-1.0528564453125	9.951499200439452	0.49859249572753905	-0.13826514587402344	1.3275146484375	-4.962921142578125	-2.979278564453125	10.21545993347168	-0.031124621582031248	-0.5835866546630859	3.79180908203125	-4.8675537109375	-1.9378662109375	
184	0.736	0.0	0.0	0.0	0.0	0.003	0.003	0.006	0.003	9.571419686889648	0.5363011718749999	0.31064766540527344	-0.904083251953125	-1.190185546875	-1.28173828125	9.639055883789062	0.55545478515625	0.3507505432128906	-0.43487548828125	-4.78363037109375	-2.910614013671875	10.043077413940429	0.20470424194335937	-0.19931728820800781	3.505706787109375	-4.611968994140625	-2.26593017578125	
185	0.74	0.0	0.0	0.0	0.0	0.003	0.003	0.003	0.003	9.97184991455078	0.6212953308105469	-0.0017956512451171875	-1.544952392578125	-1.430511474609375	-0.446319580078125	9.795876092529296	0.3758896606445312	0.1131260284423828	-0.102996826171875	-4.833221435546875	-2.704620361328125	10.086173043823242	0.054468087768554684	-0.4830301849365234	3.582000732421875	-4.894256591796875	-1.79290771484375	
186	0.744	0.0	0.0	0.0	0.0	0.003	0.006	0.006	0.003	9.803657247924804	0.4100070343017578	-0.04608838195800781	-2.105712890625	-0.774383544921875	-1.209259033203125	9.688137017822266	0.4848258361816406	0.33099837951660155	-0.20599365234375	-4.7454833984375	-2.84576416015625	9.855132583618163	-0.06703764648437499	-0.14604630126953125	3.2501220703125	-4.6539306640625	-2.349853515625	
187	0.748	0.0	0.0	0.0	0.0	0.003	0.003	0.003	0.003	10.043077413940429	0.8170213165283202	-0.07781155395507812	1.819610595703125	-3.1280517578125	-0.54931640625	9.858125335693359	0.31543606872558594	0.09157821350097656	0.484466552734375	-4.90570068359375	-2.948760986328125	10.090362896728514	0.029927520751953124	-0.49021278991699213	3.673553466796875	-4.878997802734375	-2.14385986328125	
188	0.752	0.0	0.0	0.0	0.0	0.006	0.003	0.003	0.003	9.773131176757811	0.977432827758789	0.16160861206054686	7.343292236328125	-6.526947021484375	-0.789642333984375	9.613318215942382	0.5165490081787109	0.37828386230468747	0.171661376953125	-4.67681884765625	-2.819061279296875	9.724648593139648	-0.007781155395507812	-0.08080430603027343	3.51715087890625	-4.512786865234375	-2.3651123046875	
189	0.756	0.0	0.0	0.0	0.0	0.003	0.003	4.587	4.575	9.950302099609374	0.853532891845703	-0.033518823242187495	3.292083740234375	-3.8604736328125	-0.835418701171875	9.873687646484374	0.30047230834960936	0.08020575561523437	0.45013427734375	-4.779815673828125	-2.7313232421875	9.873687646484374	0.23343466186523437	-0.13826514587402344	3.70025634765625	-4.61578369140625	-2.017974853515625	
190	0.76	0.0	0.0	0.0	0.0	4.593	4.635	4.632	4.563	9.816226806640625	0.8655039001464844	0.07900865478515624	5.870819091796875	-5.481719970703125	-0.885009765625	9.622895022583007	0.3842693664550781	0.25139117431640623	0.55694580078125	-4.7760009765625	-3.16619873046875	9.848548529052733	-0.13467384338378904	-0.11073182678222655	3.635406494140625	-4.69207763671875	-2.2430419921875	
191	0.764	0.0	0.0	0.0	0.0	4.599	4.635	4.632	4.566	9.879074600219726	0.7864952453613281	-0.054468087768554684	1.827239990234375	-3.173828125	-0.9918212890625	9.788693487548828	0.4267664459228515	0.08559270935058594	0.324249267578125	-5.18035888671875	-3.631591796875	9.797073193359374	0.2807201446533203	-0.12389993591308593	3.570556640625	-4.66156005859375	-2.2735595703125	
192	0.768	0.0	0.0	0.0	0.0	4.596	4.626	4.635	4.587	9.819219558715819	0.8230068206787109	0.03651157531738281	4.261016845703125	-4.322052001953125	-0.72479248046875	9.575609539794922	0.4070142822265625	0.26815058593749996	-0.06103515625	-4.5623779296875	-2.971649169921875	9.770138424682617	-0.10414777221679687	-0.032920272827148434	3.772735595703125	-4.63104248046875	-2.12860107421875	
193	0.772	0.0	0.0	0.0	0.0	4.596	4.635	4.638	4.5840000000000005	9.982623822021484	0.6679822631835937	-0.037110125732421874	3.88336181640625	-4.497528076171875	-0.850677490234375	9.841964474487304	0.25797522888183594	0.03651157531738281	0.457763671875	-5.115509033203125	-2.834320068359375	9.980229620361328	0.18315642700195311	-0.16759411621093748	3.673553466796875	-4.543304443359375	-2.166748046875	
194	0.776	0.0	0.0	0.0	0.0	4.59	4.635	4.635	4.587	9.773131176757811	0.7254431030273437	0.15322890625	3.383636474609375	-4.131317138671875	-0.8697509765625	9.564835632324218	0.38247371520996093	0.3555389465332031	0.087738037109375	-4.680633544921875	-3.292083740234375	9.929352835083007	-0.24600422058105467	-0.22086510314941404	3.90625	-4.230499267578125	-2.1209716796875	
195	0.78	0.0	0.0	0.0	0.0	4.581	4.635	4.6290000000000004	4.596	9.923965881347655	0.6967126831054687	0.06045359191894531	2.9296875	-4.11224365234375	-1.041412353515625	9.688735568237304	0.28730419921875	0.18854338073730467	0.41961669921875	-5.16510009765625	-2.5634765625	9.808445651245117	0.2980781066894531	-0.11611878051757812	3.459930419921875	-4.627227783203125	-2.01416015625	
196	0.784	0.0	0.0	0.0	0.0	4.596	4.635	4.635	4.575	9.813234054565429	0.5135562561035156	0.1562216583251953	4.695892333984375	-4.90570068359375	-0.438690185546875	9.83837317199707	0.3363853332519531	0.17238251953125	0.54931640625	-4.70733642578125	-3.032684326171875	9.967660061645507	-0.28311434631347654	-0.22026655273437498	3.650665283203125	-4.2724609375	-2.086639404296875	
197	0.788	0.0	0.0	0.0	0.0	4.596	4.635	4.635	4.563	10.016142645263672	0.7709329345703124	-0.04908113403320312	3.0364990234375	-3.94439697265625	-0.8087158203125	9.771934075927733	0.25737667846679685	0.1849520782470703	0.415802001953125	-4.863739013671875	-3.02886962890625	10.105925207519531	0.08020575561523437	-0.24001871643066405	3.3416748046875	-4.550933837890625	-2.06756591796875	
198	0.792	0.0	0.0	0.0	0.0	4.596	4.635	4.635	4.572	9.888052856445311	0.8589198455810546	-0.037110125732421874	5.855560302734375	-5.306243896484375	-0.9307861328125	9.77432827758789	0.4159925384521484	0.1801636749267578	0.339508056640625	-4.73785400390625	-2.902984619140625	9.855132583618163	-0.17238251953125	-0.18076222534179687	3.54766845703125	-3.986358642578125	-2.132415771484375	
199	0.796	0.0	0.0	0.0	0.0	4.596	4.626	4.635	4.578	9.988609326171874	0.7769184387207031	-0.047285482788085934	3.780364990234375	-4.238128662109375	-0.957489013671875	9.846154327392577	0.3142389678955078	0.16519991455078123	-0.049591064453125	-5.092620849609375	-1.8768310546875	10.022128149414062	0.0939724151611328	-0.229843359375	3.696441650390625	-4.604339599609375	-1.89971923828125	
200	0.8	0.0	0.0	0.0	0.0	4.59	4.635	4.638	4.587	9.93294413757324	0.6973112335205077	-0.10474632263183593	5.672454833984375	-5.527496337890625	-0.81634521484375	9.848548529052733	0.3507505432128906	0.09636661682128905	0.347137451171875	-4.528045654296875	-2.79998779296875	10.381258398437499	-0.11133037719726561	-0.7350199096679687	3.6773681640625	-4.46319580078125	-2.044677734375	
201	0.804	0.0	0.0	0.0	0.0	4.59	4.635	4.635	4.587	9.751583361816406	0.709880792236328	0.19393033447265623	4.38690185546875	-4.833221435546875	-0.720977783203125	9.842563024902343	0.3130418670654297	0.11013327636718749	-0.240325927734375	-4.978179931640625	-2.1514892578125	10.01075569152832	0.08319850769042968	-0.24121581726074218	3.520965576171875	-4.5928955078125	-2.01416015625	
202	0.808	0.0	0.0	0.0	0.0	4.5840000000000005	4.635	4.6290000000000004	4.596	9.903615167236328	0.7757213378906249	-0.12988544006347655	5.702972412109375	-5.588531494140625	-0.64849853515625	9.885060104370117	0.46686932373046874	-0.0909796630859375	1.071929931640625	-5.275726318359375	-2.910614013671875	10.20229182434082	0.022146365356445312	-0.5093664031982421	3.92913818359375	-4.436492919921875	-1.96075439453125	
203	0.812	0.0	0.0	0.0	0.0	4.596	0.003	0.003	0.003	9.688137017822266	0.6141127258300781	0.35194764404296874	4.14276123046875	-4.734039306640625	-0.80108642578125	9.880870251464843	0.2615665313720703	0.08020575561523437	0.08392333984375	-4.98199462890625	-2.3040771484375	10.04906291809082	0.13646949462890623	-0.044292730712890624	3.71551513671875	-4.642486572265625	-2.429962158203125	
204	0.8160000000000001	0.0	0.0	0.0	0.0	0.003	0.003	0.006	0.006	9.891045608520507	0.709880792236328	-0.1005564697265625	6.168365478515625	-5.542755126953125	-0.732421875	9.888651406860351	0.49739539489746093	0.0017956512451171875	0.820159912109375	-4.67681884765625	-3.078460693359375	10.20887587890625	0.0526724365234375	-0.4177881896972656	3.726959228515625	-4.38690185546875	-2.010345458984375	
205	0.8200000000000001	0.0	0.0	0.0	0.0	0.009000000000000001	0.006	0.003	0.003	9.6013472076416	0.632667788696289	0.5015852478027344	3.16619873046875	-3.79180908203125	-0.713348388671875	9.634267480468749	0.5404910247802734	0.3950432739257812	-0.091552734375	-4.917144775390625	-2.95257568359375	10.073603485107421	0.0909796630859375	-0.22266075439453123	3.7078857421875	-4.863739013671875	-2.3651123046875	
206	0.8240000000000001	0.0	0.0	0.0	0.0	0.0	0.003	0.006	0.003	9.865307940673828	0.48662148742675776	0.018555062866210937	-1.361846923828125	-1.4495849609375	-0.96893310546875	9.8449572265625	0.4860229370117187	0.05805939025878906	0.896453857421875	-4.863739013671875	-2.773284912109375	10.38724390258789	-0.06464344482421874	-0.7038952880859375	3.85284423828125	-5.092620849609375	-1.85394287109375	
207	0.8280000000000001	0.0	0.0	0.0	0.0	0.006	0.003	0.003	0.006	9.622296472167967	0.4842272857666015	0.4165910888671875	1.1749267578125	-2.6397705078125	-0.91552734375	9.596558804321289	0.5512649322509765	0.4704606262207031	0.148773193359375	-4.92095947265625	-3.078460693359375	10.073603485107421	0.07721300354003906	-0.10953472595214843	3.54766845703125	-4.512786865234375	-2.140045166015625	
208	0.8320000000000001	0.0	0.0	0.0	0.0	0.003	0.003	0.003	0.006	9.847351428222655	0.5632359405517577	0.017956512451171875	-2.22015380859375	-0.78582763671875	-0.946044921875	9.917381826782226	0.40581718139648437	-0.1406593475341797	0.591278076171875	-4.974365234375	-3.017425537109375	10.021529598999022	0.12150573425292968	-0.19632453613281248	3.62396240234375	-4.5318603515625	-2.063751220703125	
209	0.836	0.0	0.0	0.0	0.0	0.006	0.006	0.003	0.003	9.625289224243163	0.3860650177001953	0.3854664672851562	-0.019073486328125	-1.880645751953125	-0.934600830078125	9.663596450805663	0.6332663391113281	0.3363853332519531	0.270843505859375	-4.756927490234375	-2.81524658203125	10.070610733032225	0.086191259765625	-0.044891281127929686	3.734588623046875	-4.72259521484375	-2.044677734375	
210	0.84	0.0	0.0	0.0	0.0	0.006	0.003	0.003	0.006	9.82580361328125	0.47764323120117186	0.11372457885742186	-1.1444091796875	-1.461029052734375	-1.068115234375	9.82460651245117	0.26336218261718747	0.22864625854492185	0.133514404296875	-4.69970703125	-2.948760986328125	10.099341152954102	0.05686228942871093	-0.38845921936035155	3.5858154296875	-4.634857177734375	-2.010345458984375	
211	0.844	0.0	0.0	0.0	0.0	0.006	0.006	0.003	0.003	9.874286196899414	0.5913678100585937	0.04249707946777344	0.3509521484375	-2.20489501953125	-1.129150390625	9.629479077148437	0.7015010864257812	0.33698388366699217	0.087738037109375	-4.543304443359375	-3.265380859375	9.757568865966796	0.05985504150390625	-0.010773907470703125	3.528594970703125	-4.535675048828125	-2.376556396484375	
212	0.848	0.0	0.0	0.0	0.0	0.003	0.003	0.003	0.006	9.79946739501953	0.4644751220703125	0.21308394775390624	-2.170562744140625	-0.58746337890625	-0.896453857421875	9.809044201660155	0.26755203552246093	0.30885201416015623	0.293731689453125	-4.932403564453125	-3.1585693359375	10.150217938232421	0.052073886108398436	-0.36691140441894526	3.509521484375	-4.84466552734375	-1.964569091796875	
213	0.852	0.0	0.0	0.0	0.0	0.009000000000000001	0.003	0.003	0.006	9.943119494628906	0.5590460876464843	0.0053869537353515625	0.102996826171875	-2.010345458984375	-1.30462646484375	9.756970315551758	0.5333084197998047	0.2376245147705078	0.324249267578125	-4.756927490234375	-3.0975341796875	9.82520506286621	-0.005985504150390624	0.033518823242187495	3.7994384765625	-4.5928955078125	-2.23541259765625	
214	0.856	0.0	0.0	0.0	0.0	0.003	0.003	0.003	0.003	9.974244116210937	0.8846575134277344	-0.21727380065917967	4.608154296875	-4.856109619140625	-0.9613037109375	9.718064538574218	0.34237083740234375	0.3268085266113281	0.0762939453125	-4.833221435546875	-3.185272216796875	9.756970315551758	0.062249243164062495	-0.07062894897460938	3.70025634765625	-4.4097900390625	-2.292633056640625	
215	0.86	0.0	0.0	0.0	0.0	0.0	0.003	0.006	0.006	9.923965881347655	0.690128628540039	0.059256491088867186	-0.1068115234375	-1.705169677734375	-1.0223388671875	9.75517466430664	0.5913678100585937	0.28012159423828126	0.011444091796875	-4.909515380859375	-3.08990478515625	9.757568865966796	0.12090718383789062	0.05746083984375	3.704071044921875	-4.61578369140625	-1.9989013671875	
216	0.864	0.0	0.0	0.0	0.0	0.006	0.003	0.003	0.003	10.061033926391602	0.9708487731933593	-0.2651578338623047	4.940032958984375	-4.978179931640625	-0.942230224609375	9.759364517211914	0.15382745666503905	0.16220716247558592	-0.064849853515625	-4.894256591796875	-2.5482177734375	9.83837317199707	-0.08499415893554688	-0.04668693237304687	3.65447998046875	-4.5166015625	-2.12860107421875	
217	0.868	0.0	0.0	0.0	0.0	0.006	0.003	0.003	0.006	9.974244116210937	0.833182177734375	-0.09995791931152344	1.018524169921875	-2.315521240234375	-1.102447509765625	9.733028298950195	0.594959112548828	0.2166752502441406	-0.1373291015625	-4.486083984375	-2.910614013671875	9.770736975097655	0.15263035583496093	-0.022146365356445312	3.894805908203125	-4.486083984375	-2.223968505859375	
218	0.872	0.0	0.0	0.0	0.0	0.003	0.006	0.003	0.006	9.943119494628906	1.2030863342285156	-0.19153613281249998	7.076263427734375	-6.465911865234375	-0.89263916015625	9.606734161376952	0.27832594299316404	0.13168109130859373	-0.1068115234375	-4.94384765625	-2.5177001953125	9.670180505371093	-0.0047884033203125	-0.06943184814453125	3.620147705078125	-4.547119140625	-2.315521240234375	
219	0.876	0.0	0.0	0.0	0.0	0.009000000000000001	0.003	0.006	0.003	10.012551342773437	0.670975015258789	-0.07781155395507812	7.320404052734375	-6.4697265625	-0.5645751953125	9.879673150634765	0.42497079467773435	-0.07541735229492187	0.370025634765625	-4.84466552734375	-2.559661865234375	10.00417163696289	0.17896657409667968	-0.20350714111328125	3.7689208984375	-4.5166015625	-2.044677734375	
220	0.88	0.0	0.0	0.0	0.0	0.003	0.003	0.006	0.006	10.050858569335936	0.8403647827148437	-0.29867665710449215	6.85882568359375	-6.6986083984375	-0.865936279296875	9.737218151855469	0.3064578125	0.009576806640625	0.141143798828125	-4.79888916015625	-2.727508544921875	9.886855755615233	-0.1580173095703125	-0.2537853759765625	3.79180908203125	-4.61578369140625	-2.3193359375	
221	0.884	0.0	0.0	0.0	0.0	0.003	0.003	0.003	0.003	9.958681805419921	0.5895721588134766	-0.08140285644531249	6.290435791015625	-6.24847412109375	-0.4119873046875	9.744400756835937	0.4291606475830078	-0.04608838195800781	0.370025634765625	-4.96673583984375	-2.605438232421875	9.85632968444824	0.2962824554443359	-0.2765302917480469	3.8299560546875	-4.375457763671875	-2.38037109375	
222	0.888	0.0	0.0	0.0	0.0	0.006	0.003	0.003	0.003	10.00955859069824	0.9600748657226562	-0.21607669982910155	2.99835205078125	-4.177093505859375	-0.865936279296875	9.767145672607422	0.4531026641845703	0.19093758239746092	0.51116943359375	-5.340576171875	-2.532958984375	10.04846436767578	-0.0526724365234375	-0.1640028137207031	3.753662109375	-4.703521728515625	-1.728057861328125	
223	0.892	0.0	0.0	0.0	0.0	0.003	0.003	0.003	0.003	9.965265859985351	0.24660277099609373	0.002992752075195312	5.840301513671875	-5.527496337890625	-0.6103515625	9.911396322631836	0.24959552307128904	-0.10953472595214843	0.507354736328125	-4.8980712890625	-2.9754638671875	10.103531005859374	0.09696516723632811	-0.19991583862304688	3.72314453125	-4.398345947265625	-2.346038818359375	
224	0.896	0.0	0.0	0.0	0.0	0.003	0.003	0.003	0.006	9.770736975097655	-0.1274912384033203	0.3441664886474609	0.5645751953125	-2.170562744140625	-0.79345703125	9.727641345214844	0.4429273071289062	0.20649989318847656	0.335693359375	-5.069732666015625	-3.025054931640625	10.057442623901366	-0.14305354919433594	-0.13347674255371092	3.574371337890625	-4.619598388671875	-1.895904541015625	
225	0.9	0.0	0.0	0.0	0.0	0.003	0.006	0.003	0.003	9.829993466186522	0.2705447875976562	0.12629413757324218	3.66973876953125	-4.520416259765625	-0.43487548828125	9.808445651245117	0.5835866546630859	0.13108254089355467	1.201629638671875	-4.863739013671875	-2.93731689453125	10.198700521850585	0.1640028137207031	-0.6302735870361328	3.627777099609375	-4.390716552734375	-2.13623046875	
226	0.904	0.0	0.0	0.0	0.0	0.006	0.006	0.006	0.009000000000000001	9.788693487548828	0.1945288848876953	0.40940848388671874	1.3427734375	-3.12042236328125	-0.60272216796875	9.861118087768554	0.2663549346923828	0.3573345977783203	0.5035400390625	-5.096435546875	-3.086090087890625	10.243591802978514	-0.20709844360351562	-0.1484405029296875	3.627777099609375	-4.711151123046875	-1.68609619140625	
227	0.908	0.0	0.0	0.0	0.0	0.006	0.006	0.006	0.003	9.82460651245117	0.5476736297607422	0.08200140686035155	-0.45013427734375	-1.36566162109375	-0.9613037109375	9.976638317871092	0.46507367248535153	0.10175357055664062	0.713348388671875	-4.9591064453125	-3.12042236328125	10.392032305908202	-0.11133037719726561	-0.7026981872558593	3.818511962890625	-4.43267822265625	-2.49481201171875	
228	0.912	0.0	0.0	0.0	0.0	0.006	0.006	0.003	0.006	9.707290631103515	0.3321954803466797	0.41539398803710936	0.576019287109375	-2.079010009765625	-0.934600830078125	9.549871871948241	0.4860229370117187	0.42975919799804685	-0.244140625	-4.688262939453125	-2.655029296875	9.861118087768554	0.0718260498046875	-0.05985504150390625	3.536224365234375	-4.46319580078125	-1.583099365234375	
229	0.916	0.0	0.0	0.0	0.0	0.003	0.006	0.003	0.003	9.885060104370117	0.37888241271972656	-0.08858546142578125	-1.171112060546875	-1.25885009765625	-0.835418701171875	9.994594830322265	0.5135562561035156	0.03531447448730469	0.48065185546875	-4.695892333984375	-2.47955322265625	10.381258398437499	-0.07062894897460938	-0.7009025360107421	3.753662109375	-4.67681884765625	-2.140045166015625	
230	0.92	0.0	0.0	0.0	0.0	0.003	0.003	0.003	0.006	9.898228213500976	0.3489548919677734	0.24839842224121092	2.105712890625	-3.131866455078125	-0.629425048828125	9.840168823242188	0.1945288848876953	0.29089550170898437	-0.370025634765625	-4.85992431640625	-2.6397705078125	10.297461340332031	0.029927520751953124	-0.3016694091796875	3.72314453125	-4.680633544921875	-2.28118896484375	
231	0.924	0.0	0.0	0.0	0.0	0.003	0.003	0.003	0.003	9.891045608520507	0.8002619049072265	-0.1897404815673828	1.529693603515625	-2.880096435546875	-1.16729736328125	9.77432827758789	0.6542156036376953	-0.030526071166992186	0.164031982421875	-4.90570068359375	-3.021240234375	10.038887561035155	0.03232172241210937	-0.5422866760253906	3.437042236328125	-4.15802001953125	-2.323150634765625	
232	0.928	0.0	0.0	0.0	0.0	0.009000000000000001	0.006	0.003	0.003	9.713874685668944	0.7254431030273437	0.15083470458984374	3.01361083984375	-3.879547119140625	-1.03759765625	9.579799392700195	0.4339490509033203	0.354341845703125	0.240325927734375	-5.06591796875	-2.376556396484375	9.951499200439452	0.3705027069091797	-0.17298106994628906	3.662109375	-4.589080810546875	-1.59454345703125	
233	0.932	0.0	0.0	0.0	0.0	0.009000000000000001	0.003	0.006	0.003	9.94072529296875	0.09157821350097656	-0.11552023010253906	0.125885009765625	-2.277374267578125	-0.9613037109375	10.028113653564452	0.42437224426269526	-0.1322796417236328	0.69427490234375	-5.096435546875	-3.05938720703125	10.274716424560546	-0.3016694091796875	-0.4207809417724609	3.4332275390625	-4.84466552734375	-1.97601318359375	
234	0.936	0.0	0.0	0.0	0.0	0.006	0.003	0.003	0.003	9.743203656005859	0.5476736297607422	0.12808978881835936	0.690460205078125	-2.23541259765625	-1.0528564453125	9.560645779418945	0.4255693450927734	0.5027823486328125	0.095367431640625	-4.833221435546875	-3.24249267578125	10.058639724731444	0.22266075439453123	-0.31184476623535157	3.50189208984375	-4.825592041015625	-2.15911865234375	
235	0.9400000000000001	0.0	0.0	0.0	0.0	0.003	0.003	0.003	0.003	9.715071786499022	0.7074865905761718	0.2154781494140625	1.171112060546875	-2.66265869140625	-0.904083251953125	9.788693487548828	0.6727706665039062	-0.055066638183593745	0.274658203125	-4.638671875	-2.750396728515625	9.868300692749022	0.08978256225585937	-0.49260699157714843	3.448486328125	-5.039215087890625	-2.079010009765625	
236	0.9440000000000001	0.0	0.0	0.0	0.0	0.003	0.003	0.003	0.006	9.82520506286621	0.49200844116210934	0.11611878051757812	0.743865966796875	-2.307891845703125	-1.15966796875	9.766547122192382	0.28431144714355466	0.3591302490234375	-0.16021728515625	-5.10406494140625	-3.017425537109375	9.87608184814453	0.13347674255371092	0.010773907470703125	3.814697265625	-4.791259765625	-2.0599365234375	
237	0.9480000000000001	0.0	0.0	0.0	0.0	0.003	0.003	0.003	0.003	10.067617980957031	0.39444472351074217	-0.181959326171875	1.300811767578125	-2.979278564453125	-0.957489013671875	10.007762939453125	0.3746925598144531	-0.12090718383789062	0.42724609375	-4.52423095703125	-3.284454345703125	10.207080227661132	-0.3327940307617187	-0.5207388610839844	3.681182861328125	-4.66156005859375	-2.330780029296875	
238	0.9520000000000001	0.0	0.0	0.0	0.0	0.006	0.006	0.003	0.003	9.835978970336914	0.5195417602539062	-0.02693476867675781	-0.93841552734375	-1.697540283203125	-0.9613037109375	9.549273321533203	0.5470750793457031	0.31064766540527344	-0.09918212890625	-4.7149658203125	-2.742767333984375	9.593566052246093	0.3591302490234375	-0.17477672119140625	3.7841796875	-4.451751708984375	-2.620697021484375	
239	0.9560000000000001	0.0	0.0	0.0	0.0	0.003	0.003	0.006	0.006	9.87668039855957	0.9026140258789062	0.025737667846679687	2.41851806640625	-3.894805908203125	-0.415802001953125	9.66000514831543	0.3848679168701172	0.201112939453125	0.61798095703125	-5.39398193359375	-2.704620361328125	10.070610733032225	-0.13168109130859373	-0.3178302703857422	3.814697265625	-4.688262939453125	-1.476287841796875	
240	0.96	0.0	0.0	0.0	0.0	0.0	0.006	0.006	0.006	9.973047015380859	0.6165069274902344	0.06883329772949218	7.030487060546875	-6.04248046875	-0.827789306640625	9.841964474487304	0.10654197387695312	0.2932897033691406	-0.064849853515625	-4.64630126953125	-3.238677978515625	10.09993970336914	-0.23642741394042968	-0.17896657409667968	3.803253173828125	-4.73785400390625	-2.5482177734375	
241	0.964	0.0	0.0	0.0	0.0	0.003	0.006	0.006	0.003	9.923367330932617	0.8834604125976562	-0.1610100616455078	2.994537353515625	-3.6163330078125	-1.041412353515625	9.718064538574218	0.5123591552734374	-0.1304839904785156	0.5035400390625	-4.772186279296875	-2.826690673828125	9.777919580078125	0.1945288848876953	-0.20051438903808594	3.597259521484375	-4.596710205078125	-2.349853515625	
242	0.968	0.0	0.0	0.0	0.0	0.003	0.006	0.006	0.006	9.738415252685547	0.7841010437011718	0.16639701538085935	4.764556884765625	-5.0506591796875	-0.614166259765625	9.445724099731445	0.48542438659667964	0.3441664886474609	0.072479248046875	-4.558563232421875	-2.758026123046875	9.607332711791992	0.17238251953125	-0.004189852905273437	3.692626953125	-4.802703857421875	-2.3193359375	
243	0.972	0.0	0.0	0.0	0.0	0.006	0.003	0.003	4.572	10.027515103149414	0.6907271789550781	-0.17597382202148437	3.2806396484375	-4.390716552734375	-0.713348388671875	9.973645565795898	0.05087678527832031	-0.010175357055664061	0.30517578125	-4.9591064453125	-2.864837646484375	10.168773001098632	-0.06823474731445311	-0.22685060729980466	3.86810302734375	-4.764556884765625	-2.0599365234375	
244	0.976	0.0	0.0	0.0	0.0	4.587	4.632	4.635	4.569	10.049661468505859	0.7481880187988281	-0.17417817077636719	6.81304931640625	-5.828857421875	-0.946044921875	9.732429748535155	0.4423287567138672	0.05087678527832031	0.25177001953125	-4.4097900390625	-3.2806396484375	10.157999093627929	-0.28371289672851563	-0.45190556335449217	3.84521484375	-4.428863525390625	-2.54058837890625	
245	0.98	0.0	0.0	0.0	0.0	4.593	4.632	4.635	4.566	9.88386300354004	0.5488707305908203	0.04369418029785156	4.37164306640625	-4.93621826171875	-0.3662109375	9.562441430664062	0.4842272857666015	0.2549824768066406	0.274658203125	-5.2337646484375	-2.536773681640625	9.527725506591796	0.4752490295410156	-0.008978256225585938	3.482818603515625	-4.413604736328125	-1.91497802734375	
246	0.984	0.0	0.0	0.0	0.0	4.596	4.626	4.635	4.5840000000000005	9.910199221801758	0.4961982940673828	0.15322890625	5.80596923828125	-5.611419677734375	-0.49591064453125	9.72345149230957	0.25797522888183594	0.30406361083984373	0.3662109375	-4.962921142578125	-3.009796142578125	10.102932455444336	-0.34536358947753903	-0.18315642700195311	3.97491455078125	-4.70733642578125	-2.15911865234375	
247	0.988	0.0	0.0	0.0	0.0	4.59	4.635	4.638	4.59	10.130465774536132	0.34117373657226563	-0.22445640563964842	4.932403564453125	-5.336761474609375	-0.530242919921875	10.04906291809082	0.20649989318847656	-0.0987608184814453	0.537872314453125	-4.962921142578125	-2.742767333984375	10.396820709228516	0.044292730712890624	-0.35793314819335936	3.597259521484375	-4.69207763671875	-2.323150634765625	
248	0.992	0.0	0.0	0.0	0.0	4.593	4.635	4.635	4.587	9.814431155395507	0.9690531219482421	0.1274912384033203	4.405975341796875	-4.45556640625	-0.698089599609375	9.749189160156249	0.5997475158691405	0.059256491088867186	0.8087158203125	-4.428863525390625	-2.735137939453125	9.743203656005859	0.001197100830078125	-0.2507926239013672	3.88336181640625	-4.24957275390625	-2.0751953125	
249	0.996	0.0	0.0	0.0	0.0	4.587	4.635	4.6290000000000004	4.596	9.893439810180663	0.6308721374511719	0.1352723937988281	5.01251220703125	-5.47027587890625	-0.579833984375	9.752780462646484	0.31663316955566406	0.316034619140625	0.537872314453125	-5.084991455078125	-2.349853515625	9.947907897949218	0.2723404388427734	-0.0718260498046875	3.749847412109375	-4.787445068359375	-1.934051513671875	
250	1.0	0.0	0.0	0.0	0.0	4.596	4.632	4.635	4.578	9.990404977416992	0.28730419921875	-0.09756371765136718	4.055023193359375	-4.4403076171875	-0.675201416015625	10.111910711669921	0.29388825378417965	-0.09217676391601562	0.690460205078125	-5.069732666015625	-2.742767333984375	10.321403356933594	-0.40940848388671874	-0.5135562561035156	3.574371337890625	-4.611968994140625	-1.89971923828125	
251	1.004	0.0	0.0	0.0	0.0	4.596	4.635	4.638	4.563	9.9981861328125	0.5087678527832031	-0.08259995727539061	4.45556640625	-4.688262939453125	-0.75531005859375	9.770736975097655	0.3752911102294922	0.11372457885742186	-0.003814697265625	-4.924774169921875	-2.685546875	10.028712203979492	0.2657563842773437	-0.31184476623535157	3.66973876953125	-4.459381103515625	-2.25830078125	
252	1.008	0.0	0.0	0.0	0.0	4.587	4.635	4.635	4.572	9.778518130493163	0.843357534790039	0.022146365356445312	4.32586669921875	-4.604339599609375	-0.568389892578125	9.662399349975585	0.5895721588134766	0.21787235107421873	0.55694580078125	-4.726409912109375	-2.513885498046875	9.836577520751952	0.14006079711914063	-0.15562310791015624	3.772735595703125	-4.299163818359375	-1.857757568359375	
253	1.012	0.0	0.0	0.0	0.0	4.596	4.626	4.635	0.003	9.661202249145507	0.612915625	0.3178302703857422	3.696441650390625	-4.4097900390625	-0.9307861328125	9.917381826782226	0.3327940307617187	0.18136077575683593	-0.0457763671875	-5.031585693359375	-2.353668212890625	10.39322940673828	0.02454056701660156	-0.5003881469726562	3.68499755859375	-4.94384765625	-2.040863037109375	
254	1.016	0.0	0.0	0.0	0.0	0.003	0.003	0.003	0.006	10.008361489868163	0.4435258575439453	-0.26276363220214843	4.512786865234375	-4.41741943359375	-1.01470947265625	10.001178884887695	0.4584896179199218	-0.26336218261718747	0.579833984375	-4.41741943359375	-2.674102783203125	10.48301196899414	-0.15442600708007811	-0.7978677032470702	3.520965576171875	-4.7149658203125	-2.040863037109375	
255	1.02	0.0	0.0	0.0	0.0	0.003	0.003	0.003	0.003	9.490615380859374	0.6242880828857421	0.421978042602539	0.95367431640625	-2.536773681640625	-0.835418701171875	9.575609539794922	0.6015431671142578	0.26695348510742184	0.4425048828125	-4.878997802734375	-2.368927001953125	9.80605144958496	0.21607669982910155	-0.08858546142578125	3.53240966796875	-4.703521728515625	-2.3193359375	
256	1.024	0.0	0.0	0.0	0.0	0.006	0.006	0.003	0.003	9.84435867614746	0.24480711975097655	0.02633621826171875	2.90679931640625	-3.85284423828125	-0.423431396484375	9.888651406860351	0.49260699157714843	0.047884033203124995	0.732421875	-4.993438720703125	-2.788543701171875	10.245387454223632	0.02454056701660156	-0.37768531188964843	3.688812255859375	-4.955291748046875	-1.728057861328125	
257	1.028	0.0	0.0	0.0	0.0	0.003	0.003	0.003	0.003	9.688137017822266	0.3860650177001953	0.2501940734863281	1.651763916015625	-2.99072265625	-0.980377197265625	9.976638317871092	0.37828386230468747	0.07541735229492187	0.40435791015625	-5.237579345703125	-3.0975341796875	10.377068545532225	-0.13467384338378904	-0.32441432495117184	3.391265869140625	-4.67681884765625	-2.2735595703125	
258	1.032	0.0	0.0	0.0	0.0	0.006	0.003	0.003	0.006	9.779715231323241	0.6739677673339843	0.09576806640624999	-1.190185546875	-1.0833740234375	-1.026153564453125	9.815029705810547	0.5740098480224609	-0.051475335693359374	1.087188720703125	-4.955291748046875	-3.204345703125	10.04906291809082	0.20769699401855468	-0.49799394531249996	3.665924072265625	-4.8828125	-2.437591552734375	
259	1.036	0.0	0.0	0.0	0.0	0.006	0.003	0.003	0.003	9.473257418823241	0.4842272857666015	0.5692214447021484	-0.12969970703125	-1.979827880859375	-0.64849853515625	9.549273321533203	0.6344634399414062	0.39923312683105466	0.118255615234375	-5.096435546875	-2.96783447265625	9.830592016601562	0.1352723937988281	0.03411737365722656	3.543853759765625	-4.8675537109375	-1.995086669921875	
260	1.04	0.0	0.0	0.0	0.0	0.003	0.003	0.003	0.003	9.93354268798828	0.3860650177001953	0.029927520751953124	-1.64794921875	-0.9613037109375	-0.885009765625	10.101735354614258	0.229843359375	-0.12150573425292968	0.370025634765625	-4.81414794921875	-2.9449462890625	10.315417852783202	-0.01975216369628906	-0.5195417602539062	3.71551513671875	-5.035400390625	-1.995086669921875	
261	1.044	0.0	0.0	0.0	0.0	0.003	0.006	0.003	0.003	9.620500820922851	0.4950011932373047	0.29388825378417965	1.651763916015625	-2.902984619140625	-0.797271728515625	9.785102185058593	0.5895721588134766	0.08200140686035155	0.247955322265625	-4.764556884765625	-3.192901611328125	10.06163247680664	0.006584054565429687	-0.2316390106201172	3.570556640625	-4.276275634765625	-2.292633056640625	
262	1.048	0.0	0.0	0.0	0.0	0.009000000000000001	0.003	0.003	0.006	9.694122521972655	0.8667010009765624	0.25917232971191406	-1.094818115234375	-1.3275146484375	-0.705718994140625	9.504980590820312	0.3758896606445312	0.43993455505371093	0.0152587890625	-4.878997802734375	-2.811431884765625	9.781510882568359	0.2950853546142578	-0.2693476867675781	3.696441650390625	-4.970550537109375	-2.349853515625	
263	1.052	0.0	0.0	0.0	0.0	0.006	0.006	0.003	0.006	9.884461553955077	0.6673837127685547	0.012569558715820313	1.70135498046875	-3.231048583984375	-0.74005126953125	9.83178911743164	0.49200844116210934	0.15382745666503905	0.3204345703125	-4.802703857421875	-3.040313720703125	9.821613760375977	0.02693476867675781	-0.018555062866210937	3.681182861328125	-4.734039306640625	-2.0294189453125	
264	1.056	0.0	0.0	0.0	0.0	0.006	0.003	0.006	0.003	9.95987890625	0.6596025573730468	-0.07781155395507812	-0.26702880859375	-1.567840576171875	-1.220703125	9.935936889648437	0.1580173095703125	0.08858546142578125	-0.118255615234375	-5.046844482421875	-3.063201904296875	10.226832391357421	-0.01915361328125	-0.5542576843261718	3.620147705078125	-4.810333251953125	-2.223968505859375	
265	1.06	0.0	0.0	0.0	0.0	0.003	0.003	0.003	0.006	9.85692823486328	0.8948328704833984	-0.061650692749023434	2.750396728515625	-3.59344482421875	-0.7781982421875	9.534908111572266	0.4848258361816406	0.20649989318847656	0.23651123046875	-4.69970703125	-3.139495849609375	9.603142858886718	0.16759411621093748	0.02454056701660156	3.4637451171875	-4.3487548828125	-2.178192138671875	
266	1.064	0.0	0.0	0.0	0.0	0.006	0.003	0.003	0.006	9.9078050201416	0.9971849914550781	-0.1753752716064453	6.908416748046875	-6.85882568359375	-0.7171630859375	9.715670336914062	0.36631285400390623	0.3016694091796875	-0.209808349609375	-4.89044189453125	-2.651214599609375	9.644442837524414	0.04129997863769531	-0.03950432739257812	3.66973876953125	-4.695892333984375	-2.0751953125	
267	1.068	0.0	0.0	0.0	0.0	0.006	0.003	0.003	0.006	10.144232434082031	0.7320271575927734	-0.34057518615722654	4.52423095703125	-4.688262939453125	-0.942230224609375	9.886855755615233	0.19871873779296872	-0.04189852905273437	-0.0457763671875	-4.608154296875	-2.74658203125	9.98501802368164	-0.047884033203124995	-0.13946224670410157	3.82232666015625	-4.817962646484375	-2.25830078125	
268	1.072	0.0	0.0	0.0	0.0	0.003	0.003	0.006	0.003	10.026318002319336	0.7176619476318359	-0.33698388366699217	7.476806640625	-6.5155029296875	-0.782012939453125	9.78031378173828	0.29269115295410153	-0.14604630126953125	0.3814697265625	-5.06591796875	-2.758026123046875	9.779715231323241	-0.12330138549804687	-0.17238251953125	3.8604736328125	-4.405975341796875	-2.5177001953125	
269	1.076	0.0	0.0	0.0	0.0	0.003	0.003	0.003	0.006	9.962273107910155	0.9522937103271484	-0.08738836059570312	5.06591796875	-5.48553466796875	-0.49591064453125	9.509768994140625	0.4638765716552734	0.25139117431640623	-0.0457763671875	-4.82940673828125	-2.86102294921875	9.777919580078125	0.32142157287597656	-0.14185644836425781	3.45611572265625	-4.238128662109375	-1.8157958984375	
270	1.08	0.0	0.0	0.0	0.0	0.006	0.006	0.003	0.006	10.060435375976562	0.7266402038574218	-0.18315642700195311	8.6669921875	-7.564544677734375	-0.25177001953125	9.7928833404541	0.1945288848876953	0.047285482788085934	0.553131103515625	-5.126953125	-2.758026123046875	9.922768780517577	-0.2699462371826172	-0.08080430603027343	3.818511962890625	-4.795074462890625	-2.2430419921875	
271	1.084	0.0	0.0	0.0	0.0	0.006	0.003	0.003	0.003	9.968258612060547	0.13946224670410157	-0.06464344482421874	4.863739013671875	-5.21087646484375	-0.8544921875	9.733626849365233	0.3591302490234375	0.02633621826171875	0.91552734375	-4.589080810546875	-3.108978271484375	10.159196194458007	0.05327098693847656	-0.25737667846679685	3.7994384765625	-4.2877197265625	-2.422332763671875	
272	1.088	0.0	0.0	0.0	0.0	0.006	0.006	0.006	0.003	9.815628256225585	0.5674257934570313	0.07422025146484375	6.24847412109375	-6.237030029296875	-0.701904296875	9.560047229003906	0.3477577911376953	0.17298106994628906	0.34332275390625	-4.84466552734375	-2.796173095703125	9.591171850585937	-0.03232172241210937	-0.0047884033203125	3.620147705078125	-4.8370361328125	-1.811981201171875	
273	1.092	0.0	0.0	0.0	0.0	0.0	0.003	0.003	0.003	9.72345149230957	0.2759317413330078	0.2867056488037109	2.849578857421875	-4.0283203125	-0.54168701171875	9.795876092529296	0.5231330627441406	0.23044190979003906	1.0986328125	-4.90570068359375	-2.811431884765625	9.99220062866211	0.2711433380126953	-0.13347674255371092	3.505706787109375	-4.383087158203125	-2.155303955078125	
274	1.096	0.0	0.0	0.0	0.0	0.009000000000000001	0.003	0.003	0.006	10.014346994018554	0.23582886352539062	-0.001197100830078125	0.858306884765625	-2.2125244140625	-0.81634521484375	9.86291373901367	0.1406593475341797	0.11851298217773437	0.255584716796875	-4.970550537109375	-3.147125244140625	10.398017810058594	-0.35314474487304687	-0.33698388366699217	3.73077392578125	-4.81414794921875	-2.0294189453125	
275	1.1	0.0	0.0	0.0	0.0	0.003	0.003	0.006	0.0	9.721057290649414	0.4991910461425781	0.2932897033691406	2.124786376953125	-2.95257568359375	-0.820159912109375	9.769539874267577	0.5781997009277343	0.19512743530273435	0.659942626953125	-4.55474853515625	-3.040313720703125	9.917980377197265	0.2747346405029297	-0.16460136413574217	3.51715087890625	-4.46319580078125	-2.422332763671875	
276	1.104	0.0	0.0	0.0	0.0	0.003	0.003	0.003	0.006	9.66000514831543	0.5476736297607422	0.4321533996582031	1.01470947265625	-2.66265869140625	-0.812530517578125	9.712079034423828	0.3130418670654297	0.5315127685546874	0.05340576171875	-4.9285888671875	-2.471923828125	9.92755718383789	0.029927520751953124	-0.08559270935058594	3.4942626953125	-4.66156005859375	-1.438140869140625	
277	1.108	0.0	0.0	0.0	0.0	0.006	0.003	0.006	0.003	9.96586441040039	0.29568390502929687	-0.0143652099609375	2.841949462890625	-3.70025634765625	-0.621795654296875	10.036493359375	0.3076549133300781	0.06344634399414062	0.70953369140625	-4.871368408203125	-2.67791748046875	10.439916339111328	-0.1304839904785156	-0.6548141540527344	3.7689208984375	-4.53948974609375	-2.040863037109375	
278	1.112	0.0	0.0	0.0	0.0	0.003	0.003	0.003	0.009000000000000001	9.773729727172851	0.6607996582031249	0.2861070983886719	4.12750244140625	-4.46319580078125	-0.8544921875	9.861716638183593	0.2765302917480469	0.33698388366699217	-0.225067138671875	-4.741668701171875	-2.7923583984375	10.092158547973632	-0.076614453125	-0.1227028350830078	3.47137451171875	-4.5166015625	-1.811981201171875	
279	1.116	0.0	0.0	0.0	0.0	0.003	0.003	0.003	0.006	9.701305126953125	0.6087257720947266	0.23223756103515625	0.396728515625	-2.25067138671875	-1.018524169921875	9.70968483276367	0.6105214233398437	0.14425065002441406	0.79345703125	-4.932403564453125	-2.61688232421875	9.94072529296875	0.0718260498046875	-0.27952304382324217	3.665924072265625	-4.467010498046875	-2.140045166015625	
280	1.12	0.0	0.0	0.0	0.0	0.003	0.003	0.006	0.006	9.67137760620117	0.5877765075683593	0.5165490081787109	4.852294921875	-4.787445068359375	-0.701904296875	9.889249957275391	0.30885201416015623	0.3848679168701172	0.362396240234375	-5.344390869140625	-2.536773681640625	10.031704956054687	0.31004911499023435	-0.086191259765625	3.4942626953125	-4.825592041015625	-1.953125	
281	1.124	0.0	0.0	0.0	0.0	0.009000000000000001	0.003	0.003	0.006	9.822212310791015	0.3268085266113281	0.2316390106201172	-0.980377197265625	-1.2969970703125	-1.22833251953125	10.027515103149414	0.39923312683105466	-0.028730419921875	0.8087158203125	-4.749298095703125	-3.017425537109375	10.40699606628418	-0.27832594299316404	-0.46627077331542965	3.665924072265625	-4.329681396484375	-2.35748291015625	
282	1.1280000000000001	0.0	0.0	0.0	0.0	0.006	0.006	0.003	0.003	9.49300958251953	0.7056909393310546	0.6829460235595702	2.4871826171875	-3.261566162109375	-0.67901611328125	9.571419686889648	0.5698199951171875	0.48063598327636714	-0.133514404296875	-4.6844482421875	-2.880096435546875	9.890447058105469	0.3950432739257812	-0.05386953735351562	3.70025634765625	-4.49371337890625	-2.140045166015625	
283	1.1320000000000001	0.0	0.0	0.0	0.0	0.003	0.003	0.006	0.003	9.699509475708007	0.7278373046875	0.36571430358886714	-1.422882080078125	-1.38092041015625	-0.888824462890625	9.879673150634765	0.59376201171875	0.05686228942871093	1.110076904296875	-4.901885986328125	-2.8076171875	10.224438189697265	-0.09457096557617187	-0.39743747558593745	3.50189208984375	-4.95147705078125	-1.842498779296875	
284	1.1360000000000001	0.0	0.0	0.0	0.0	0.003	0.003	0.003	0.006	9.993996279907225	0.489015689086914	-0.11073182678222655	0.3509521484375	-2.50244140625	-1.224517822265625	9.82460651245117	0.3130418670654297	0.3597287994384765	-0.186920166015625	-4.8370361328125	-2.777099609375	10.242394702148436	0.12090718383789062	-0.19632453613281248	3.5858154296875	-4.802703857421875	-2.25067138671875	
285	1.1400000000000001	0.0	0.0	0.0	0.0	0.003	0.006	0.003	0.003	9.815029705810547	0.5309142181396485	0.17417817077636719	-2.132415771484375	-0.423431396484375	-1.07574462890625	9.85692823486328	0.3962403747558593	0.0652419952392578	0.080108642578125	-4.730224609375	-3.204345703125	10.043675964355469	-0.07122749938964844	-0.33399113159179683	3.7384033203125	-4.726409912109375	-2.170562744140625	
286	1.1440000000000001	0.0	0.0	0.0	0.0	0.003	0.003	2.166	4.563	9.840767373657226	0.7236474517822266	0.15203180541992187	0.5340576171875	-2.315521240234375	-0.885009765625	9.527725506591796	0.5566518859863281	0.5045779998779296	-0.31280517578125	-4.82940673828125	-2.73895263671875	9.83777462158203	0.39803602600097654	-0.03950432739257812	3.57818603515625	-4.833221435546875	-2.2735595703125	
287	1.1480000000000001	0.0	0.0	0.0	0.0	4.59	4.617	4.632	4.587	9.90840357055664	0.4531026641845703	0.11133037719726561	4.634857177734375	-5.035400390625	-0.804901123046875	9.903016616821288	0.3477577911376953	0.08738836059570312	0.38909912109375	-4.96673583984375	-2.750396728515625	10.219051235961913	-0.10893617553710937	-0.39983167724609375	3.53240966796875	-4.955291748046875	-2.00653076171875	
288	1.1520000000000001	0.0	0.0	0.0	0.0	4.596	4.635	4.638	4.587	9.979631069946288	0.7433996154785156	-0.047285482788085934	2.044677734375	-2.819061279296875	-1.2359619140625	9.728838446044922	0.28790274963378903	0.23343466186523437	-0.034332275390625	-4.47845458984375	-3.25775146484375	9.920374578857421	-0.09337386474609374	-0.07003039855957031	3.917694091796875	-4.29534912109375	-2.73895263671875	
289	1.156	0.0	0.0	0.0	0.0	4.5840000000000005	4.632	4.635	4.593	9.848548529052733	0.8966285217285156	0.020949264526367185	3.1585693359375	-3.932952880859375	-0.86212158203125	9.666589202880859	0.5716156463623047	0.16519991455078123	0.293731689453125	-4.76837158203125	-2.773284912109375	9.866505041503906	0.1849520782470703	-0.3076549133300781	3.62396240234375	-4.848480224609375	-1.873016357421875	
290	1.16	0.0	0.0	0.0	0.0	4.581	4.635	4.6290000000000004	4.593	9.89583401184082	0.3812766143798828	0.029927520751953124	0.46539306640625	-2.338409423828125	-0.7171630859375	9.583989245605467	0.3956418243408203	0.37229835815429685	0.133514404296875	-4.8828125	-3.02886962890625	9.704896429443359	0.006584054565429687	0.10354922180175781	4.039764404296875	-4.543304443359375	-2.40325927734375	
291	1.164	0.0	0.0	0.0	0.0	4.593	4.635	4.635	4.572	10.01015714111328	0.7673416320800781	-0.105344873046875	2.75421142578125	-3.925323486328125	-0.751495361328125	9.994594830322265	0.25318682556152344	-0.06823474731445311	0.45013427734375	-5.008697509765625	-2.76947021484375	10.075997686767577	0.06823474731445311	-0.13168109130859373	3.65447998046875	-4.703521728515625	-2.124786376953125	
292	1.168	0.0	0.0	0.0	0.0	4.596	4.635	4.635	4.563	9.909600671386718	0.8319850769042968	0.05686228942871093	6.103515625	-5.252838134765625	-0.759124755859375	9.560645779418945	0.5787982513427734	0.2609679809570312	0.06866455078125	-4.730224609375	-3.27301025390625	9.590573300170897	0.008978256225585938	0.10654197387695312	3.997802734375	-4.421234130859375	-2.796173095703125	
293	1.172	0.0	0.0	0.0	0.0	4.596	4.632	4.635	4.581	9.834183319091796	0.9175777862548827	0.04548983154296875	2.95257568359375	-3.993988037109375	-0.637054443359375	9.636063131713867	0.33578678283691404	0.24061726684570311	0.5645751953125	-5.10406494140625	-2.38037109375	9.676764559936522	0.41539398803710936	0.028131869506835935	3.60870361328125	-4.4708251953125	-2.00653076171875	
294	1.176	0.0	0.0	0.0	0.0	4.593	4.638	4.638	4.5840000000000005	9.98501802368164	0.4333505004882812	0.0	5.107879638671875	-4.863739013671875	-0.576019287109375	9.775525378417969	0.4734533782958984	0.22445640563964842	0.530242919921875	-5.035400390625	-2.960205078125	10.001777435302733	-0.2771288421630859	-0.36152445068359373	3.65447998046875	-4.520416259765625	-2.22015380859375	
295	1.18	0.0	0.0	0.0	0.0	4.596	4.635	0.003	0.003	9.963470208740233	0.7332242584228515	-0.14006079711914063	2.834320068359375	-3.749847412109375	-0.782012939453125	9.772532626342773	0.16639701538085935	0.09696516723632811	0.446319580078125	-4.772186279296875	-2.849578857421875	9.849745629882811	0.1945288848876953	-0.09995791931152344	3.814697265625	-4.40216064453125	-2.384185791015625	
296	1.184	0.0	0.0	0.0	0.0	0.003	0.006	0.003	0.003	9.855731134033203	0.9708487731933593	0.09935936889648436	5.756378173828125	-5.218505859375	-0.568389892578125	9.627084875488281	0.5853823059082031	0.19393033447265623	0.03814697265625	-4.41741943359375	-2.9754638671875	9.808445651245117	-0.029328970336914062	-0.24061726684570311	3.62396240234375	-4.29534912109375	-2.239227294921875	
297	1.188	0.0	0.0	0.0	0.0	0.003	0.003	0.003	0.003	9.997587582397461	0.5183446594238281	-0.11133037719726561	5.67626953125	-5.825042724609375	-0.843048095703125	9.874286196899414	0.16998831787109375	0.06943184814453125	0.263214111328125	-4.985809326171875	-2.536773681640625	9.935936889648437	0.105344873046875	-0.1370680450439453	3.65447998046875	-4.604339599609375	-2.117156982421875	
298	1.192	0.0	0.0	0.0	0.0	0.003	0.006	0.006	0.003	10.08677159423828	0.6697779144287109	-0.23642741394042968	6.290435791015625	-5.596160888671875	-0.865936279296875	9.922768780517577	0.34237083740234375	-0.029927520751953124	0.171661376953125	-4.566192626953125	-2.796173095703125	10.151415039062499	-0.20530279235839843	-0.43454760131835934	3.711700439453125	-4.100799560546875	-2.094268798828125	
299	1.196	0.0	0.0	0.0	0.0	0.006	0.003	0.003	0.003	9.911994873046874	0.47704468078613277	-0.03651157531738281	5.725860595703125	-5.71441650390625	-0.545501708984375	9.76235726928711	0.411802685546875	0.10714052429199218	-0.064849853515625	-4.589080810546875	-2.35748291015625	10.002974536132811	0.15322890625	-0.4447229583740234	3.948211669921875	-4.94384765625	-2.239227294921875	
300	1.2	0.0	0.0	0.0	0.0	0.012	0.003	0.006	0.006	9.98501802368164	0.7410054138183594	-0.1592144104003906	2.445220947265625	-3.4942626953125	-0.812530517578125	9.797073193359374	0.3716998077392578	0.0143652099609375	0.52642822265625	-4.825592041015625	-2.643585205078125	9.958681805419921	0.031124621582031248	-0.2645592834472656	3.711700439453125	-4.43267822265625	-1.956939697265625	
301	1.204	0.0	0.0	0.0	0.0	0.006	0.003	0.003	0.006	9.93354268798828	0.3459621398925781	-0.017357962036132813	5.82122802734375	-5.37872314453125	-0.9002685546875	9.945513696289062	0.3363853332519531	0.031124621582031248	0.263214111328125	-4.909515380859375	-2.490997314453125	10.242394702148436	-0.09696516723632811	-0.3956418243408203	3.570556640625	-4.730224609375	-1.86920166015625	
302	1.208	0.0	0.0	0.0	0.0	0.006	0.003	0.003	0.003	9.814431155395507	0.25258827514648435	-0.13347674255371092	1.12152099609375	-2.50244140625	-0.949859619140625	9.885658654785155	0.39444472351074217	-0.10714052429199218	0.9613037109375	-4.84466552734375	-2.758026123046875	10.241796151733398	0.09935936889648436	-0.6416460449218749	3.72314453125	-4.3792724609375	-2.105712890625	
303	1.212	0.0	0.0	0.0	0.0	0.009000000000000001	0.003	0.006	0.003	9.77432827758789	0.3172317199707031	0.14544775085449219	4.08935546875	-4.833221435546875	-0.736236572265625	9.73602105102539	0.5003881469726562	0.12808978881835936	0.25177001953125	-4.974365234375	-2.50244140625	9.94072529296875	0.08140285644531249	-0.2759317413330078	3.635406494140625	-4.726409912109375	-1.89208984375	
304	1.216	0.0	0.0	0.0	0.0	0.003	0.006	0.006	0.003	9.846154327392577	0.12689268798828124	-0.06105214233398437	0.0457763671875	-2.1209716796875	-0.797271728515625	9.95389340209961	0.3429693878173828	-0.08319850769042968	0.675201416015625	-4.863739013671875	-2.964019775390625	10.31062944946289	0.07362170104980469	-0.6093243225097655	3.810882568359375	-4.58526611328125	-2.03704833984375	
305	1.22	0.0	0.0	0.0	0.0	0.003	0.003	0.003	0.003	9.64025298461914	0.5805939025878906	0.29867665710449215	-0.93841552734375	-1.102447509765625	-1.0833740234375	9.76894132385254	0.5452794281005859	0.19692308654785154	0.2593994140625	-4.6539306640625	-2.98309326171875	10.244788903808594	-0.08379705810546874	-0.3764882110595703	3.82232666015625	-4.05120849609375	-1.983642578125	
306	1.224	0.0	0.0	0.0	0.0	0.003	0.003	0.003	0.003	9.648632690429688	0.34656069030761716	0.18614917907714842	-0.54168701171875	-1.659393310546875	-1.02996826171875	9.759963067626952	0.6200982299804687	-0.008978256225585938	1.087188720703125	-5.229949951171875	-3.23486328125	10.137648379516602	0.20949264526367187	-0.5889736083984375	3.513336181640625	-4.608154296875	-2.109527587890625	
