	time	dac1	dac2	dac3	dac4	adc1.3	adc2.3	adc3.3	adc4.3	imu1accx	imu1accy	imu1accz	imu1gyrox	imu1gyroy	imu1gyroz	imu2accx	imu2accy	imu2accz	imu2gyrox	imu2gyroy	imu2gyroz	imu3accx	imu3accy	imu3accz	imu3gyrox	imu3gyroy	imu3gyroz	log
0	0.0	0.0	0.0	0.0	0.0	0.006	0.003	0.003	0.003	9.859920986938477	-0.06464344482421874	0.052073886108398436	2.777099609375	-3.4332275390625	-0.873565673828125	9.785102185058593	0.4542997650146484	0.14305354919433594	0.34332275390625	-5.05828857421875	-2.8228759765625	10.002974536132811	0.08678981018066406	-0.23882161560058593	3.810882568359375	-4.421234130859375	-2.0904541015625	Estabilizou em 8s, 1551 rpm
1	0.004	0.0	0.0	0.0	0.0	0.003	0.006	0.006	0.006	9.865307940673828	-0.07481880187988281	0.06284779357910156	2.483367919921875	-3.604888916015625	-0.92315673828125	9.782707983398437	0.46507367248535153	0.14784195251464843	0.61798095703125	-4.886627197265625	-2.872467041015625	10.000580334472655	0.08439560852050781	-0.23044190979003906	3.673553466796875	-4.82177734375	-1.97601318359375	Started
2	0.008	0.0	0.0	0.0	0.0	0.003	0.003	0.003	0.003	9.87009634399414	-0.07122749938964844	0.06404489440917968	2.681732177734375	-3.60870361328125	-0.762939453125	9.783905084228515	0.4608838195800781	0.15682020874023436	0.40435791015625	-4.764556884765625	-2.979278564453125	9.9981861328125	0.08439560852050781	-0.23343466186523437	3.85284423828125	-4.6539306640625	-2.109527587890625	IMU1|LSM6DS3|0x6A|I2C-1|±2g (±19,6m/s²)|±125º/s|400Hz
3	0.012	0.0	0.0	0.0	0.0	0.006	0.003	0.003	0.003	9.868899243164062	-0.07900865478515624	0.08918401184082031	2.57110595703125	-3.673553466796875	-0.850677490234375	9.781510882568359	0.4578910675048828	0.15741875915527342	0.14495849609375	-4.67681884765625	-2.765655517578125	10.011354241943359	0.07900865478515624	-0.22744915771484372	3.559112548828125	-4.489898681640625	-1.86920166015625	IMU2|LSM6DS3|0x6B|I2C-1|±2g (±19,6m/s²)|±125º/s|400Hz
4	0.016	0.0	0.0	0.0	0.0	0.003	0.003	0.003	0.003	9.866505041503906	-0.08738836059570312	0.09756371765136718	2.72369384765625	-3.54766845703125	-0.843048095703125	9.783905084228515	0.45549686584472654	0.1753752716064453	0.42724609375	-4.779815673828125	-3.01361083984375	10.008960040283203	0.07541735229492187	-0.2088940948486328	3.665924072265625	-4.41741943359375	-2.197265625	IMU3|LSM6DS3|0x6B|I2C-2|±2g (±19,6m/s²)|±125º/s|400Hz
5	0.02	0.0	0.0	0.0	0.0	0.009000000000000001	0.006	0.006	0.006	9.87069489440918	-0.09337386474609374	0.09576806640624999	2.67791748046875	-3.63922119140625	-0.90789794921875	9.78629928588867	0.4483142608642578	0.1801636749267578	0.179290771484375	-4.909515380859375	-2.964019775390625	9.996989031982421	0.06883329772949218	-0.21248539733886718	3.551483154296875	-4.5013427734375	-2.147674560546875	ADC|ADS1015|0|0|1|0|±6,144 V|2400 SPS
6	0.024	0.0	0.0	0.0	0.0	0.003	0.006	0.003	0.006	9.862315188598632	-0.10175357055664062	0.0987608184814453	2.635955810546875	-3.65447998046875	-0.75531005859375	9.785102185058593	0.4435258575439453	0.19213468322753904	0.270843505859375	-4.848480224609375	-2.933502197265625	9.997587582397461	0.07062894897460938	-0.20769699401855468	3.719329833984375	-4.802703857421875	-2.20489501953125	Gen1|Disabled
7	0.028	0.0	0.0	0.0	0.0	0.003	0.006	0.003	0.006	9.853336932373047	-0.1083376251220703	0.11133037719726561	2.78472900390625	-3.559112548828125	-1.018524169921875	9.776123928833007	0.43035774841308594	0.20290859069824219	0.148773193359375	-4.817962646484375	-2.719879150390625	10.005368737792969	0.055066638183593745	-0.20231004028320312	3.688812255859375	-4.543304443359375	-2.147674560546875	Gen2|Enabled|Noise|0.0|10.0|1668
8	0.032	0.0	0.0	0.0	0.0	0.006	0.003	0.003	0.006	9.85692823486328	-0.11372457885742186	0.1197100830078125	2.368927001953125	-3.459930419921875	-0.81634521484375	9.783905084228515	0.41838674011230464	0.20769699401855468	0.423431396484375	-4.96673583984375	-2.87628173828125	10.001777435302733	0.044891281127929686	-0.19572598571777342	3.582000732421875	-4.5623779296875	-2.40325927734375	Gen3|Enabled|Noise|0.0|10.0|128
9	0.036000000000000004	0.0	0.0	0.0	0.0	0.003	0.003	0.003	0.006	9.867702142333984	-0.1227028350830078	0.1292868896484375	2.620697021484375	-3.68499755859375	-0.896453857421875	9.783905084228515	0.4100070343017578	0.2059013427734375	0.2288818359375	-5.06591796875	-2.864837646484375	10.008361489868163	0.027533319091796873	-0.17776947326660156	3.566741943359375	-4.566192626953125	-2.105712890625	Gen4|Enabled|Noise|0.0|10.0|128
10	0.04	0.0	0.0	0.0	0.0	0.003	0.006	0.003	0.003	9.873089096069336	-0.14185644836425781	0.1292868896484375	2.422332763671875	-3.643035888671875	-0.8392333984375	9.787496386718749	0.3920505218505859	0.21607669982910155	0.247955322265625	-5.092620849609375	-3.032684326171875	10.007762939453125	0.02154781494140625	-0.18914193115234373	3.780364990234375	-4.512786865234375	-2.002716064453125	Ctrl|Disabled
11	0.044	0.0	0.0	0.0	0.0	0.003	0.006	0.003	0.003	9.874884747314452	-0.15023615417480468	0.1274912384033203	2.49481201171875	-3.688812255859375	-0.946044921875	9.788693487548828	0.37229835815429685	0.21906945190429686	0.34332275390625	-4.886627197265625	-2.819061279296875	10.001178884887695	0.015562310791015624	-0.17417817077636719	3.711700439453125	-4.611968994140625	-2.05230712890625	
12	0.048	0.0	0.0	0.0	0.0	0.003	0.003	0.003	0.006	9.873687646484374	-0.1562216583251953	0.1304839904785156	2.719879150390625	-3.688812255859375	-0.77056884765625	9.783905084228515	0.3651157531738281	0.21188684692382811	0.431060791015625	-4.901885986328125	-2.95257568359375	9.9981861328125	0.008978256225585938	-0.1771709228515625	3.79180908203125	-4.75311279296875	-1.972198486328125	
13	0.052000000000000005	0.0	0.0	0.0	0.0	0.003	0.003	0.006	0.003	9.860519537353515	-0.15861585998535155	0.13287819213867186	2.590179443359375	-3.627777099609375	-0.83160400390625	9.78689783630371	0.3603273498535156	0.21727380065917967	0.31280517578125	-4.95147705078125	-2.75421142578125	9.9981861328125	-0.016160861206054686	-0.17836802368164062	3.536224365234375	-4.6234130859375	-2.368927001953125	
14	0.056	0.0	0.0	0.0	0.0	0.006	0.003	0.006	0.003	9.868899243164062	-0.17298106994628906	0.12389993591308593	2.658843994140625	-3.47137451171875	-0.84686279296875	9.791686239624022	0.3591302490234375	0.20470424194335937	0.278472900390625	-4.81414794921875	-2.93731689453125	10.004770187377929	-0.018555062866210937	-0.1753752716064453	3.92913818359375	-4.863739013671875	-2.105712890625	
15	0.06	0.0	0.0	0.0	0.0	0.003	0.003	0.003	0.0	9.87009634399414	-0.18076222534179687	0.12509703674316405	2.74658203125	-3.582000732421875	-0.8544921875	9.787496386718749	0.3459621398925781	0.19093758239746092	0.4119873046875	-5.10406494140625	-2.99072265625	10.014945544433592	-0.02154781494140625	-0.18614917907714842	3.53240966796875	-4.425048828125	-1.850128173828125	
16	0.064	0.0	0.0	0.0	0.0	0.003	0.003	0.003	0.003	9.861716638183593	-0.1849520782470703	0.10953472595214843	2.63214111328125	-3.414154052734375	-0.736236572265625	9.782707983398437	0.34656069030761716	0.20470424194335937	0.152587890625	-4.909515380859375	-2.918243408203125	10.00417163696289	-0.02454056701660156	-0.19692308654785154	3.566741943359375	-4.669189453125	-2.124786376953125	
17	0.068	0.0	0.0	0.0	0.0	0.0	0.003	0.003	0.003	9.860519537353515	-0.19093758239746092	0.0987608184814453	2.532958984375	-3.711700439453125	-1.056671142578125	9.788693487548828	0.35194764404296874	0.19033903198242186	0.14495849609375	-5.06591796875	-3.04412841796875	9.995791931152343	-0.025139117431640625	-0.19632453613281248	3.4332275390625	-4.436492919921875	-2.109527587890625	
18	0.07200000000000001	0.0	0.0	0.0	0.0	0.0	0.006	0.003	0.003	9.861716638183593	-0.18555062866210936	0.0909796630859375	2.471923828125	-3.383636474609375	-0.789642333984375	9.785102185058593	0.3381809844970703	0.17956512451171874	0.072479248046875	-5.153656005859375	-2.86865234375	10.003573086547851	-0.02454056701660156	-0.19093758239746092	3.80706787109375	-4.73785400390625	-1.983642578125	
19	0.076	0.0	0.0	0.0	0.0	0.003	0.003	0.006	0.0	9.860519537353515	-0.18614917907714842	0.08798691101074219	2.6702880859375	-3.570556640625	-0.9002685546875	9.785102185058593	0.3399766357421875	0.17357962036132812	0.335693359375	-4.95147705078125	-2.941131591796875	10.005368737792969	-0.023343466186523436	-0.22266075439453123	3.56292724609375	-4.367828369140625	-2.03704833984375	
20	0.08	0.0	0.0	0.0	0.0	0.003	0.006	0.003	0.006	9.85692823486328	-0.181959326171875	0.07721300354003906	2.6397705078125	-3.704071044921875	-0.92315673828125	9.784503634643555	0.3507505432128906	0.16699556579589842	0.141143798828125	-4.802703857421875	-2.857208251953125	10.015544094848632	-0.02154781494140625	-0.22266075439453123	3.742218017578125	-4.650115966796875	-1.995086669921875	
21	0.084	0.0	0.0	0.0	0.0	0.003	0.006	0.003	0.006	9.873089096069336	-0.17776947326660156	0.07362170104980469	2.727508544921875	-3.753662109375	-0.98419189453125	9.78629928588867	0.354940396118164	0.15263035583496093	0.469207763671875	-5.084991455078125	-2.887725830078125	10.015544094848632	-0.018555062866210937	-0.2424129180908203	3.997802734375	-4.787445068359375	-2.063751220703125	
22	0.088	0.0	0.0	0.0	0.0	0.006	0.003	0.006	0.009000000000000001	9.868899243164062	-0.16759411621093748	0.062249243164062495	2.52532958984375	-3.44085693359375	-0.9765625	9.788693487548828	0.3633201019287109	0.14724340209960937	0.57220458984375	-4.848480224609375	-2.750396728515625	10.005967288208007	-0.0005985504150390625	-0.24839842224121092	3.7384033203125	-4.711151123046875	-2.223968505859375	
23	0.092	0.0	0.0	0.0	0.0	0.006	0.003	0.003	0.003	9.861118087768554	-0.16280571289062498	0.04129997863769531	2.47955322265625	-3.894805908203125	-0.7476806640625	9.79408044128418	0.3705027069091797	0.1274912384033203	0.545501708984375	-5.14984130859375	-2.87628173828125	10.016142645263672	0.0	-0.2472013214111328	3.711700439453125	-4.70733642578125	-2.056121826171875	
24	0.096	0.0	0.0	0.0	0.0	0.009000000000000001	0.003	0.003	0.006	9.862315188598632	-0.15562310791015624	0.044292730712890624	2.64739990234375	-3.48663330078125	-0.96893310546875	9.789890588378906	0.38187516479492184	0.13407529296874998	0.29754638671875	-4.764556884765625	-2.9144287109375	10.006565838623047	0.0053869537353515625	-0.2501940734863281	3.765106201171875	-4.451751708984375	-2.193450927734375	
25	0.1	0.0	0.0	0.0	0.0	-0.003	0.006	0.003	0.003	9.86291373901367	-0.14604630126953125	0.0383072265625	2.63214111328125	-3.56292724609375	-0.732421875	9.789890588378906	0.3860650177001953	0.11911153259277343	0.408172607421875	-4.96673583984375	-2.86102294921875	10.00417163696289	0.009576806640625	-0.25737667846679685	3.604888916015625	-4.63104248046875	-2.025604248046875	
26	0.10400000000000001	0.0	0.0	0.0	0.0	0.006	0.006	0.003	0.0	9.868899243164062	-0.13347674255371092	0.029328970336914062	2.61688232421875	-3.68499755859375	-0.873565673828125	9.788693487548828	0.3890577697753906	0.1131260284423828	0.308990478515625	-4.741668701171875	-2.86102294921875	10.011354241943359	0.013168109130859374	-0.2759317413330078	3.940582275390625	-4.669189453125	-2.521514892578125	
27	0.108	0.0	0.0	0.0	0.0	0.006	0.006	0.003	0.009000000000000001	9.871293444824218	-0.13168109130859373	0.032920272827148434	2.513885498046875	-3.551483154296875	-0.804901123046875	9.785102185058593	0.39803602600097654	0.10773907470703124	0.476837158203125	-5.02777099609375	-2.90679931640625	10.007762939453125	0.017956512451171875	-0.27293898925781246	3.520965576171875	-4.58526611328125	-2.254486083984375	
28	0.112	0.0	0.0	0.0	0.0	0.0	0.003	0.003	0.003	9.868899243164062	-0.12030863342285156	0.02633621826171875	2.5787353515625	-3.658294677734375	-0.843048095703125	9.784503634643555	0.40462008056640625	0.11611878051757812	0.316619873046875	-4.974365234375	-2.95257568359375	10.012551342773437	0.030526071166992186	-0.2645592834472656	3.5247802734375	-4.581451416015625	-2.201080322265625	
29	0.116	0.0	0.0	0.0	0.0	0.003	0.003	0.003	0.006	9.883264453125	-0.1227028350830078	0.014963760375976562	2.84576416015625	-3.7078857421875	-0.93841552734375	9.785102185058593	0.41958384094238277	0.11073182678222655	0.354766845703125	-4.852294921875	-2.99835205078125	10.011354241943359	0.040102877807617184	-0.2699462371826172	3.780364990234375	-4.40216064453125	-2.147674560546875	
30	0.12	0.0	0.0	0.0	0.0	0.003	0.003	0.003	0.003	9.865307940673828	-0.09277531433105468	0.015562310791015624	2.8076171875	-3.955841064453125	-0.86212158203125	9.801861596679688	0.41539398803710936	0.11192892761230468	-0.102996826171875	-4.955291748046875	-3.082275390625	10.022128149414062	0.025737667846679687	-0.29269115295410153	3.6163330078125	-4.5623779296875	-2.1209716796875	
31	0.124	0.0	0.0	0.0	0.0	0.009000000000000001	0.003	0.006	0.006	9.882067352294921	-0.04189852905273437	0.014963760375976562	2.49481201171875	-3.79180908203125	-0.87738037109375	9.770736975097655	0.5009866973876953	0.12449848632812499	0.396728515625	-4.993438720703125	-3.02886962890625	9.984419473266602	0.14484920043945312	-0.25318682556152344	3.57818603515625	-4.680633544921875	-2.15911865234375	
32	0.128	0.0	0.0	0.0	0.0	0.006	0.003	0.003	0.003	9.87668039855957	-0.09516951599121093	0.014963760375976562	2.986907958984375	-3.978729248046875	-0.8392333984375	9.773131176757811	0.37409400939941406	0.09217676391601562	0.217437744140625	-5.069732666015625	-2.777099609375	10.025719451904296	-0.04548983154296875	-0.29448680419921874	3.528594970703125	-4.657745361328125	-2.132415771484375	
33	0.132	0.0	0.0	0.0	0.0	0.003	0.006	0.003	0.0	9.871293444824218	-0.07362170104980469	0.0526724365234375	2.62451171875	-3.498077392578125	-0.942230224609375	9.789890588378906	0.5033808990478515	0.1274912384033203	0.476837158203125	-4.72259521484375	-2.902984619140625	9.988609326171874	0.12090718383789062	-0.22445640563964842	3.5858154296875	-4.604339599609375	-2.44903564453125	
34	0.136	0.0	0.0	0.0	0.0	0.006	0.003	0.003	0.006	9.886257205200195	-0.0143652099609375	0.010773907470703125	3.047943115234375	-3.85284423828125	-0.888824462890625	9.772532626342773	0.45070846252441404	0.10953472595214843	0.35858154296875	-4.878997802734375	-2.964019775390625	9.961076007080077	0.09636661682128905	-0.229843359375	3.818511962890625	-4.486083984375	-2.048492431640625	
35	0.14	0.0	0.0	0.0	0.0	0.006	0.003	0.003	0.006	9.872490545654296	-0.08020575561523437	0.07003039855957031	2.941131591796875	-3.60870361328125	-0.896453857421875	9.781510882568359	0.47764323120117186	0.1304839904785156	0.408172607421875	-5.016326904296875	-2.960205078125	9.964667309570311	0.12330138549804687	-0.21906945190429686	3.414154052734375	-4.52423095703125	-2.285003662109375	
36	0.14400000000000002	0.0	0.0	0.0	0.0	0.006	0.003	0.003	0.003	9.879673150634765	-0.032920272827148434	0.018555062866210937	2.193450927734375	-3.42559814453125	-0.827789306640625	9.776722479248047	0.4010287780761719	0.10594342346191406	0.324249267578125	-4.82177734375	-2.727508544921875	9.968258612060547	0.03950432739257812	-0.2154781494140625	3.627777099609375	-4.669189453125	-2.18963623046875	
37	0.148	0.0	0.0	0.0	0.0	0.003	0.003	0.003	0.003	9.874884747314452	-0.09277531433105468	0.09457096557617187	3.002166748046875	-3.80706787109375	-0.91552734375	9.788693487548828	0.43993455505371093	0.11192892761230468	0.347137451171875	-4.5623779296875	-2.948760986328125	10.00417163696289	0.09935936889648436	-0.23642741394042968	3.7689208984375	-4.39453125	-2.3193359375	
38	0.152	0.0	0.0	0.0	0.0	0.006	0.003	0.003	0.003	9.883264453125	-0.24301146850585936	0.010175357055664061	2.094268798828125	-3.24249267578125	-0.690460205078125	9.750386260986328	0.4165910888671875	0.1370680450439453	0.408172607421875	-4.863739013671875	-2.811431884765625	9.92755718383789	0.06584054565429687	-0.21248539733886718	3.54766845703125	-4.673004150390625	-1.926422119140625	
39	0.156	0.0	0.0	0.0	0.0	0.006	0.003	0.003	0.006	9.85692823486328	-0.1352723937988281	0.12210428466796874	3.0670166015625	-3.505706787109375	-0.766754150390625	9.788094937133788	0.3968389251708984	0.1292868896484375	0.41961669921875	-4.974365234375	-3.15093994140625	9.986215124511718	0.023343466186523436	-0.20709844360351562	3.734588623046875	-4.276275634765625	-2.58636474609375	
40	0.16	0.0	0.0	0.0	0.0	0.003	0.003	0.006	0.006	9.897031112670899	-0.3022679595947265	0.020350714111328123	1.888275146484375	-3.326416015625	-0.774383544921875	9.765350021362304	0.5249287139892578	0.17896657409667968	0.164031982421875	-4.95147705078125	-2.758026123046875	10.021529598999022	0.18375497741699218	-0.229843359375	3.7689208984375	-4.61578369140625	-2.124786376953125	
41	0.164	0.0	0.0	0.0	0.0	0.003	0.003	0.006	0.006	9.87727894897461	-0.2472013214111328	0.02693476867675781	2.117156982421875	-3.265380859375	-0.7781982421875	9.788693487548828	0.39324762268066404	0.11731588134765625	0.51116943359375	-5.218505859375	-3.215789794921875	9.981426721191406	0.020949264526367185	-0.21248539733886718	3.60107421875	-4.497528076171875	-2.37274169921875	
42	0.168	0.0	0.0	0.0	0.0	0.006	0.006	0.003	0.006	9.890447058105469	-0.33399113159179683	0.022744915771484374	2.00653076171875	-3.41796875	-0.84686279296875	9.758167416381836	0.5440823272705078	0.19871873779296872	0.247955322265625	-5.016326904296875	-2.819061279296875	9.992799179077148	0.18375497741699218	-0.19333178405761717	3.59344482421875	-4.638671875	-1.953125	
43	0.17200000000000001	0.0	0.0	0.0	0.0	0.009000000000000001	0.006	0.006	0.006	9.883264453125	-0.2765302917480469	0.03172317199707031	2.18963623046875	-3.35693359375	-0.72479248046875	9.866505041503906	0.3232172241210937	0.1197100830078125	0.438690185546875	-4.730224609375	-2.994537353515625	9.989207876586914	-0.0053869537353515625	-0.1975216369628906	3.665924072265625	-4.46319580078125	-2.13623046875	
44	0.176	0.0	0.0	0.0	0.0	0.006	0.003	0.003	0.003	9.889249957275391	-0.3687070556640625	0.037708676147460936	1.7547607421875	-3.444671630859375	-0.736236572265625	9.741408004760741	0.5345055206298828	0.1879448303222656	0.12969970703125	-4.734039306640625	-2.78472900390625	9.993397729492187	0.1753752716064453	-0.18555062866210936	3.5247802734375	-4.69207763671875	-1.941680908203125	
45	0.18	0.0	0.0	0.0	0.0	0.003	0.006	0.003	0.006	9.871293444824218	-0.28790274963378903	0.0652419952392578	1.97601318359375	-3.208160400390625	-0.759124755859375	9.835978970336914	0.316034619140625	0.1322796417236328	0.492095947265625	-4.978179931640625	-3.0059814453125	10.101735354614258	-0.14006079711914063	-0.2932897033691406	3.6163330078125	-4.772186279296875	-2.1820068359375	
46	0.184	0.0	0.0	0.0	0.0	0.006	0.003	0.003	0.003	9.779715231323241	0.12030863342285156	0.31004911499023435	2.899169921875	-3.528594970703125	-0.732421875	9.706692080688477	0.642244595336914	0.36631285400390623	0.530242919921875	-4.894256591796875	-2.86102294921875	10.008361489868163	0.1801636749267578	-0.17238251953125	3.44085693359375	-4.673004150390625	-1.773834228515625	
47	0.188	0.0	0.0	0.0	0.0	0.006	0.003	0.003	0.006	9.874286196899414	-0.3327940307617187	0.054468087768554684	1.953125	-3.0670166015625	-0.9307861328125	9.85692823486328	0.2603694305419922	0.11791443176269531	0.530242919921875	-5.0201416015625	-2.86102294921875	10.13824692993164	-0.18375497741699218	-0.29448680419921874	3.780364990234375	-4.756927490234375	-2.1514892578125	
48	0.192	0.0	0.0	0.0	0.0	0.003	0.003	0.003	0.003	9.773729727172851	0.1657984649658203	0.31184476623535157	2.75421142578125	-3.47900390625	-0.885009765625	9.708487731933593	0.6183025787353515	0.3872621185302734	0.22125244140625	-5.05828857421875	-3.002166748046875	10.053252770996092	0.25258827514648435	-0.1322796417236328	3.62396240234375	-4.46319580078125	-2.13623046875	
49	0.196	0.0	0.0	0.0	0.0	0.003	0.003	0.003	0.006	9.871293444824218	-0.33099837951660155	0.05566518859863281	2.44140625	-3.658294677734375	-0.8087158203125	9.859322436523437	0.2711433380126953	0.14245499877929688	0.3814697265625	-4.89044189453125	-2.826690673828125	10.15680199279785	-0.201112939453125	-0.3010708587646484	3.60107421875	-4.535675048828125	-2.2430419921875	
50	0.2	0.0	0.0	0.0	0.0	0.006	0.003	0.003	0.003	9.77432827758789	0.16998831787109375	0.3124433166503906	3.0059814453125	-3.570556640625	-0.8087158203125	9.735422500610351	0.6081272216796875	0.3848679168701172	0.35858154296875	-4.82177734375	-2.834320068359375	10.061033926391602	0.24959552307128904	-0.13407529296874998	3.66973876953125	-4.558563232421875	-2.1209716796875	
51	0.20400000000000001	0.0	0.0	0.0	0.0	0.003	0.003	0.003	0.003	9.866505041503906	0.047285482788085934	0.16340426330566404	2.407073974609375	-3.66973876953125	-0.812530517578125	9.882067352294921	0.22505495605468748	0.11252747802734374	0.51116943359375	-5.07354736328125	-2.773284912109375	10.036493359375	-0.15861585998535155	-0.258573779296875	3.70025634765625	-4.486083984375	-2.1209716796875	
52	0.20800000000000002	0.0	0.0	0.0	0.0	0.006	0.003	0.003	0.003	9.751583361816406	0.21248539733886718	0.3064578125	3.231048583984375	-3.757476806640625	-0.728607177734375	9.779116680908203	0.517746109008789	0.239420166015625	0.171661376953125	-4.940032958984375	-3.1280517578125	10.065822329711914	0.2645592834472656	-0.1292868896484375	3.704071044921875	-4.82177734375	-1.97601318359375	
53	0.212	0.0	0.0	0.0	0.0	0.006	0.003	0.003	0.006	9.878476049804688	0.05386953735351562	0.1388636962890625	2.475738525390625	-3.589630126953125	-0.6866455078125	9.882067352294921	0.23104046020507812	0.10175357055664062	0.48065185546875	-5.146026611328125	-2.849578857421875	10.024522351074218	-0.1352723937988281	-0.25139117431640623	3.5552978515625	-4.817962646484375	-2.08282470703125	
54	0.216	0.0	0.0	0.0	0.0	0.003	0.003	0.006	0.006	9.898228213500976	0.016160861206054686	0.0017956512451171875	3.269195556640625	-4.184722900390625	-1.064300537109375	9.789890588378906	0.5045779998779296	0.20290859069824219	0.54931640625	-4.7149658203125	-3.139495849609375	10.064026678466796	0.24001871643066405	-0.11671733093261719	3.66973876953125	-4.573822021484375	-2.361297607421875	
55	0.22	0.0	0.0	0.0	0.0	0.006	0.006	0.006	0.003	9.871891995239258	0.05087678527832031	0.12988544006347655	2.55584716796875	-3.505706787109375	-0.789642333984375	9.877877499389648	0.22565350646972654	0.10354922180175781	-0.0457763671875	-4.863739013671875	-2.704620361328125	10.018536846923828	-0.17896657409667968	-0.2561795776367187	3.421783447265625	-4.638671875	-2.15911865234375	
56	0.224	0.0	0.0	0.0	0.0	0.003	0.003	0.006	0.003	9.881468801879882	0.012569558715820313	0.007781155395507812	3.482818603515625	-4.0740966796875	-1.190185546875	9.782707983398437	0.5410895751953124	0.18854338073730467	0.308990478515625	-4.848480224609375	-3.265380859375	9.906009368896484	0.1753752716064453	-0.15203180541992187	3.498077392578125	-4.436492919921875	-2.44140625	
57	0.228	0.0	0.0	0.0	0.0	0.003	0.003	0.003	0.003	9.897031112670899	0.06763619689941405	0.086191259765625	2.55584716796875	-3.51715087890625	-0.9765625	9.738415252685547	0.3274070770263672	0.18734627990722655	-0.019073486328125	-4.802703857421875	-2.513885498046875	10.016142645263672	-0.15382745666503905	-0.2861070983886719	3.62396240234375	-4.512786865234375	-1.97601318359375	
58	0.232	0.0	0.0	0.0	0.0	0.006	0.003	0.006	0.003	9.875483297729492	-0.008978256225585938	0.011372457885742187	3.383636474609375	-4.169464111328125	-1.21307373046875	9.78629928588867	0.5231330627441406	0.1771709228515625	0.1068115234375	-5.725860595703125	-2.971649169921875	9.89523546142578	0.17477672119140625	-0.13946224670410157	3.7078857421875	-4.688262939453125	-2.20489501953125	
59	0.23600000000000002	0.0	0.0	0.0	0.0	0.0	0.003	0.003	0.006	9.867702142333984	-0.2980781066894531	-0.04129997863769531	2.727508544921875	-3.810882568359375	-0.8544921875	9.742605105590819	0.3136404174804687	0.17357962036132812	-0.08392333984375	-4.75311279296875	-2.8228759765625	9.87009634399414	-0.025737667846679687	-0.2346317626953125	3.5552978515625	-4.70733642578125	-2.05230712890625	
60	0.24	0.0	0.0	0.0	0.0	0.003	0.003	0.003	0.006	9.873687646484374	-0.03890577697753906	0.004189852905273437	3.520965576171875	-4.100799560546875	-1.163482666015625	9.713276135253906	0.30885201416015623	0.1131260284423828	0.324249267578125	-4.87518310546875	-3.231048583984375	9.873687646484374	0.2166752502441406	-0.12988544006347655	3.56292724609375	-4.39453125	-2.29644775390625	
61	0.244	0.0	0.0	0.0	0.0	0.006	0.003	0.003	0.003	9.859322436523437	-0.3028665100097656	-0.047285482788085934	2.689361572265625	-3.910064697265625	-0.6561279296875	9.733626849365233	0.34177228698730466	0.17238251953125	0.118255615234375	-4.974365234375	-2.64739990234375	9.85632968444824	0.009576806640625	-0.2376245147705078	3.89862060546875	-4.749298095703125	-2.05230712890625	
62	0.248	0.0	0.0	0.0	0.0	0.009000000000000001	0.006	0.003	0.003	9.861118087768554	-0.07481880187988281	-0.010773907470703125	2.231597900390625	-4.238128662109375	-1.064300537109375	9.710881933593749	0.31543606872558594	0.1197100830078125	0.141143798828125	-4.863739013671875	-3.33404541015625	9.980229620361328	-0.14604630126953125	-0.25139117431640623	3.582000732421875	-4.154205322265625	-2.468109130859375	
63	0.252	0.0	0.0	0.0	0.0	0.003	0.006	0.003	0.009000000000000001	9.85752678527832	-0.3112462158203125	-0.03411737365722656	2.61688232421875	-3.74603271484375	-0.6561279296875	9.727641345214844	0.5231330627441406	0.05626373901367187	0.55694580078125	-4.94384765625	-2.81524658203125	9.862315188598632	0.05985504150390625	-0.2537853759765625	3.673553466796875	-4.398345947265625	-2.06756591796875	
64	0.256	0.0	0.0	0.0	0.0	0.006	0.003	0.003	0.006	9.899425314331054	-0.6165069274902344	-0.037110125732421874	2.2735595703125	-3.490447998046875	-0.61798095703125	9.700108026123047	0.3752911102294922	0.10594342346191406	0.209808349609375	-4.802703857421875	-3.27301025390625	9.975441217041014	-0.13587094421386717	-0.2567781280517578	3.5858154296875	-4.604339599609375	-2.410888671875	
65	0.26	0.0	0.0	0.0	0.0	0.006	0.003	0.003	0.006	9.830592016601562	-0.3537432952880859	-0.015562310791015624	2.44903564453125	-3.77655029296875	-0.705718994140625	9.714473236083984	0.517746109008789	0.05805939025878906	0.244140625	-5.123138427734375	-2.84576416015625	9.855731134033203	0.029927520751953124	-0.24660277099609373	3.597259521484375	-4.5623779296875	-1.735687255859375	
66	0.264	0.0	0.0	0.0	0.0	0.009000000000000001	0.006	0.003	0.003	9.891644158935547	-0.6296750366210937	-0.037110125732421874	1.834869384765625	-3.1280517578125	-0.690460205078125	9.853336932373047	0.23822306518554687	0.037708676147460936	0.354766845703125	-4.932403564453125	-2.872467041015625	9.981426721191406	-0.1131260284423828	-0.24301146850585936	3.6163330078125	-4.638671875	-2.559661865234375	
67	0.268	0.0	0.0	0.0	0.0	0.003	0.006	0.003	0.006	9.881468801879882	-0.2920926025390625	0.14185644836425781	1.842498779296875	-3.05938720703125	-0.57220458984375	9.706093530273437	0.5542576843261718	0.04129997863769531	0.507354736328125	-4.886627197265625	-2.880096435546875	10.008960040283203	0.11911153259277343	-0.11611878051757812	3.612518310546875	-4.608154296875	-1.76239013671875	
68	0.272	0.0	0.0	0.0	0.0	0.003	0.003	0.003	0.003	9.868899243164062	-0.7038952880859375	-0.025737667846679687	1.86920166015625	-2.9296875	-0.514984130859375	9.849745629882811	0.19871873779296872	0.02693476867675781	0.66375732421875	-5.001068115234375	-2.9296875	9.958681805419921	-0.13646949462890623	-0.2262520568847656	3.795623779296875	-4.37164306640625	-2.5787353515625	
69	0.276	0.0	0.0	0.0	0.0	0.003	0.006	0.003	0.006	9.885658654785155	-0.23642741394042968	0.16460136413574217	1.85394287109375	-3.173828125	-0.537872314453125	9.795876092529296	0.47584757995605464	0.36212300109863277	0.17547607421875	-5.146026611328125	-2.74658203125	10.026318002319336	0.14185644836425781	-0.11911153259277343	3.71551513671875	-4.840850830078125	-1.71661376953125	
70	0.28	0.0	0.0	0.0	0.0	0.006	0.006	0.003	0.006	9.867702142333984	-0.6841431243896484	-0.02154781494140625	1.556396484375	-2.86102294921875	-0.69427490234375	9.847949978637695	0.28969840087890625	0.037110125732421874	0.301361083984375	-4.703521728515625	-2.99072265625	10.24000050048828	-0.39444472351074217	-0.5315127685546874	3.54766845703125	-4.53948974609375	-2.048492431640625	
71	0.28400000000000003	0.0	0.0	0.0	0.0	0.003	0.006	0.003	0.003	9.879673150634765	-0.14484920043945312	0.18555062866210936	2.017974853515625	-3.0364990234375	-0.35858154296875	9.797073193359374	0.43634325256347656	0.3860650177001953	0.354766845703125	-5.0201416015625	-2.7618408203125	10.005368737792969	0.07841010437011718	-0.0987608184814453	3.753662109375	-4.611968994140625	-1.651763916015625	
72	0.28800000000000003	0.0	0.0	0.0	0.0	0.006	0.003	0.003	0.003	9.917980377197265	0.15023615417480468	0.02693476867675781	2.483367919921875	-3.284454345703125	-0.80108642578125	9.89583401184082	0.10594342346191406	0.1083376251220703	0.286102294921875	-4.82940673828125	-2.44140625	10.271125122070313	-0.46627077331542965	-0.5428852264404297	3.536224365234375	-4.5928955078125	-2.010345458984375	
73	0.292	0.0	0.0	0.0	0.0	0.006	0.006	0.006	0.003	9.887454306030273	-0.010773907470703125	0.2059013427734375	2.00653076171875	-3.326416015625	-0.316619873046875	9.809642752075195	0.4734533782958984	0.3896563201904297	0.14495849609375	-4.856109619140625	-2.613067626953125	10.084377392578125	0.4273649963378906	-0.20769699401855468	3.62396240234375	-4.550933837890625	-2.017974853515625	
74	0.296	0.0	0.0	0.0	0.0	0.006	0.003	0.003	0.006	9.931148486328125	0.2154781494140625	0.03232172241210937	2.84576416015625	-3.604888916015625	-0.81634521484375	9.886855755615233	0.04369418029785156	0.10295067138671875	0.514984130859375	-4.756927490234375	-2.773284912109375	10.265139617919921	-0.5093664031982421	-0.5416881256103515	3.692626953125	-4.425048828125	-2.1820068359375	
75	0.3	0.0	0.0	0.0	0.0	0.009000000000000001	0.006	0.003	0.003	9.872490545654296	0.11851298217773437	0.24001871643066405	5.279541015625	-3.0670166015625	-0.270843505859375	9.819219558715819	0.48722003784179685	0.31064766540527344	0.38909912109375	-5.054473876953125	-2.86102294921875	10.096348400878906	0.42437224426269526	-0.1897404815673828	3.6163330078125	-4.81414794921875	-1.88446044921875	
76	0.304	0.0	0.0	0.0	0.0	0.003	0.003	0.003	0.003	9.94072529296875	0.2609679809570312	0.023343466186523436	3.368377685546875	-3.7689208984375	-0.8392333984375	9.904812268066406	0.010175357055664061	0.10714052429199218	0.41961669921875	-4.8980712890625	-2.4871826171875	10.286687432861328	-0.5333084197998047	-0.5853823059082031	3.559112548828125	-4.85992431640625	-1.80816650390625	
77	0.308	0.0	0.0	0.0	0.0	0.006	0.003	0.003	0.003	9.883264453125	0.6625953094482422	0.05985504150390625	5.229949951171875	-5.146026611328125	-1.617431640625	9.750984811401366	0.5243301635742187	0.17357962036132812	0.629425048828125	-5.01251220703125	-2.910614013671875	10.090961447143554	0.3597287994384765	-0.18914193115234373	3.505706787109375	-4.6234130859375	-2.01416015625	
78	0.312	0.0	0.0	0.0	0.0	0.006	0.003	0.003	0.003	9.94730934753418	0.2657563842773437	0.034715924072265626	3.360748291015625	-3.94439697265625	-0.881195068359375	9.910797772216796	-0.033518823242187495	0.1197100830078125	-0.019073486328125	-4.852294921875	-2.52532958984375	10.004770187377929	-0.12689268798828124	-0.3321954803466797	3.391265869140625	-4.734039306640625	-1.766204833984375	
79	0.316	0.0	0.0	0.0	0.0	0.006	0.003	0.003	0.006	9.906009368896484	0.6021417175292968	0.027533319091796873	4.978179931640625	-5.054473876953125	-1.220703125	9.737218151855469	0.4950011932373047	0.19931728820800781	0.46539306640625	-4.726409912109375	-2.506256103515625	10.085574493408203	0.36571430358886714	-0.17776947326660156	3.60870361328125	-4.650115966796875	-1.697540283203125	
80	0.32	0.0	0.0	0.0	0.0	0.003	0.003	0.003	0.006	9.85632968444824	-0.076614453125	-0.020350714111328123	3.082275390625	-4.184722900390625	-0.96893310546875	9.751583361816406	0.2442085693359375	0.14185644836425781	0.23651123046875	-4.642486572265625	-2.63214111328125	9.982623822021484	-0.21428104858398436	-0.3280056274414062	3.39508056640625	-4.634857177734375	-1.766204833984375	
81	0.324	0.0	0.0	0.0	0.0	0.003	0.003	0.006	0.003	9.917381826782226	0.48722003784179685	0.017956512451171875	4.619598388671875	-4.878997802734375	-1.4495849609375	9.730035546875	0.4333505004882812	0.2184709014892578	0.270843505859375	-4.791259765625	-2.4261474609375	9.877877499389648	0.47285482788085936	-0.11851298217773437	3.662109375	-4.718780517578125	-2.643585205078125	
82	0.328	0.0	0.0	0.0	0.0	0.003	0.003	0.003	0.006	9.840168823242188	-0.1197100830078125	0.02454056701660156	3.0364990234375	-4.032135009765625	-0.957489013671875	9.753977563476562	0.24061726684570311	0.13407529296874998	0.25177001953125	-4.92095947265625	-2.559661865234375	9.986215124511718	-0.20290859069824219	-0.30346506042480464	3.62396240234375	-4.764556884765625	-1.766204833984375	
83	0.332	0.0	0.0	0.0	0.0	0.006	0.003	0.003	0.006	9.923965881347655	0.3603273498535156	-0.009576806640625	4.57000732421875	-4.99725341796875	-1.30462646484375	9.694122521972655	0.6775590698242188	0.16639701538085935	0.51116943359375	-4.70733642578125	-3.6163330078125	9.873687646484374	0.41838674011230464	-0.11611878051757812	3.765106201171875	-4.69207763671875	-2.4871826171875	
84	0.336	0.0	0.0	0.0	0.0	0.006	0.003	0.003	0.006	9.816226806640625	-0.1292868896484375	0.05027823486328125	2.986907958984375	-4.0130615234375	-0.942230224609375	9.763554370117188	0.2280477081298828	0.12629413757324218	0.63323974609375	-5.130767822265625	-2.742767333984375	9.851541281127929	0.20769699401855468	-0.14963760375976562	3.582000732421875	-4.718780517578125	-2.197265625	
85	0.34	0.0	0.0	0.0	0.0	0.006	0.003	0.003	0.003	9.81263550415039	-0.5500678314208984	0.16819266662597654	1.880645751953125	-3.15093994140625	-0.873565673828125	9.70968483276367	0.7601590270996094	0.17238251953125	0.629425048828125	-4.7149658203125	-3.543853759765625	9.882067352294921	0.44113165588378905	-0.08319850769042968	3.6163330078125	-4.734039306640625	-2.40325927734375	
86	0.34400000000000003	0.0	0.0	0.0	0.0	0.006	0.003	0.003	0.006	9.801861596679688	-0.12868833923339842	0.06703764648437499	3.055572509765625	-4.177093505859375	-0.8392333984375	9.623493572998047	0.8254010223388671	0.17956512451171874	0.408172607421875	-5.191802978515625	-3.093719482421875	9.841365924072266	0.06943184814453125	-0.1370680450439453	3.879547119140625	-4.78363037109375	-2.033233642578125	
87	0.34800000000000003	0.0	0.0	0.0	0.0	0.006	0.003	0.003	0.003	9.803657247924804	-0.47884033203125	0.19572598571777342	2.140045166015625	-3.170013427734375	-1.0223388671875	9.697115274047851	0.7942764007568359	0.181959326171875	0.759124755859375	-4.63104248046875	-3.662109375	9.947907897949218	0.43993455505371093	-0.1514332550048828	3.71551513671875	-4.207611083984375	-2.986907958984375	
88	0.352	0.0	0.0	0.0	0.0	0.006	0.003	0.003	0.006	9.788094937133788	-0.05327098693847656	0.07841010437011718	3.2196044921875	-4.1351318359375	-0.789642333984375	9.635464581298828	0.9062053283691406	0.15322890625	0.469207763671875	-5.21087646484375	-3.154754638671875	9.886257205200195	-0.009576806640625	-0.15322890625	3.665924072265625	-4.72259521484375	-1.83868408203125	
89	0.356	0.0	0.0	0.0	0.0	0.006	0.003	0.006	0.003	9.816226806640625	-0.49200844116210934	0.20231004028320312	2.32696533203125	-3.44085693359375	-1.056671142578125	9.858125335693359	0.40880993347167965	0.17238251953125	0.057220458984375	-4.87518310546875	-3.643035888671875	9.936535440063476	-0.1771709228515625	-0.1406593475341797	3.7689208984375	-4.39453125	-2.9144287109375	
90	0.36	0.0	0.0	0.0	0.0	0.003	0.003	0.003	0.006	9.937732540893554	-0.5871779571533203	0.020949264526367185	0.52642822265625	-2.22015380859375	-0.63323974609375	9.629479077148437	0.8092401611328125	0.16998831787109375	0.759124755859375	-5.176544189453125	-3.139495849609375	9.873089096069336	0.09217676391601562	-0.16220716247558592	3.429412841796875	-4.596710205078125	-1.644134521484375	
91	0.364	0.0	0.0	0.0	0.0	0.006	0.006	0.006	0.006	9.8694977935791	-0.3950432739257812	0.16160861206054686	2.7923583984375	-3.5858154296875	-1.15203857421875	9.86351228942871	0.5458779785156249	0.19812018737792966	-0.091552734375	-4.53948974609375	-3.627777099609375	9.9461122467041	-0.2041056915283203	-0.11671733093261719	3.864288330078125	-4.52423095703125	-2.758026123046875	
92	0.368	0.0	0.0	0.0	0.0	0.006	0.003	0.003	0.006	9.923367330932617	-0.412401235961914	0.028730419921875	0.644683837890625	-2.38037109375	-0.2593994140625	9.819818109130859	0.5518634826660156	0.33518823242187495	-0.324249267578125	-4.96673583984375	-2.285003662109375	9.98501802368164	0.25318682556152344	-0.025139117431640625	3.780364990234375	-4.611968994140625	-1.70135498046875	
93	0.372	0.0	0.0	0.0	0.0	0.006	0.006	0.003	0.009000000000000001	9.823409411621093	-0.6099228729248046	0.08858546142578125	1.94549560546875	-3.009796142578125	-0.91552734375	9.885658654785155	0.297479556274414	0.16519991455078123	0.370025634765625	-5.035400390625	-3.643035888671875	9.912593423461914	-0.13108254089355467	-0.09157821350097656	3.692626953125	-4.0435791015625	-2.422332763671875	
94	0.376	0.0	0.0	0.0	0.0	0.009000000000000001	0.003	0.006	0.006	9.919177478027343	-0.5243301635742187	0.025737667846679687	0.77056884765625	-2.574920654296875	-0.6866455078125	9.835978970336914	0.5548562347412109	0.2819172454833984	0.0457763671875	-4.974365234375	-2.593994140625	10.052055670166014	0.1657984649658203	-0.055066638183593745	3.658294677734375	-4.57763671875	-1.85394287109375	
95	0.38	0.0	0.0	0.0	0.0	0.006	0.003	0.003	0.006	9.837176071166992	-0.34536358947753903	0.025139117431640625	1.97601318359375	-3.04412841796875	-0.820159912109375	9.894038360595703	0.25258827514648435	0.008379705810546874	0.576019287109375	-4.95147705078125	-2.758026123046875	10.287884533691406	-0.2519897247314453	-0.6637924102783203	3.77655029296875	-4.67681884765625	-2.349853515625	
96	0.384	0.0	0.0	0.0	0.0	0.003	0.003	0.003	0.006	9.934739788818359	-0.2950853546142578	-0.004189852905273437	0.560760498046875	-2.5634765625	0.14495849609375	9.782109432983399	0.30466216125488277	0.28371289672851563	0.431060791015625	-5.062103271484375	-2.64739990234375	9.943718045043944	0.15682020874023436	-0.010175357055664061	3.814697265625	-4.703521728515625	-1.8310546875	
97	0.388	0.0	0.0	0.0	0.0	0.006	0.003	0.006	0.006	9.87727894897461	0.20709844360351562	-0.013168109130859374	4.7149658203125	-4.634857177734375	-1.758575439453125	9.932345587158203	0.5602431884765625	-0.027533319091796873	0.766754150390625	-4.8980712890625	-3.032684326171875	10.322600457763672	-0.21068974609375	-0.6607996582031249	3.91387939453125	-4.46319580078125	-2.09808349609375	
98	0.392	0.0	0.0	0.0	0.0	0.003	0.006	0.003	0.003	9.65940659790039	-0.37828386230468747	0.4213794921875	1.800537109375	-3.055572509765625	-0.637054443359375	9.85632968444824	0.0652419952392578	0.24361001892089842	-0.530242919921875	-4.66156005859375	-2.66265869140625	10.137049829101562	0.19333178405761717	-0.2998737579345703	3.490447998046875	-4.5166015625	-2.315521240234375	
99	0.396	0.0	0.0	0.0	0.0	0.003	0.006	0.003	0.003	9.82580361328125	-0.6733692169189452	-0.010175357055664061	-0.640869140625	-1.46484375	-0.392913818359375	9.852139831542969	0.8098387115478515	0.00718260498046875	0.484466552734375	-4.749298095703125	-2.99072265625	10.23401499633789	-0.11552023010253906	-0.6392518432617187	3.6468505859375	-4.5928955078125	-2.117156982421875	
100	0.4	0.0	0.0	0.0	0.0	0.003	0.006	0.003	0.003	9.725845693969726	0.5871779571533203	0.2962824554443359	2.83050537109375	-3.88336181640625	-0.507354736328125	9.721655841064452	0.15322890625	0.33758243408203126	-0.25177001953125	-5.0201416015625	-2.7313232421875	10.099341152954102	0.19033903198242186	-0.28431144714355466	3.62396240234375	-4.589080810546875	-2.01416015625	
101	0.404	0.0	0.0	0.0	0.0	0.0	0.006	0.003	0.006	9.941323843383788	0.18315642700195311	-0.1562216583251953	2.666473388671875	-3.490447998046875	-1.01470947265625	9.945513696289062	0.70868369140625	-0.023343466186523436	0.9765625	-5.0811767578125	-2.590179443359375	10.313622201538085	-0.1466448516845703	-0.6500257507324219	3.582000732421875	-4.573822021484375	-2.323150634765625	
102	0.40800000000000003	0.0	0.0	0.0	0.0	0.006	0.003	0.006	0.003	9.694122521972655	0.044891281127929686	0.3022679595947265	4.131317138671875	-4.764556884765625	-1.369476318359375	9.726444244384766	0.19093758239746092	0.3232172241210937	-0.48828125	-4.6844482421875	-2.910614013671875	10.095151300048828	0.15981296081542967	-0.28909985046386716	3.60107421875	-4.604339599609375	-2.00653076171875	
103	0.41200000000000003	0.0	0.0	0.0	0.0	0.003	0.003	0.003	0.003	9.841964474487304	-0.1514332550048828	0.08259995727539061	-0.06866455078125	-2.147674560546875	-0.270843505859375	9.823409411621093	0.6512228515624999	-0.10654197387695312	0.60272216796875	-4.756927490234375	-2.773284912109375	10.014945544433592	-0.07541735229492187	-0.4686649749755859	3.51715087890625	-4.917144775390625	-1.953125	
104	0.41600000000000004	0.0	0.0	0.0	0.0	0.003	0.003	0.003	0.006	9.727641345214844	0.05805939025878906	0.24480711975097655	2.193450927734375	-3.27301025390625	-0.74005126953125	9.711480484008788	0.3651157531738281	0.3399766357421875	-0.186920166015625	-4.61578369140625	-3.04412841796875	10.110713610839843	0.11731588134765625	-0.30047230834960936	3.627777099609375	-4.7149658203125	-2.368927001953125	
105	0.42	0.0	0.0	0.0	0.0	0.006	0.003	0.006	0.006	9.888651406860351	0.2902969512939453	0.061650692749023434	2.704620361328125	-3.650665283203125	-0.843048095703125	9.90181951599121	0.48243163452148435	-0.1580173095703125	0.553131103515625	-4.924774169921875	-2.910614013671875	10.101136804199218	-0.04548983154296875	-0.508169302368164	3.3111572265625	-4.764556884765625	-1.857757568359375	
106	0.424	0.0	0.0	0.0	0.0	0.006	0.003	0.003	0.003	9.70968483276367	0.21308394775390624	0.17118541870117188	2.689361572265625	-3.59344482421875	-0.946044921875	9.758765966796874	0.38187516479492184	0.10414777221679687	0.274658203125	-4.95147705078125	-3.204345703125	9.837176071166992	0.023343466186523436	-0.08140285644531249	3.80706787109375	-4.764556884765625	-2.513885498046875	
107	0.428	0.0	0.0	0.0	0.0	0.003	0.003	0.003	0.006	9.84435867614746	-0.08020575561523437	0.13946224670410157	1.224517822265625	-2.75421142578125	-0.66375732421875	9.904213717651366	0.43933600463867184	-0.1406593475341797	0.110626220703125	-5.001068115234375	-2.872467041015625	10.043077413940429	0.08020575561523437	-0.4782417816162109	3.6468505859375	-4.886627197265625	-1.85394287109375	
108	0.432	0.0	0.0	0.0	0.0	0.003	0.003	0.003	0.003	9.950900650024414	-0.25737667846679685	-0.16460136413574217	2.124786376953125	-3.448486328125	-0.843048095703125	9.753977563476562	0.4381389038085937	0.12030863342285156	0.453948974609375	-4.730224609375	-3.208160400390625	9.90122096557617	-0.022744915771484374	-0.14245499877929688	3.5858154296875	-4.61578369140625	-2.349853515625	
109	0.436	0.0	0.0	0.0	0.0	0.003	0.006	0.003	0.003	9.893439810180663	0.22206220397949217	0.07362170104980469	1.590728759765625	-3.08990478515625	-0.732421875	9.737218151855469	0.29927520751953124	0.044891281127929686	0.25177001953125	-4.947662353515625	-3.0517578125	9.85094273071289	0.09576806640624999	-0.13646949462890623	3.6773681640625	-4.688262939453125	-2.40325927734375	
110	0.44	0.0	0.0	0.0	0.0	0.003	0.003	0.006	0.003	9.896432562255859	-0.16340426330566404	-0.09038111267089843	3.940582275390625	-4.505157470703125	-1.110076904296875	9.694721072387695	0.48243163452148435	0.19812018737792966	0.095367431640625	-5.092620849609375	-2.964019775390625	9.843161575317382	0.06943184814453125	-0.15083470458984374	3.62396240234375	-4.61578369140625	-2.117156982421875	
111	0.444	0.0	0.0	0.0	0.0	0.006	0.003	0.003	0.003	9.90900212097168	-0.23403321228027343	-0.11372457885742186	3.0059814453125	-4.20379638671875	-0.804901123046875	9.728239895629882	0.3321954803466797	0.08200140686035155	0.35858154296875	-5.161285400390625	-2.864837646484375	9.86351228942871	0.10354922180175781	-0.12689268798828124	3.63922119140625	-4.779815673828125	-2.124786376953125	
112	0.448	0.0	0.0	0.0	0.0	0.003	0.003	0.003	0.006	9.885060104370117	-0.2472013214111328	-0.02633621826171875	3.41033935546875	-4.119873046875	-0.766754150390625	9.734225399780273	0.5027823486328125	0.15981296081542967	0.46539306640625	-4.7149658203125	-2.948760986328125	9.886257205200195	0.061650692749023434	-0.18076222534179687	3.51715087890625	-4.4708251953125	-2.391815185546875	
113	0.452	0.0	0.0	0.0	0.0	0.006	0.006	0.003	0.003	9.924564431762695	-0.037110125732421874	-0.15083470458984374	3.45611572265625	-4.150390625	-1.056671142578125	9.690531219482422	0.4321533996582031	0.12210428466796874	0.576019287109375	-5.130767822265625	-2.941131591796875	9.826402163696288	0.13646949462890623	-0.10295067138671875	3.84521484375	-4.856109619140625	-2.3193359375	
114	0.456	0.0	0.0	0.0	0.0	0.003	0.003	0.003	0.006	9.855731134033203	-0.09995791931152344	0.07481880187988281	4.2266845703125	-4.772186279296875	-0.972747802734375	9.721655841064452	0.40222587890625	0.19632453613281248	0.69427490234375	-4.772186279296875	-3.04412841796875	9.97244846496582	0.001197100830078125	-0.20949264526367187	3.6773681640625	-4.35638427734375	-2.17437744140625	
115	0.46	0.0	0.0	0.0	0.0	0.006	0.003	0.003	0.003	9.94072529296875	-0.1927332336425781	-0.14425065002441406	3.475189208984375	-4.398345947265625	-1.01470947265625	9.821015209960937	0.2998737579345703	0.20769699401855468	0.270843505859375	-4.947662353515625	-2.971649169921875	9.849745629882811	0.0796072052001953	-0.07362170104980469	3.7841796875	-4.75311279296875	-2.25067138671875	
116	0.464	0.0	0.0	0.0	0.0	0.003	0.003	0.006	0.003	9.89463691101074	-0.3705027069091797	-0.008978256225585938	2.307891845703125	-3.63922119140625	-0.78582763671875	9.67137760620117	0.373495458984375	0.24001871643066405	0.301361083984375	-4.665374755859375	-2.9754638671875	9.938331091308592	-0.011971008300781249	-0.16819266662597654	3.70025634765625	-4.32586669921875	-2.231597900390625	
117	0.468	0.0	0.0	0.0	0.0	0.003	0.006	0.006	0.006	9.94671079711914	-0.14425065002441406	-0.1227028350830078	3.612518310546875	-4.405975341796875	-0.804901123046875	9.809044201660155	0.3800795135498047	0.22505495605468748	0.217437744140625	-5.11932373046875	-2.55584716796875	10.041880313110351	0.0718260498046875	-0.07781155395507812	3.79180908203125	-4.81414794921875	-1.922607421875	
118	0.47200000000000003	0.0	0.0	0.0	0.0	0.006	0.003	0.006	0.003	9.900023864746093	-0.4129997863769531	-0.020949264526367185	2.864837646484375	-3.631591796875	-0.92315673828125	9.715670336914062	0.34117373657226563	0.2136824981689453	0.675201416015625	-4.70733642578125	-2.8228759765625	10.001777435302733	-0.07481880187988281	-0.1640028137207031	3.856658935546875	-4.474639892578125	-2.391815185546875	
119	0.47600000000000003	0.0	0.0	0.0	0.0	0.006	0.003	0.006	0.006	9.9215716796875	-0.24361001892089842	-0.051475335693359374	2.574920654296875	-3.31878662109375	-0.865936279296875	9.789890588378906	0.35613749694824215	0.20709844360351562	0.133514404296875	-5.168914794921875	-2.960205078125	10.018536846923828	0.07781155395507812	-0.05626373901367187	3.612518310546875	-4.67681884765625	-1.956939697265625	
120	0.48	0.0	0.0	0.0	0.0	0.003	0.003	0.003	0.006	9.858125335693359	-0.37828386230468747	0.022146365356445312	2.330780029296875	-3.44085693359375	-0.79345703125	9.925761532592773	0.5315127685546874	0.020350714111328123	0.8697509765625	-4.84466552734375	-2.8533935546875	10.214262832641602	-0.025737667846679687	-0.42796354675292964	3.650665283203125	-4.57000732421875	-1.91497802734375	
121	0.484	0.0	0.0	0.0	0.0	0.006	0.003	0.003	0.0	9.742605105590819	-0.15203180541992187	0.4740519287109375	2.05230712890625	-2.735137939453125	-0.701904296875	9.851541281127929	0.28490999755859375	0.1975216369628906	0.125885009765625	-5.084991455078125	-3.025054931640625	10.065223779296874	0.044292730712890624	-0.05626373901367187	3.459930419921875	-4.50897216796875	-2.117156982421875	
122	0.488	0.0	0.0	0.0	0.0	0.003	0.003	0.006	0.006	9.871891995239258	-0.33399113159179683	-0.04369418029785156	2.376556396484375	-3.60870361328125	-0.89263916015625	9.932345587158203	0.5129577056884765	0.00239420166015625	0.9307861328125	-4.787445068359375	-2.750396728515625	10.276512075805664	-0.07541735229492187	-0.44053310546874996	3.910064697265625	-4.5013427734375	-1.9683837890625	
123	0.492	0.0	0.0	0.0	0.0	0.003	0.006	0.003	0.006	9.697115274047851	-0.1292868896484375	0.4944026428222656	2.109527587890625	-3.3111572265625	-0.713348388671875	9.628281976318359	0.45968671875	0.613514175415039	-0.4425048828125	-4.940032958984375	-2.948760986328125	9.981426721191406	0.14963760375976562	-0.05327098693847656	3.704071044921875	-4.73785400390625	-1.25885009765625	
124	0.496	0.0	0.0	0.0	0.0	0.006	0.003	0.006	0.003	9.878476049804688	0.10654197387695312	0.18555062866210936	-0.255584716796875	-1.552581787109375	-0.804901123046875	9.93414123840332	0.48063598327636714	0.025737667846679687	0.789642333984375	-4.817962646484375	-2.918243408203125	10.286687432861328	-0.047884033203124995	-0.45549686584472654	3.658294677734375	-4.673004150390625	-1.99127197265625	
125	0.5	0.0	0.0	0.0	0.0	0.003	0.003	0.006	0.003	9.721057290649414	-0.061650692749023434	0.45549686584472654	2.033233642578125	-2.742767333984375	-0.96893310546875	9.737218151855469	0.4165910888671875	0.5267243652343749	-0.164031982421875	-5.077362060546875	-2.727508544921875	10.08078609008789	0.076614453125	-0.1292868896484375	3.76129150390625	-4.627227783203125	-2.25067138671875	
126	0.504	0.0	0.0	0.0	0.0	0.006	0.006	0.006	0.003	9.865307940673828	-0.08200140686035155	0.1897404815673828	-0.8697509765625	-1.31988525390625	-0.5035400390625	9.877877499389648	0.4626794708251953	0.020949264526367185	0.339508056640625	-4.72259521484375	-3.017425537109375	10.151415039062499	-0.025139117431640625	-0.41060558471679687	3.57818603515625	-4.512786865234375	-2.040863037109375	
127	0.508	0.0	0.0	0.0	0.0	0.003	0.006	0.003	0.003	9.667786303710937	0.11372457885742186	0.5111620544433594	1.6021728515625	-2.719879150390625	-0.637054443359375	9.742605105590819	0.4656722229003906	0.5333084197998047	-0.171661376953125	-5.031585693359375	-2.72369384765625	9.97125136413574	0.1771709228515625	-0.06344634399414062	3.490447998046875	-4.69970703125	-2.048492431640625	
128	0.512	0.0	0.0	0.0	0.0	0.006	0.006	0.006	0.003	9.907206469726562	-0.11252747802734374	0.20290859069824219	-0.701904296875	-1.46484375	-0.823974609375	10.038289010620117	0.36391865234375	-0.04189852905273437	0.54931640625	-4.72259521484375	-3.192901611328125	10.110713610839843	0.025737667846679687	-0.32501287536621093	3.566741943359375	-4.82177734375	-1.758575439453125	
129	0.516	0.0	0.0	0.0	0.0	0.006	0.006	0.006	4.593	9.94671079711914	0.05626373901367187	-0.14903905334472656	2.1514892578125	-3.177642822265625	-0.95367431640625	9.64623848876953	0.5141548065185546	0.30406361083984373	0.030517578125	-4.825592041015625	-3.34930419921875	9.956287603759765	0.11133037719726561	-0.09756371765136718	3.5858154296875	-4.61578369140625	-2.498626708984375	
130	0.52	0.0	0.0	0.0	0.0	4.587	4.638	4.635	4.605	9.875483297729492	0.2184709014892578	0.24361001892089842	-0.64849853515625	-1.461029052734375	-0.63323974609375	9.938331091308592	0.43993455505371093	-0.06643909606933593	0.431060791015625	-4.581451416015625	-2.86865234375	9.986215124511718	0.19572598571777342	-0.3848679168701172	3.582000732421875	-4.69207763671875	-1.76239013671875	
131	0.524	0.0	0.0	0.0	0.0	4.605	4.641	4.644	4.578	9.93952819213867	-0.21787235107421873	-0.08200140686035155	2.43377685546875	-3.437042236328125	-1.148223876953125	9.695319622802733	0.4860229370117187	0.35134909362792965	0.11444091796875	-4.82940673828125	-3.0364990234375	9.862315188598632	-0.16460136413574217	-0.14006079711914063	3.559112548828125	-4.41741943359375	-2.231597900390625	
132	0.528	0.0	0.0	0.0	0.0	4.602	4.644	4.647	4.578	9.929951385498047	-0.21428104858398436	0.1005564697265625	3.99017333984375	-4.60052490234375	-0.823974609375	9.860519537353515	0.15682020874023436	0.033518823242187495	0.1373291015625	-5.168914794921875	-2.99072265625	10.063428128051758	0.03651157531738281	-0.2998737579345703	3.45611572265625	-4.6234130859375	-2.01416015625	
133	0.532	0.0	0.0	0.0	0.0	4.605	4.641	4.641	4.5840000000000005	9.907206469726562	0.15083470458984374	-0.0526724365234375	2.346038818359375	-3.337860107421875	-1.06048583984375	9.593566052246093	0.6296750366210937	0.2980781066894531	0.35858154296875	-4.98199462890625	-2.86865234375	9.692925421142577	-0.01915361328125	-0.09756371765136718	3.5400390625	-4.33349609375	-2.31170654296875	
134	0.536	0.0	0.0	0.0	0.0	4.605	4.632	4.644	4.596	9.88266590270996	-0.12689268798828124	-0.04908113403320312	3.711700439453125	-4.34112548828125	-0.9613037109375	9.795876092529296	0.19812018737792966	0.1484405029296875	0.1220703125	-5.10406494140625	-2.895355224609375	10.071209283447265	0.044292730712890624	-0.19931728820800781	3.59344482421875	-4.703521728515625	-1.995086669921875	
135	0.54	0.0	0.0	0.0	0.0	4.605	4.647	4.644	4.599	9.948506448364258	-0.3142389678955078	-0.07242460021972656	1.346588134765625	-2.99072265625	-0.934600830078125	9.670180505371093	0.364517202758789	0.30466216125488277	0.0	-4.558563232421875	-3.22723388671875	9.88266590270996	-0.258573779296875	-0.105344873046875	3.692626953125	-4.608154296875	-2.70843505859375	
136	0.544	0.0	0.0	0.0	0.0	4.596	4.644	4.644	4.602	9.875483297729492	0.36092590026855464	-0.058657940673828124	3.887176513671875	-4.49371337890625	-1.068115234375	9.737816702270507	0.3597287994384765	0.05626373901367187	0.286102294921875	-5.054473876953125	-2.838134765625	9.80006594543457	0.2950853546142578	-0.2088940948486328	3.650665283203125	-4.6539306640625	-2.20489501953125	
137	0.548	0.0	0.0	0.0	0.0	4.593	4.641	4.635	4.602	9.850344180297851	-0.2537853759765625	0.16879121704101563	4.52423095703125	-4.70733642578125	-0.881195068359375	9.537302313232422	0.4746504791259765	0.37888241271972656	0.02288818359375	-4.73785400390625	-3.1585693359375	9.728838446044922	-0.1322796417236328	0.028730419921875	3.665924072265625	-4.322052001953125	-2.18963623046875	
138	0.552	0.0	0.0	0.0	0.0	4.602	4.641	4.647	4.578	9.910199221801758	-0.21906945190429686	-0.054468087768554684	2.50244140625	-3.818511962890625	-0.8392333984375	9.873089096069336	0.16998831787109375	0.0718260498046875	-0.0152587890625	-5.035400390625	-2.468109130859375	10.022128149414062	0.12449848632812499	-0.24361001892089842	3.814697265625	-4.543304443359375	-2.105712890625	
139	0.556	0.0	0.0	0.0	0.0	4.605	4.644	4.644	4.575	9.987412225341796	0.29927520751953124	-0.07302315063476562	5.626678466796875	-5.401611328125	-0.858306884765625	9.594164602661133	0.5021837982177734	0.2867056488037109	0.19073486328125	-4.840850830078125	-3.505706787109375	10.014945544433592	-0.1975216369628906	-0.45968671875	3.70025634765625	-4.2724609375	-2.288818359375	
140	0.56	0.0	0.0	0.0	0.0	4.605	4.641	4.641	4.59	9.827000714111328	0.5213374114990235	0.06823474731445311	4.238128662109375	-4.63104248046875	-1.2664794921875	9.718064538574218	0.3028665100097656	0.19093758239746092	0.22125244140625	-5.161285400390625	-2.5177001953125	9.752780462646484	0.3238157745361328	-0.09756371765136718	3.604888916015625	-4.878997802734375	-2.101898193359375	
141	0.5640000000000001	0.0	0.0	0.0	0.0	4.611	4.647	4.644	4.596	9.943718045043944	-0.4722562774658203	0.040701428222656245	4.375457763671875	-4.772186279296875	-0.74005126953125	9.694122521972655	0.3950432739257812	0.2657563842773437	0.6256103515625	-4.9896240234375	-3.0975341796875	10.116699114990233	-0.2501940734863281	-0.4991910461425781	3.917694091796875	-4.589080810546875	-2.071380615234375	
142	0.5680000000000001	0.0	0.0	0.0	0.0	4.605	4.647	4.644	4.599	10.077194787597655	-0.04189852905273437	-0.16879121704101563	5.02777099609375	-5.2337646484375	-0.3204345703125	9.85094273071289	0.2519897247314453	0.05805939025878906	-0.057220458984375	-4.993438720703125	-2.658843994140625	10.166378799438476	0.06464344482421874	-0.32441432495117184	3.574371337890625	-4.734039306640625	-2.063751220703125	
143	0.5720000000000001	0.0	0.0	0.0	0.0	4.593	4.644	4.641	4.602	9.929951385498047	0.7056909393310546	-0.00718260498046875	7.160186767578125	-6.4239501953125	-1.155853271484375	9.759963067626952	0.5087678527832031	0.013766659545898436	0.579833984375	-4.711151123046875	-2.696990966796875	9.868300692749022	-0.08379705810546874	-0.3746925598144531	3.7689208984375	-4.45556640625	-2.071380615234375	
144	0.5760000000000001	0.0	0.0	0.0	0.0	4.602	4.641	4.635	4.596	9.911994873046874	-0.4285620971679687	0.13766659545898435	7.030487060546875	-6.488800048828125	-1.178741455078125	9.847949978637695	0.2088940948486328	0.14903905334472656	0.217437744140625	-4.978179931640625	-2.4871826171875	10.013149893188476	0.13766659545898435	-0.12449848632812499	3.406524658203125	-4.444122314453125	-2.0599365234375	
145	0.58	0.0	0.0	0.0	0.0	4.602	4.644	4.644	4.581	9.93354268798828	-0.4782417816162109	0.0796072052001953	0.58746337890625	-2.73895263671875	-0.255584716796875	9.878476049804688	0.41359833679199215	0.051475335693359374	0.213623046875	-4.82177734375	-3.07464599609375	10.241796151733398	-0.2885013000488281	-0.7260416534423828	3.7994384765625	-4.451751708984375	-1.949310302734375	
146	0.584	0.0	0.0	0.0	0.0	4.605	4.641	4.644	4.572	9.97903251953125	-0.3022679595947265	-0.022744915771484374	2.742767333984375	-4.2724609375	-0.34332275390625	9.843760125732421	0.4070142822265625	0.11073182678222655	-0.064849853515625	-4.970550537109375	-2.834320068359375	10.047267266845703	0.17118541870117188	-0.4159925384521484	3.711700439453125	-4.5623779296875	-2.071380615234375	
147	0.588	0.0	0.0	0.0	0.0	4.6080000000000005	4.635	4.644	4.59	9.847949978637695	0.3435679382324219	-0.0017956512451171875	4.486083984375	-4.550933837890625	-1.373291015625	9.832986218261718	0.47644613037109373	-0.13407529296874998	1.03759765625	-4.825592041015625	-2.567291259765625	10.165780249023436	0.047884033203124995	-0.4950011932373047	3.673553466796875	-4.825592041015625	-1.74713134765625	
148	0.592	0.0	0.0	0.0	0.0	4.599	4.644	0.003	0.003	9.897629663085937	-0.16340426330566404	0.10235212097167969	7.816314697265625	-6.77490234375	-1.796722412109375	9.997587582397461	0.31543606872558594	0.009576806640625	0.244140625	-5.1727294921875	-2.269744873046875	10.24718310546875	0.003591302490234375	-0.32920272827148434	3.88336181640625	-4.756927490234375	-2.246856689453125	
149	0.596	0.0	0.0	0.0	0.0	0.003	0.003	0.003	0.003	9.852139831542969	-1.3760674041748047	-0.047285482788085934	-1.712799072265625	-0.698089599609375	-0.60272216796875	10.012551342773437	0.4261678955078125	-0.05327098693847656	0.339508056640625	-4.840850830078125	-2.73895263671875	10.344746823120117	-0.022744915771484374	-0.5644330413818359	3.85284423828125	-4.589080810546875	-2.0599365234375	
150	0.6	0.0	0.0	0.0	0.0	0.012	0.003	0.003	0.006	9.575609539794922	0.16879121704101563	0.3812766143798828	-1.728057861328125	-1.010894775390625	-0.209808349609375	9.699509475708007	0.5494692810058593	0.2855085479736328	0.091552734375	-5.08880615234375	-3.170013427734375	9.871891995239258	0.1304839904785156	-0.03232172241210937	3.551483154296875	-4.730224609375	-2.18963623046875	
151	0.604	0.0	0.0	0.0	0.0	0.006	0.003	0.003	0.0	9.989207876586914	0.16280571289062498	-0.17357962036132812	0.28228759765625	-1.96075439453125	-0.66375732421875	10.031106405639648	0.3016694091796875	-0.11432312927246092	1.1444091796875	-5.13458251953125	-2.834320068359375	10.250774407958984	-0.020949264526367185	-0.3968389251708984	3.7689208984375	-4.669189453125	-1.80816650390625	
152	0.608	0.0	0.0	0.0	0.0	0.006	0.003	0.003	0.003	9.690531219482422	0.08918401184082031	0.21009119567871093	3.35693359375	-3.749847412109375	-2.00653076171875	9.781510882568359	0.5973533142089843	0.16699556579589842	0.308990478515625	-4.947662353515625	-3.070831298828125	10.12507882080078	-0.010773907470703125	-0.06943184814453125	3.47137451171875	-4.619598388671875	-2.330780029296875	
153	0.612	0.0	0.0	0.0	0.0	-0.003	0.003	0.006	0.003	9.797073193359374	-0.39444472351074217	0.03172317199707031	2.227783203125	-3.53240966796875	-1.74713134765625	9.865307940673828	0.4836287353515625	-0.03890577697753906	0.423431396484375	-5.05828857421875	-3.032684326171875	9.974244116210937	0.19692308654785154	-0.27293898925781246	3.574371337890625	-4.89044189453125	-1.880645751953125	
154	0.616	0.0	0.0	0.0	0.0	0.003	0.003	0.003	0.006	9.552266073608397	-0.7559691741943358	0.5291185668945312	-3.753662109375	0.453948974609375	-0.370025634765625	9.638457333374022	0.6470329986572265	0.35793314819335936	-0.03814697265625	-4.940032958984375	-3.108978271484375	9.969455712890625	0.09217676391601562	-0.007781155395507812	3.551483154296875	-4.64630126953125	-1.9378662109375	
155	0.62	0.0	0.0	0.0	0.0	0.006	0.003	0.006	0.006	10.05504842224121	0.37289690856933594	-0.08259995727539061	-0.20599365234375	-1.911163330078125	-0.286102294921875	9.84555577697754	0.2472013214111328	0.25737667846679685	0.408172607421875	-5.27191162109375	-3.173828125	10.203488925170898	0.034715924072265626	-0.37409400939941406	3.6163330078125	-4.871368408203125	-2.197265625	
156	0.624	0.0	0.0	0.0	0.0	0.003	0.003	0.003	0.003	9.72285294189453	0.32142157287597656	0.1801636749267578	-0.301361083984375	-1.46484375	-0.621795654296875	9.643844287109374	0.6512228515624999	0.2932897033691406	0.400543212890625	-4.695892333984375	-3.13568115234375	9.989207876586914	0.076614453125	-0.10295067138671875	3.48663330078125	-4.436492919921875	-2.246856689453125	
157	0.628	0.0	0.0	0.0	0.0	0.006	0.003	0.006	0.006	9.835380419921874	0.4908113403320312	0.09516951599121093	4.03594970703125	-4.45556640625	-1.25885009765625	9.611522564697266	0.35194764404296874	0.3956418243408203	0.125885009765625	-4.863739013671875	-2.87628173828125	9.92217023010254	0.19991583862304688	-0.3136404174804687	3.704071044921875	-5.10406494140625	-2.170562744140625	
158	0.632	0.0	0.0	0.0	0.0	0.006	0.003	0.003	0.006	9.753977563476562	-0.011971008300781249	0.24600422058105467	3.1585693359375	-4.146575927734375	-0.835418701171875	9.788094937133788	0.5925649108886718	0.19033903198242186	0.19073486328125	-4.764556884765625	-3.101348876953125	9.885658654785155	0.037110125732421874	-0.09935936889648436	3.60870361328125	-4.482269287109375	-2.08282470703125	
159	0.636	0.0	0.0	0.0	0.0	0.003	0.003	0.006	0.003	9.931148486328125	0.0	0.047285482788085934	0.904083251953125	-2.38800048828125	-0.90789794921875	9.80665	0.28371289672851563	0.2519897247314453	0.02288818359375	-4.993438720703125	-3.1585693359375	10.17655415649414	0.059256491088867186	-0.45489831542968745	3.543853759765625	-4.596710205078125	-2.3040771484375	
160	0.64	0.0	0.0	0.0	0.0	0.003	0.006	0.003	0.006	9.880870251464843	0.03591302490234375	0.11552023010253906	2.971649169921875	-3.849029541015625	-0.84686279296875	9.610325463867188	0.5404910247802734	0.28012159423828126	0.125885009765625	-4.650115966796875	-3.19671630859375	9.679757312011718	0.17357962036132812	-0.004189852905273437	3.589630126953125	-4.64630126953125	-2.368927001953125	
161	0.644	0.0	0.0	0.0	0.0	0.003	0.006	0.003	0.006	9.941922393798828	0.1466448516845703	0.006584054565429687	0.514984130859375	-2.162933349609375	-0.759124755859375	9.740809454345703	0.3124433166503906	0.3363853332519531	0.415802001953125	-5.08880615234375	-2.841949462890625	9.747393508911133	-0.007781155395507812	-0.055066638183593745	3.780364990234375	-4.81414794921875	-2.22015380859375	
162	0.648	0.0	0.0	0.0	0.0	0.003	0.006	0.003	0.006	10.075997686767577	-0.143652099609375	-0.18076222534179687	5.53131103515625	-5.5084228515625	-0.67138671875	9.797671743774414	0.38187516479492184	0.16879121704101563	0.385284423828125	-4.85992431640625	-3.208160400390625	9.890447058105469	0.05566518859863281	-0.09935936889648436	3.437042236328125	-4.364013671875	-2.147674560546875	
163	0.652	0.0	0.0	0.0	0.0	-0.003	0.003	0.003	0.003	9.95987890625	-0.020949264526367185	-0.12330138549804687	8.0718994140625	-7.28607177734375	-1.0223388671875	9.682750064086914	0.28969840087890625	0.11252747802734374	0.14495849609375	-4.913330078125	-2.8533935546875	9.733626849365233	-0.04608838195800781	-0.0005985504150390625	3.513336181640625	-4.665374755859375	-2.37274169921875	
164	0.656	0.0	0.0	0.0	0.0	0.003	0.003	0.006	0.003	9.9215716796875	0.18076222534179687	0.06943184814453125	7.843017578125	-7.24029541015625	-0.789642333984375	9.665392102050781	0.430956298828125	0.28431144714355466	0.4425048828125	-4.756927490234375	-2.880096435546875	9.931148486328125	0.23582886352539062	-0.22505495605468748	3.871917724609375	-4.474639892578125	-1.911163330078125	
165	0.66	0.0	0.0	0.0	0.0	0.003	0.003	0.006	0.006	9.880271701049804	-0.23523031311035156	0.02693476867675781	7.2784423828125	-6.786346435546875	-1.194000244140625	9.797671743774414	0.2825157958984375	-0.003591302490234375	0.690460205078125	-5.115509033203125	-2.55584716796875	9.900622415161132	-0.17238251953125	-0.13108254089355467	3.505706787109375	-4.596710205078125	-2.22015380859375	
166	0.664	0.0	0.0	0.0	0.0	0.003	0.003	0.006	0.003	9.86291373901367	0.10115502014160156	0.15263035583496093	8.121490478515625	-7.232666015625	-0.881195068359375	9.904213717651366	0.32441432495117184	-0.04668693237304687	0.408172607421875	-5.0811767578125	-2.8839111328125	10.079588989257813	0.12808978881835936	-0.3555389465332031	3.79180908203125	-4.26483154296875	-2.25067138671875	
167	0.668	0.0	0.0	0.0	0.0	0.003	0.006	0.006	0.003	9.807847100830077	-0.3764882110595703	-0.017956512451171875	4.34112548828125	-4.791259765625	-1.220703125	9.627683425903319	0.3687070556640625	0.02693476867675781	0.31280517578125	-4.787445068359375	-2.681732177734375	9.680954412841796	-0.04249707946777344	-0.07481880187988281	3.63922119140625	-4.5166015625	-1.983642578125	
168	0.672	0.0	0.0	0.0	0.0	0.003	0.003	0.006	0.003	9.84435867614746	-0.7272387542724609	-0.11911153259277343	-0.67901611328125	-1.83868408203125	-0.63323974609375	9.918578927612304	0.3890577697753906	-0.0718260498046875	0.45013427734375	-4.772186279296875	-2.712249755859375	10.073004934692381	0.17417817077636719	-0.3268085266113281	3.89862060546875	-4.619598388671875	-2.140045166015625	
169	0.676	0.0	0.0	0.0	0.0	0.0	0.003	0.003	0.003	9.892841259765625	-0.5877765075683593	-0.1131260284423828	4.4097900390625	-5.115509033203125	-1.06048583984375	9.884461553955077	0.364517202758789	0.23044190979003906	0.02288818359375	-5.0048828125	-2.872467041015625	10.212467181396484	-0.14724340209960937	-0.2663549346923828	3.490447998046875	-4.657745361328125	-1.972198486328125	
170	0.68	0.0	0.0	0.0	0.0	0.003	0.006	0.003	0.003	9.731831198120117	-0.7110778930664062	0.1005564697265625	-0.81634521484375	-1.3580322265625	-0.637054443359375	9.781510882568359	0.46686932373046874	0.001197100830078125	0.52642822265625	-4.96673583984375	-2.72369384765625	9.928754284667969	0.24480711975097655	-0.2920926025390625	3.742218017578125	-4.383087158203125	-2.1514892578125	
171	0.684	0.0	0.0	0.0	0.0	0.003	0.003	0.003	0.006	9.777321029663085	-0.8032546569824218	0.13108254089355467	-2.666473388671875	0.30517578125	-0.5950927734375	9.771335525512695	0.4255693450927734	0.36571430358886714	0.1678466796875	-4.89044189453125	-2.864837646484375	10.046070166015625	-0.015562310791015624	-0.15861585998535155	3.80706787109375	-4.940032958984375	-1.651763916015625	
172	0.6880000000000001	0.0	0.0	0.0	0.0	0.006	0.003	0.003	0.003	9.743802206420899	-0.8547299926757812	0.15741875915527342	-3.147125244140625	0.614166259765625	-0.6256103515625	9.931148486328125	0.46627077331542965	0.12449848632812499	0.682830810546875	-5.184173583984375	-3.185272216796875	10.396820709228516	-0.051475335693359374	-0.6440402465820312	3.665924072265625	-4.47845458984375	-2.338409423828125	
173	0.6920000000000001	0.0	0.0	0.0	0.0	0.003	0.003	0.003	0.003	9.637858782958984	0.1388636962890625	0.5871779571533203	-2.0599365234375	-0.080108642578125	-0.347137451171875	9.773131176757811	0.4052186309814453	0.3962403747558593	0.17547607421875	-5.0201416015625	-3.10516357421875	10.075399136352539	-0.047884033203124995	-0.16160861206054686	3.5247802734375	-4.436492919921875	-1.865386962890625	
174	0.6960000000000001	0.0	0.0	0.0	0.0	0.006	0.003	0.003	0.003	9.67137760620117	-0.35793314819335936	0.2914940521240234	-4.070281982421875	0.79345703125	-0.385284423828125	9.83178911743164	0.5847837554931641	0.16340426330566404	0.6103515625	-4.917144775390625	-3.040313720703125	10.193912118530273	0.06883329772949218	-0.6637924102783203	3.787994384765625	-4.589080810546875	-2.1820068359375	
175	0.7000000000000001	0.0	0.0	0.0	0.0	0.003	0.003	0.003	0.006	9.74200655517578	0.35793314819335936	0.47105917663574215	-0.030517578125	-1.47247314453125	-0.766754150390625	9.788693487548828	0.43514615173339843	0.20350714111328125	-0.12969970703125	-5.054473876953125	-2.712249755859375	10.108917959594725	0.16819266662597654	-0.30047230834960936	3.757476806640625	-4.7454833984375	-1.89208984375	
176	0.704	0.0	0.0	0.0	0.0	0.003	0.006	0.003	0.003	10.15740054321289	0.3764882110595703	-0.3591302490234375	3.940582275390625	-4.38690185546875	-0.942230224609375	9.957484704589843	0.4878185882568359	0.10235212097167969	0.156402587890625	-4.78363037109375	-2.93731689453125	10.36809028930664	-0.105344873046875	-0.7613561279296874	3.520965576171875	-4.35638427734375	-2.44140625	
177	0.708	0.0	0.0	0.0	0.0	0.003	0.003	0.003	0.003	9.731232647705077	0.6572083557128906	0.38845921936035155	2.391815185546875	-3.215789794921875	-0.812530517578125	9.637858782958984	0.45070846252441404	0.2454056701660156	-0.308990478515625	-4.92095947265625	-2.60162353515625	9.925162982177733	0.29867665710449215	-0.2501940734863281	3.7384033203125	-4.619598388671875	-1.934051513671875	
178	0.712	0.0	0.0	0.0	0.0	0.003	0.006	0.003	0.003	10.082581741333007	0.3136404174804687	-0.354341845703125	5.79833984375	-5.7830810546875	-0.86212158203125	9.916783276367187	0.6488286499023437	0.06883329772949218	-0.164031982421875	-4.764556884765625	-2.7618408203125	10.359710583496094	-0.09995791931152344	-0.489015689086914	3.50189208984375	-4.878997802734375	-1.949310302734375	
179	0.716	0.0	0.0	0.0	0.0	0.003	0.003	0.006	0.009000000000000001	9.885658654785155	0.6075286712646484	0.07841010437011718	5.519866943359375	-5.462646484375	-0.93841552734375	9.823409411621093	0.20829554443359374	0.11192892761230468	-0.3509521484375	-4.634857177734375	-2.50244140625	10.123881719970703	0.15562310791015624	-0.2663549346923828	3.543853759765625	-4.772186279296875	-2.02178955078125	
180	0.72	0.0	0.0	0.0	0.0	0.003	0.003	0.006	0.003	9.991003527832031	0.07481880187988281	-0.2280477081298828	6.0272216796875	-5.98907470703125	-1.09100341796875	9.767145672607422	0.613514175415039	-0.10594342346191406	0.55694580078125	-4.9285888671875	-3.185272216796875	9.961076007080077	-0.1406593475341797	-0.4572925170898437	3.8299560546875	-4.63104248046875	-2.28118896484375	
181	0.724	0.0	0.0	0.0	0.0	0.003	0.003	0.003	0.003	9.812036953735351	-0.5847837554931641	0.08080430603027343	3.79180908203125	-4.66156005859375	-0.972747802734375	9.64025298461914	0.3280056274414062	0.30406361083984373	0.194549560546875	-4.6539306640625	-2.15911865234375	9.988609326171874	0.27293898925781246	-0.22744915771484372	3.528594970703125	-4.7454833984375	-1.934051513671875	
182	0.728	0.0	0.0	0.0	0.0	0.003	0.003	0.003	0.006	9.888052856445311	-0.08918401184082031	0.02154781494140625	3.48663330078125	-4.57000732421875	-0.934600830078125	9.877877499389648	0.5428852264404297	-0.1131260284423828	0.659942626953125	-4.84466552734375	-2.994537353515625	10.074202035522461	-0.19572598571777342	-0.4836287353515625	3.53240966796875	-4.9591064453125	-2.063751220703125	
183	0.732	0.0	0.0	0.0	0.0	0.003	0.003	0.003	0.003	9.900622415161132	-0.47704468078613277	0.007781155395507812	1.445770263671875	-2.81524658203125	-0.93841552734375	9.794678991699218	0.2214636535644531	0.17298106994628906	0.14495849609375	-4.627227783203125	-3.41033935546875	9.86351228942871	0.13347674255371092	-0.005985504150390624	3.86810302734375	-4.467010498046875	-2.5177001953125	
184	0.736	0.0	0.0	0.0	0.0	0.003	0.003	0.003	0.003	9.738415252685547	-0.001197100830078125	0.2855085479736328	1.79290771484375	-3.070831298828125	-0.644683837890625	9.789890588378906	0.4860229370117187	-0.025737667846679687	0.23651123046875	-4.657745361328125	-3.047943115234375	9.967061511230469	-0.11013327636718749	-0.3902548706054687	3.5552978515625	-4.863739013671875	-2.109527587890625	
185	0.74	0.0	0.0	0.0	0.0	0.003	0.006	0.003	0.006	9.920374578857421	-0.20530279235839843	-0.07062894897460938	0.850677490234375	-2.559661865234375	-0.98419189453125	9.74799205932617	0.3854664672851562	0.17597382202148437	0.255584716796875	-4.81414794921875	-3.093719482421875	9.780912332153319	0.15382745666503905	0.015562310791015624	3.620147705078125	-4.428863525390625	-2.3956298828125	
186	0.744	0.0	0.0	0.0	0.0	0.003	0.003	0.003	0.003	10.006565838623047	-0.023942016601562498	-0.2549824768066406	3.795623779296875	-4.8370361328125	-0.881195068359375	9.797073193359374	0.22744915771484372	0.05027823486328125	0.2593994140625	-5.153656005859375	-2.98309326171875	9.843760125732421	-0.11192892761230468	0.031124621582031248	3.875732421875	-4.642486572265625	-2.08282470703125	
187	0.748	0.0	0.0	0.0	0.0	0.003	0.006	0.006	0.003	9.957484704589843	-0.05087678527832031	-0.11013327636718749	2.98309326171875	-3.9215087890625	-1.07574462890625	9.6917283203125	0.42377369384765623	0.23882161560058593	-0.080108642578125	-5.001068115234375	-2.986907958984375	9.797671743774414	0.14305354919433594	-0.055066638183593745	3.59344482421875	-4.53948974609375	-2.31170654296875	
188	0.752	0.0	0.0	0.0	0.0	0.009000000000000001	0.006	0.006	0.003	9.912593423461914	-0.086191259765625	-0.14604630126953125	4.791259765625	-5.3863525390625	-0.9765625	9.714473236083984	0.28012159423828126	0.051475335693359374	0.598907470703125	-5.45501708984375	-2.777099609375	9.785102185058593	0.015562310791015624	0.011372457885742187	3.6773681640625	-4.917144775390625	-1.86920166015625	
189	0.756	0.0	0.0	0.0	0.0	0.003	0.003	0.003	0.003	9.873089096069336	-0.16160861206054686	0.17657237243652343	4.993438720703125	-4.791259765625	-0.74005126953125	9.781510882568359	0.44053310546874996	0.1753752716064453	0.732421875	-4.848480224609375	-2.964019775390625	10.062829577636718	-0.1197100830078125	-0.23223756103515625	3.826141357421875	-4.604339599609375	-2.3193359375	
190	0.76	0.0	0.0	0.0	0.0	0.006	0.003	0.003	0.003	9.93354268798828	-0.1352723937988281	-0.18435352783203124	4.795074462890625	-4.8828125	-0.93841552734375	9.785102185058593	0.33099837951660155	-0.0430956298828125	0.6103515625	-4.894256591796875	-2.941131591796875	9.879673150634765	0.0652419952392578	-0.03172317199707031	3.513336181640625	-4.650115966796875	-2.040863037109375	
191	0.764	0.0	0.0	0.0	0.0	0.003	0.003	0.003	0.006	9.897629663085937	-0.41838674011230464	0.11611878051757812	3.047943115234375	-3.971099853515625	-0.835418701171875	9.758765966796874	0.430956298828125	0.19393033447265623	0.6103515625	-4.985809326171875	-2.971649169921875	10.047267266845703	-0.12808978881835936	-0.17477672119140625	3.604888916015625	-4.566192626953125	-2.201080322265625	
192	0.768	0.0	0.0	0.0	0.0	0.006	0.003	0.006	0.003	9.889249957275391	-0.35194764404296874	-0.13826514587402344	3.662109375	-4.695892333984375	-0.92315673828125	9.80006594543457	0.3226186737060547	0.29448680419921874	-0.049591064453125	-4.955291748046875	-2.76947021484375	9.830592016601562	0.15023615417480468	-0.12330138549804687	3.704071044921875	-4.7607421875	-1.91497802734375	
193	0.772	0.0	0.0	0.0	0.0	0.0	0.006	0.006	0.003	9.935338339233398	-0.5147533569335937	0.0005985504150390625	2.57110595703125	-3.73077392578125	-0.591278076171875	9.790489138793944	0.3687070556640625	0.1388636962890625	0.278472900390625	-4.608154296875	-2.899169921875	10.071209283447265	-0.16639701538085935	-0.28371289672851563	3.662109375	-4.482269287109375	-2.22015380859375	
194	0.776	0.0	0.0	0.0	0.0	0.006	0.003	0.003	0.003	9.812036953735351	-0.27353753967285155	0.43155484924316406	2.0599365234375	-3.1280517578125	-0.583648681640625	9.85752678527832	0.3746925598144531	0.2902969512939453	0.347137451171875	-5.279541015625	-2.777099609375	10.137049829101562	0.23343466186523437	-0.15682020874023436	3.688812255859375	-4.871368408203125	-1.983642578125	
195	0.78	0.0	0.0	0.0	0.0	0.003	0.003	0.006	0.006	9.91438907470703	-0.3854664672851562	-0.05027823486328125	3.421783447265625	-4.21905517578125	-0.766754150390625	9.923367330932617	0.4836287353515625	0.013168109130859374	0.87738037109375	-4.9285888671875	-2.95257568359375	10.073603485107421	-0.19512743530273435	-0.3172317199707031	3.59344482421875	-4.436492919921875	-2.23541259765625	
196	0.784	0.0	0.0	0.0	0.0	0.0	0.003	0.006	4.587	9.759963067626952	-0.21428104858398436	0.3908534210205078	1.857757568359375	-3.0670166015625	-0.70953369140625	9.781510882568359	0.4261678955078125	0.2771288421630859	0.09918212890625	-5.218505859375	-2.67791748046875	10.01733974609375	0.2902969512939453	-0.15442600708007811	3.620147705078125	-4.70733642578125	-1.979827880859375	
197	0.788	0.0	0.0	0.0	0.0	4.59	4.641	4.638	4.596	9.87608184814453	-0.5285200164794922	0.0005985504150390625	-0.728607177734375	-1.27410888671875	-0.820159912109375	9.990404977416992	0.46208092041015625	0.008379705810546874	0.51116943359375	-4.7454833984375	-2.948760986328125	10.31003089904785	-0.08439560852050781	-0.5033808990478515	3.696441650390625	-4.703521728515625	-1.796722412109375	
198	0.792	0.0	0.0	0.0	0.0	4.59	4.641	4.635	4.605	9.791686239624022	-0.22685060729980466	0.32441432495117184	1.53350830078125	-2.574920654296875	-0.675201416015625	9.887454306030273	0.41539398803710936	0.1849520782470703	-0.091552734375	-5.07354736328125	-2.83050537109375	10.169371551513672	0.2184709014892578	-0.21906945190429686	3.490447998046875	-4.459381103515625	-2.178192138671875	
199	0.796	0.0	0.0	0.0	0.0	4.605	4.641	4.647	4.587	9.871293444824218	-0.05087678527832031	0.06464344482421874	-0.75531005859375	-1.42669677734375	-0.789642333984375	9.891045608520507	0.5321113189697265	0.008379705810546874	1.033782958984375	-4.871368408203125	-3.13568115234375	10.171765753173828	-0.047884033203124995	-0.4656722229003906	3.391265869140625	-4.66156005859375	-1.705169677734375	
200	0.8	0.0	0.0	0.0	0.0	4.605	4.641	4.641	4.575	9.747393508911133	-0.2214636535644531	0.3603273498535156	1.781463623046875	-2.941131591796875	-0.667572021484375	9.676166009521484	0.6003460662841796	0.3591302490234375	-0.0457763671875	-5.222320556640625	-2.666473388671875	9.931148486328125	0.2184709014892578	-0.13646949462890623	3.452301025390625	-4.810333251953125	-2.47955322265625	
201	0.804	0.0	0.0	0.0	0.0	4.602	4.641	4.641	4.5840000000000005	9.906607919311522	-0.2549824768066406	0.06703764648437499	-0.797271728515625	-1.36566162109375	-0.49591064453125	10.008361489868163	0.49021278991699213	-0.028730419921875	0.637054443359375	-4.764556884765625	-3.108978271484375	10.303446844482421	-0.13587094421386717	-0.39983167724609375	3.7689208984375	-4.7149658203125	-2.063751220703125	
202	0.808	0.0	0.0	0.0	0.0	4.602	4.632	4.641	4.596	9.874884747314452	-0.076614453125	0.01975216369628906	0.865936279296875	-2.49481201171875	-0.96893310546875	9.677363110351562	0.45070846252441404	0.25258827514648435	-0.041961669921875	-4.993438720703125	-2.681732177734375	9.982623822021484	0.08738836059570312	-0.1562216583251953	3.5247802734375	-4.642486572265625	-2.532958984375	
203	0.812	0.0	0.0	0.0	0.0	4.602	4.647	4.644	4.599	9.925162982177733	-0.015562310791015624	-0.08020575561523437	0.38909912109375	-2.197265625	-0.782012939453125	9.832986218261718	0.575206948852539	-0.037110125732421874	0.43487548828125	-4.9591064453125	-3.0975341796875	10.153809240722655	0.09636661682128905	-0.5620388397216797	3.429412841796875	-3.910064697265625	-1.86920166015625	
204	0.8160000000000001	0.0	0.0	0.0	0.0	4.596	4.644	4.641	4.596	9.829993466186522	-0.0909796630859375	0.1005564697265625	1.89208984375	-3.192901611328125	-0.9613037109375	9.767145672607422	0.4267664459228515	0.27832594299316404	0.1678466796875	-5.22613525390625	-2.887725830078125	10.006565838623047	0.027533319091796873	-0.04249707946777344	3.643035888671875	-4.932403564453125	-2.2735595703125	
205	0.8200000000000001	0.0	0.0	0.0	0.0	4.593	4.641	4.632	4.602	9.961674557495117	-0.4626794708251953	-0.14724340209960937	-0.179290771484375	-1.682281494140625	-0.98419189453125	10.01075569152832	0.3848679168701172	-0.17776947326660156	0.54168701171875	-4.947662353515625	-3.18145751953125	10.147225186157225	0.08798691101074219	-0.33099837951660155	3.582000732421875	-4.924774169921875	-2.00653076171875	
206	0.8240000000000001	0.0	0.0	0.0	0.0	4.602	4.641	4.644	4.5840000000000005	9.764152920532226	-0.15442600708007811	0.13287819213867186	0.6866455078125	-2.29644775390625	-0.720977783203125	9.540893615722656	0.5716156463623047	0.3028665100097656	0.194549560546875	-4.7149658203125	-3.421783447265625	9.804255798339844	0.21308394775390624	-0.10175357055664062	3.566741943359375	-4.78363037109375	-2.399444580078125	
207	0.8280000000000001	0.0	0.0	0.0	0.0	4.611	4.641	4.644	4.575	9.837176071166992	0.06404489440917968	0.10773907470703124	1.3275146484375	-3.009796142578125	-0.6256103515625	9.909600671386718	0.36810850524902344	0.023942016601562498	0.545501708984375	-4.894256591796875	-2.90679931640625	10.053252770996092	0.23044190979003906	-0.31962592163085934	3.314971923828125	-4.756927490234375	-1.9073486328125	
208	0.8320000000000001	0.0	0.0	0.0	0.0	4.605	0.006	0.003	0.006	9.89583401184082	-0.21009119567871093	0.07242460021972656	0.95367431640625	-2.552032470703125	-1.3427734375	9.818022457885741	0.4608838195800781	0.2316390106201172	0.102996826171875	-4.848480224609375	-3.2958984375	9.956287603759765	-0.3058592620849609	-0.010773907470703125	3.849029541015625	-4.791259765625	-2.658843994140625	
209	0.836	0.0	0.0	0.0	0.0	0.003	0.003	0.006	0.006	9.874884747314452	0.2328361114501953	0.03531447448730469	2.28118896484375	-3.047943115234375	-0.667572021484375	9.63307037963867	0.2663549346923828	0.2753331909179687	0.080108642578125	-5.0048828125	-3.322601318359375	9.880271701049804	0.26276363220214843	-0.3112462158203125	3.57818603515625	-4.840850830078125	-2.208709716796875	
210	0.84	0.0	0.0	0.0	0.0	0.003	0.003	0.003	0.003	9.758765966796874	-0.24959552307128904	0.20231004028320312	5.035400390625	-4.87518310546875	-0.52642822265625	9.612719665527344	0.6015431671142578	0.23582886352539062	0.370025634765625	-5.153656005859375	-3.13568115234375	9.625887774658203	0.028131869506835935	0.017956512451171875	3.6468505859375	-4.46319580078125	-2.277374267578125	
211	0.844	0.0	0.0	0.0	0.0	0.006	0.006	0.003	0.006	10.031106405639648	-0.034715924072265626	-0.11432312927246092	1.697540283203125	-2.7923583984375	-0.78582763671875	9.885658654785155	0.17896657409667968	0.16160861206054686	0.232696533203125	-5.14984130859375	-3.070831298828125	9.993996279907225	0.029328970336914062	-0.029927520751953124	3.582000732421875	-4.7454833984375	-2.269744873046875	
212	0.848	0.0	0.0	0.0	0.0	0.006	0.006	0.006	0.006	9.955689053344726	0.04608838195800781	-0.05327098693847656	6.05010986328125	-5.695343017578125	-1.0833740234375	9.765948571777344	0.30346506042480464	0.15682020874023436	0.03814697265625	-4.566192626953125	-3.032684326171875	9.749189160156249	-0.143652099609375	0.010175357055664061	3.589630126953125	-4.39453125	-2.490997314453125	
213	0.852	0.0	0.0	0.0	0.0	0.003	0.003	0.003	0.003	9.917980377197265	0.4387374542236328	-0.08379705810546874	4.314422607421875	-4.779815673828125	-0.782012939453125	9.545682019042967	0.3938461730957031	0.26755203552246093	-0.034332275390625	-4.57000732421875	-2.76947021484375	9.63366893005371	0.28969840087890625	-0.08678981018066406	3.692626953125	-4.505157470703125	-2.117156982421875	
214	0.856	0.0	0.0	0.0	0.0	0.006	0.006	0.003	0.003	9.896432562255859	-0.00718260498046875	0.11432312927246092	7.053375244140625	-6.755828857421875	-0.759124755859375	9.773131176757811	0.36810850524902344	0.1388636962890625	0.125885009765625	-4.913330078125	-3.086090087890625	9.954491952514648	-0.13587094421386717	-0.10893617553710937	3.6468505859375	-4.299163818359375	-2.597808837890625	
215	0.86	0.0	0.0	0.0	0.0	0.006	0.003	0.006	0.003	9.982025271606444	-0.5297171173095703	-0.06763619689941405	5.462646484375	-5.718231201171875	-1.178741455078125	9.923965881347655	0.09457096557617187	0.07781155395507812	0.26702880859375	-4.993438720703125	-2.4871826171875	9.98561657409668	-0.18255787658691405	-0.19033903198242186	3.620147705078125	-4.589080810546875	-2.5177001953125	
216	0.864	0.0	0.0	0.0	0.0	0.006	0.003	0.003	0.003	9.904812268066406	0.062249243164062495	0.05386953735351562	6.40106201171875	-5.8441162109375	-0.957489013671875	9.593566052246093	0.5626373901367188	0.06045359191894531	0.247955322265625	-4.505157470703125	-3.11279296875	9.963470208740233	0.23702596435546874	-0.5033808990478515	3.940582275390625	-4.3182373046875	-2.23541259765625	
217	0.868	0.0	0.0	0.0	0.0	0.006	0.006	0.003	0.003	9.819219558715819	-0.30047230834960936	0.1514332550048828	5.191802978515625	-5.7373046875	-0.72479248046875	9.720458740234374	0.35194764404296874	0.16280571289062498	0.19073486328125	-5.05828857421875	-2.532958984375	9.821613760375977	-0.05386953735351562	-0.06105214233398437	3.79180908203125	-4.817962646484375	-1.96075439453125	
218	0.872	0.0	0.0	0.0	0.0	0.0	0.003	0.003	0.003	10.024522351074218	-0.3268085266113281	-0.07422025146484375	6.72149658203125	-6.5460205078125	-0.91552734375	10.084377392578125	0.17357962036132812	-0.14305354919433594	0.568389892578125	-5.2337646484375	-2.96783447265625	10.268730920410155	-0.12808978881835936	-0.33099837951660155	3.665924072265625	-4.44793701171875	-2.20489501953125	
219	0.876	0.0	0.0	0.0	0.0	0.003	0.003	0.003	0.003	9.90122096557617	-0.6643909606933593	-0.04249707946777344	3.387451171875	-4.146575927734375	-0.888824462890625	9.758167416381836	0.3752911102294922	0.04908113403320312	0.301361083984375	-4.978179931640625	-2.727508544921875	10.132859976196288	-0.052073886108398436	-0.48183308410644526	3.4942626953125	-4.421234130859375	-1.949310302734375	
220	0.88	0.0	0.0	0.0	0.0	0.006	0.006	0.003	0.006	9.68454571533203	-0.4255693450927734	0.14544775085449219	-0.96893310546875	-1.155853271484375	-0.675201416015625	9.762955819702148	0.536899722290039	0.05566518859863281	0.90789794921875	-5.153656005859375	-2.841949462890625	9.8694977935791	0.28790274963378903	-0.2136824981689453	3.765106201171875	-4.428863525390625	-1.842498779296875	
221	0.884	0.0	0.0	0.0	0.0	0.003	0.006	0.003	0.003	9.855731134033203	-0.7302315063476562	0.14544775085449219	4.119873046875	-4.5318603515625	-0.988006591796875	9.886257205200195	0.027533319091796873	0.09457096557617187	0.492095947265625	-4.66156005859375	-2.948760986328125	10.243591802978514	-0.27952304382324217	-0.1975216369628906	3.6773681640625	-4.764556884765625	-1.922607421875	
222	0.888	0.0	0.0	0.0	0.0	0.003	0.006	0.006	0.003	9.849745629882811	-0.6793547210693359	0.017956512451171875	-1.190185546875	-0.95367431640625	-0.762939453125	10.016142645263672	0.4842272857666015	-0.17477672119140625	0.759124755859375	-4.78363037109375	-2.899169921875	10.432733734130858	-0.04189852905273437	-0.7003039855957031	3.753662109375	-4.573822021484375	-2.4871826171875	
223	0.892	0.0	0.0	0.0	0.0	0.003	0.003	0.006	0.0	9.724050042724608	-0.7344213592529296	0.16220716247558592	-1.8157958984375	-2.445220947265625	-0.713348388671875	9.559448678588867	0.59376201171875	0.44532150878906246	0.041961669921875	-4.985809326171875	-2.941131591796875	9.887454306030273	0.08678981018066406	-0.18255787658691405	3.520965576171875	-4.70733642578125	-1.7242431640625	
224	0.896	0.0	0.0	0.0	0.0	0.006	0.003	0.003	0.006	9.675567459106444	-0.46507367248535153	0.32082302246093747	-2.979278564453125	-0.019073486328125	-0.759124755859375	9.90900212097168	0.3178302703857422	0.11432312927246092	0.93841552734375	-4.8828125	-2.811431884765625	10.260949765014647	-0.023343466186523436	-0.469862075805664	3.849029541015625	-4.619598388671875	-2.18963623046875	
225	0.9	0.0	0.0	0.0	0.0	0.003	0.003	0.003	0.003	9.771335525512695	0.09277531433105468	0.3956418243408203	-0.7476806640625	-1.155853271484375	-0.827789306640625	9.941922393798828	0.38187516479492184	0.32620997619628905	0.213623046875	-4.85992431640625	-3.147125244140625	10.384849700927735	-0.17657237243652343	-0.45669396667480466	3.5552978515625	-4.734039306640625	-2.02178955078125	
226	0.904	0.0	0.0	0.0	0.0	0.003	0.006	0.003	0.006	9.680954412841796	-0.1580173095703125	0.2753331909179687	-3.662109375	0.812530517578125	-0.553131103515625	9.76894132385254	0.5321113189697265	0.201112939453125	0.278472900390625	-4.64630126953125	-3.30352783203125	10.070012182617187	0.16699556579589842	-0.5297171173095703	3.658294677734375	-4.47845458984375	-2.4261474609375	
227	0.908	0.0	0.0	0.0	0.0	0.003	0.003	0.006	0.006	9.634267480468749	0.6344634399414062	0.5219359619140624	0.152587890625	-1.689910888671875	-0.640869140625	9.651026892089844	0.3315969299316406	0.7212532501220703	0.25177001953125	-4.871368408203125	-3.116607666015625	9.828197814941406	0.26874913635253905	-0.017357962036132813	3.70025634765625	-4.70733642578125	-1.781463623046875	
228	0.912	0.0	0.0	0.0	0.0	0.003	0.003	0.003	0.006	10.180145458984374	0.37229835815429685	-0.30346506042480464	4.8828125	-5.474090576171875	-1.007080078125	10.101136804199218	0.4632780212402344	-0.015562310791015624	0.16021728515625	-5.069732666015625	-2.90679931640625	10.503961233520506	-0.13766659545898435	-0.7206546997070312	3.887176513671875	-4.85992431640625	-2.410888671875	
229	0.916	0.0	0.0	0.0	0.0	0.006	0.003	0.006	0.009000000000000001	9.866505041503906	0.5955576629638671	0.10893617553710937	2.964019775390625	-3.35693359375	-0.9002685546875	9.758167416381836	0.30346506042480464	0.12449848632812499	-0.186920166015625	-4.726409912109375	-3.05938720703125	9.970054263305663	0.2214636535644531	-0.17058686828613281	3.6163330078125	-4.6844482421875	-2.0599365234375	
230	0.92	0.0	0.0	0.0	0.0	0.006	0.003	0.006	0.003	9.9215716796875	0.46028526916503903	-0.05746083984375	5.496978759765625	-5.573272705078125	-0.827789306640625	9.749189160156249	0.6542156036376953	0.21009119567871093	0.23651123046875	-4.6844482421875	-2.7923583984375	9.740809454345703	-0.03531447448730469	-0.2771288421630859	3.5400390625	-4.756927490234375	-2.20489501953125	
231	0.924	0.0	0.0	0.0	0.0	0.006	0.003	0.006	0.003	9.916184725952148	0.32620997619628905	0.03232172241210937	4.810333251953125	-5.16510009765625	-1.049041748046875	9.835380419921874	0.2561795776367187	0.10594342346191406	-0.179290771484375	-5.054473876953125	-2.78472900390625	10.129268673706054	0.17896657409667968	-0.21487959899902342	3.345489501953125	-5.3253173828125	-1.7242431640625	
232	0.928	0.0	0.0	0.0	0.0	0.006	0.003	0.003	0.006	10.01075569152832	-0.06284779357910156	-0.17118541870117188	5.21087646484375	-5.40924072265625	-1.041412353515625	9.87608184814453	0.40761283264160153	-0.08738836059570312	0.49591064453125	-4.85992431640625	-3.200531005859375	10.17056865234375	-0.2819172454833984	-0.5237316131591797	3.509521484375	-4.5928955078125	-2.384185791015625	
233	0.932	0.0	0.0	0.0	0.0	0.006	0.003	0.003	0.003	9.746794958496093	-0.32920272827148434	0.17836802368164062	3.4942626953125	-3.910064697265625	-1.44195556640625	9.503184939575196	0.4848258361816406	0.45669396667480466	0.1983642578125	-4.9285888671875	-2.964019775390625	9.732429748535155	0.3136404174804687	-0.003591302490234375	3.879547119140625	-4.657745361328125	-2.468109130859375	
234	0.936	0.0	0.0	0.0	0.0	0.006	0.003	0.003	0.006	9.771335525512695	0.01975216369628906	0.3136404174804687	3.662109375	-4.47845458984375	-0.576019287109375	9.70968483276367	0.49260699157714843	0.19512743530273435	0.507354736328125	-5.25665283203125	-3.360748291015625	9.930549935913085	-0.07481880187988281	-0.2759317413330078	3.4942626953125	-4.917144775390625	-2.048492431640625	
235	0.9400000000000001	0.0	0.0	0.0	0.0	0.003	0.006	0.003	0.006	9.917980377197265	-0.42975919799804685	0.03950432739257812	2.72369384765625	-3.34930419921875	-0.988006591796875	9.817423907470703	0.24181436767578124	0.20231004028320312	0.29754638671875	-4.81414794921875	-3.16619873046875	10.069413632202147	0.020949264526367185	-0.08140285644531249	3.7384033203125	-4.718780517578125	-2.44903564453125	
236	0.9440000000000001	0.0	0.0	0.0	0.0	0.006	0.006	0.003	0.003	9.79946739501953	0.07422025146484375	0.23044190979003906	2.086639404296875	-3.387451171875	-0.86212158203125	9.756970315551758	0.49260699157714843	0.07242460021972656	0.408172607421875	-5.031585693359375	-3.276824951171875	9.938929641723632	-0.030526071166992186	-0.4291606475830078	3.59344482421875	-4.566192626953125	-2.0904541015625	
237	0.9480000000000001	0.0	0.0	0.0	0.0	0.003	0.006	0.006	0.006	9.787496386718749	-0.04189852905273437	0.2454056701660156	3.131866455078125	-3.940582275390625	-0.614166259765625	9.469666116333007	0.469263525390625	0.4465186096191406	-0.217437744140625	-4.619598388671875	-2.79998779296875	9.625289224243163	0.26695348510742184	0.062249243164062495	3.86810302734375	-4.72259521484375	-2.20489501953125	
238	0.9520000000000001	0.0	0.0	0.0	0.0	0.006	0.003	0.006	0.0	10.037091909790039	-0.4070142822265625	-0.239420166015625	3.482818603515625	-5.001068115234375	-0.701904296875	9.935338339233398	0.23403321228027343	0.05087678527832031	0.637054443359375	-5.27191162109375	-2.6092529296875	9.9981861328125	-0.058657940673828124	-0.013766659545898436	3.5858154296875	-4.657745361328125	-2.00653076171875	
239	0.9560000000000001	0.0	0.0	0.0	0.0	0.006	0.003	0.003	0.003	9.937732540893554	-0.21487959899902342	-0.0017956512451171875	5.649566650390625	-5.550384521484375	-0.91552734375	9.688137017822266	0.373495458984375	0.18914193115234373	0.3204345703125	-4.604339599609375	-3.192901611328125	9.8694977935791	0.05985504150390625	-0.18734627990722655	3.68499755859375	-4.329681396484375	-2.55584716796875	
240	0.96	0.0	0.0	0.0	0.0	0.003	0.003	0.006	0.006	9.8449572265625	-0.2376245147705078	-0.05087678527832031	3.833770751953125	-4.6844482421875	-0.598907470703125	9.643844287109374	0.41359833679199215	0.15502455749511718	0.537872314453125	-5.130767822265625	-2.6702880859375	9.631274728393555	0.25917232971191406	0.07781155395507812	3.604888916015625	-4.718780517578125	-1.911163330078125	
241	0.964	0.0	0.0	0.0	0.0	0.009000000000000001	0.003	0.003	0.003	9.938331091308592	-0.354341845703125	0.10893617553710937	2.47955322265625	-3.528594970703125	-0.644683837890625	9.649829791259766	0.3130418670654297	0.3220201232910156	1.07574462890625	-5.290985107421875	-2.6092529296875	10.09395419921875	-0.09217676391601562	-0.2555810272216797	3.696441650390625	-4.405975341796875	-1.949310302734375	
242	0.968	0.0	0.0	0.0	0.0	0.003	0.006	0.003	0.003	10.040084661865233	-0.46627077331542965	-0.1640028137207031	4.53948974609375	-4.734039306640625	-1.1444091796875	9.981426721191406	0.3010708587646484	-0.1292868896484375	0.545501708984375	-5.36346435546875	-2.811431884765625	10.095151300048828	0.08978256225585937	-0.2376245147705078	3.711700439453125	-4.528045654296875	-2.06756591796875	
243	0.972	0.0	0.0	0.0	0.0	0.0	0.003	0.006	4.578	9.82580361328125	-0.4495113616943359	-0.04369418029785156	1.323699951171875	-2.826690673828125	-0.873565673828125	9.739612353515625	0.5093664031982421	0.14305354919433594	0.568389892578125	-4.61578369140625	-2.777099609375	10.002974536132811	-0.10953472595214843	-0.30466216125488277	3.818511962890625	-4.52423095703125	-2.437591552734375	
244	0.976	0.0	0.0	0.0	0.0	4.59	4.638	4.641	4.599	9.886855755615233	-0.33518823242187495	0.029927520751953124	3.326416015625	-4.2572021484375	-0.675201416015625	9.7545761138916	0.5087678527832031	0.06763619689941405	0.64849853515625	-5.13458251953125	-2.613067626953125	9.97843396911621	0.411802685546875	-0.18914193115234373	3.5247802734375	-4.734039306640625	-2.02178955078125	
245	0.98	0.0	0.0	0.0	0.0	4.596	4.638	4.641	4.602	9.96047745666504	-0.5243301635742187	-0.17058686828613281	2.35748291015625	-3.643035888671875	-0.637054443359375	9.980828170776366	0.24959552307128904	0.033518823242187495	0.606536865234375	-4.69207763671875	-3.047943115234375	10.369885940551757	-0.3345896820068359	-0.5279214660644531	3.875732421875	-4.608154296875	-2.399444580078125	
246	0.984	0.0	0.0	0.0	0.0	4.602	4.641	4.632	4.593	9.718064538574218	-0.15502455749511718	0.36092590026855464	1.89971923828125	-3.13568115234375	-0.873565673828125	9.87727894897461	0.4734533782958984	0.26815058593749996	-0.06866455078125	-5.016326904296875	-2.81524658203125	10.190919366455077	0.21966800231933592	-0.3806780639648437	3.50189208984375	-4.367828369140625	-2.0751953125	
247	0.988	0.0	0.0	0.0	0.0	4.599	4.638	4.644	4.578	9.779715231323241	-0.2914940521240234	0.13587094421386717	2.7923583984375	-3.7384033203125	-0.751495361328125	9.64025298461914	0.5093664031982421	0.26216508178710934	0.54931640625	-4.9285888671875	-3.131866455078125	9.964667309570311	-0.08798691101074219	-0.31962592163085934	3.803253173828125	-4.634857177734375	-2.09808349609375	
248	0.992	0.0	0.0	0.0	0.0	4.602	4.638	4.641	4.575	9.698910925292969	0.08678981018066406	0.37888241271972656	2.54058837890625	-3.299713134765625	-0.843048095703125	9.92755718383789	0.35673604736328124	0.2262520568847656	0.06103515625	-5.146026611328125	-2.468109130859375	10.283096130371094	0.1693897674560547	-0.4147954376220703	3.662109375	-4.734039306640625	-2.0599365234375	
249	0.996	0.0	0.0	0.0	0.0	4.6080000000000005	4.638	4.644	4.596	9.950900650024414	-0.21787235107421873	-0.12629413757324218	3.42559814453125	-3.894805908203125	-0.865936279296875	10.053252770996092	0.32082302246093747	-0.11791443176269531	0.91552734375	-4.848480224609375	-3.204345703125	10.248978756713866	-0.24839842224121092	-0.29269115295410153	3.814697265625	-4.512786865234375	-2.147674560546875	
250	1.0	0.0	0.0	0.0	0.0	4.605	4.644	4.641	4.593	9.588777648925781	0.13287819213867186	0.4064157318115234	2.613067626953125	-3.45611572265625	-0.812530517578125	9.758765966796874	0.41419688720703124	0.19871873779296872	0.28228759765625	-4.96673583984375	-2.532958984375	10.02332525024414	0.37229835815429685	-0.6009446166992187	3.62396240234375	-4.9591064453125	-2.14385986328125	
251	1.004	0.0	0.0	0.0	0.0	4.599	4.641	4.644	4.599	9.885060104370117	-0.17178396911621094	-0.023942016601562498	-0.43487548828125	-1.861572265625	-0.69427490234375	9.925162982177733	0.4830301849365234	-0.08678981018066406	0.42724609375	-5.191802978515625	-2.43377685546875	10.169371551513672	-0.023942016601562498	-0.5877765075683593	3.383636474609375	-4.817962646484375	-1.430511474609375	
252	1.008	0.0	0.0	0.0	0.0	4.593	4.641	4.638	4.6080000000000005	9.764751470947266	-0.2280477081298828	0.07601590270996093	2.529144287109375	-3.658294677734375	-0.91552734375	9.816226806640625	0.4255693450927734	0.09576806640624999	0.32806396484375	-4.810333251953125	-2.92205810546875	10.150217938232421	-0.07841010437011718	-0.21966800231933592	3.74603271484375	-4.642486572265625	-2.37274169921875	
253	1.012	0.0	0.0	0.0	0.0	4.6080000000000005	0.003	0.003	0.006	9.832986218261718	-0.25438392639160157	-0.0718260498046875	-0.8697509765625	-1.209259033203125	-0.705718994140625	9.840767373657226	0.469263525390625	-0.105344873046875	0.72479248046875	-4.840850830078125	-2.78472900390625	10.19570776977539	0.002992752075195312	-0.6871358764648438	3.589630126953125	-4.596710205078125	-2.025604248046875	
254	1.016	0.0	0.0	0.0	0.0	0.003	0.003	0.003	0.003	9.570821136474608	-0.13766659545898435	0.26276363220214843	-0.652313232421875	-1.64031982421875	-0.720977783203125	9.549871871948241	0.6590040069580078	0.2615665313720703	0.476837158203125	-5.077362060546875	-2.90679931640625	9.821015209960937	0.16759411621093748	-0.14784195251464843	3.772735595703125	-5.031585693359375	-2.4261474609375	
255	1.02	0.0	0.0	0.0	0.0	0.003	0.003	0.006	0.003	9.887454306030273	-0.37229835815429685	0.014963760375976562	-1.132965087890625	-0.9307861328125	-0.690460205078125	9.89583401184082	0.22266075439453123	0.05805939025878906	0.286102294921875	-5.126953125	-3.28826904296875	10.147823736572265	0.025139117431640625	-0.43514615173339843	3.643035888671875	-5.016326904296875	-1.96075439453125	
256	1.024	0.0	0.0	0.0	0.0	0.006	0.003	0.003	0.003	9.982623822021484	-0.15861585998535155	-0.04848258361816406	-0.09918212890625	-1.7242431640625	-1.087188720703125	9.74799205932617	0.6398503936767578	0.025737667846679687	0.1678466796875	-4.543304443359375	-3.05938720703125	10.085574493408203	-0.054468087768554684	-0.29927520751953124	3.597259521484375	-4.55474853515625	-2.349853515625	
257	1.028	0.0	0.0	0.0	0.0	0.009000000000000001	0.003	0.003	0.006	9.7162688873291	0.05686228942871093	0.22565350646972654	-2.166748046875	-0.67138671875	-0.461578369140625	9.623493572998047	0.29867665710449215	0.24061726684570311	0.09918212890625	-4.894256591796875	-2.98309326171875	9.840767373657226	0.22385785522460935	-0.3938461730957031	3.62396240234375	-4.711151123046875	-1.89971923828125	
258	1.032	0.0	0.0	0.0	0.0	0.006	0.003	0.003	0.003	9.923965881347655	-0.040701428222656245	-0.06045359191894531	0.83160400390625	-2.582550048828125	-0.965118408203125	9.666589202880859	0.536899722290039	0.1322796417236328	0.392913818359375	-4.7607421875	-3.1585693359375	10.073004934692381	-0.02454056701660156	-0.33758243408203126	3.894805908203125	-4.650115966796875	-2.094268798828125	
259	1.036	0.0	0.0	0.0	0.0	0.006	0.003	0.003	0.006	10.087968695068358	-0.047285482788085934	-0.39803602600097654	4.497528076171875	-5.184173583984375	-0.995635986328125	9.893439810180663	0.08200140686035155	0.10714052429199218	-0.02288818359375	-4.657745361328125	-3.13568115234375	10.140641131591796	-0.052073886108398436	-0.5285200164794922	3.7078857421875	-4.81414794921875	-2.285003662109375	
260	1.04	0.0	0.0	0.0	0.0	0.006	0.003	0.003	0.003	9.910797772216796	0.062249243164062495	-0.052073886108398436	1.495361328125	-2.96783447265625	-0.92315673828125	9.576806640625	0.5919663604736328	0.17477672119140625	0.095367431640625	-4.94384765625	-3.192901611328125	9.6917283203125	0.037708676147460936	-0.09636661682128905	3.620147705078125	-4.41741943359375	-2.3651123046875	
261	1.044	0.0	0.0	0.0	0.0	0.003	0.003	0.006	0.003	9.94730934753418	0.25139117431640623	-0.2609679809570312	5.79071044921875	-5.931854248046875	-0.789642333984375	9.724050042724608	0.32022447204589843	0.2765302917480469	0.293731689453125	-5.130767822265625	-2.666473388671875	9.929352835083007	0.06105214233398437	-0.469263525390625	3.814697265625	-4.817962646484375	-1.995086669921875	
262	1.048	0.0	0.0	0.0	0.0	0.006	0.003	0.006	0.003	10.081983190917969	0.13646949462890623	-0.20171148986816406	3.421783447265625	-4.3487548828125	-1.178741455078125	9.880870251464843	0.3387795349121094	-0.009576806640625	0.492095947265625	-4.825592041015625	-3.021240234375	9.931148486328125	-0.11192892761230468	-0.12689268798828124	3.612518310546875	-4.66156005859375	-2.44903564453125	
263	1.052	0.0	0.0	0.0	0.0	0.003	0.003	0.003	0.003	9.998784683227539	0.0909796630859375	-0.35194764404296874	7.785797119140625	-7.198333740234375	-1.16729736328125	9.745597857666015	0.23044190979003906	-0.06284779357910156	0.156402587890625	-5.084991455078125	-2.910614013671875	9.84555577697754	-0.0383072265625	-0.17597382202148437	3.498077392578125	-4.375457763671875	-2.262115478515625	
264	1.056	0.0	0.0	0.0	0.0	0.006	0.006	0.003	0.003	9.868899243164062	-0.3130418670654297	0.018555062866210937	5.756378173828125	-6.084442138671875	-0.72479248046875	9.619303720092773	0.4273649963378906	0.22385785522460935	0.362396240234375	-4.795074462890625	-2.880096435546875	9.613318215942382	0.14125789794921875	0.02454056701660156	3.597259521484375	-4.2572021484375	-2.18963623046875	
265	1.06	0.0	0.0	0.0	0.0	0.012	0.003	0.003	0.003	10.027515103149414	0.07781155395507812	-0.2771288421630859	8.78143310546875	-7.781982421875	-1.087188720703125	9.794678991699218	0.22385785522460935	-0.054468087768554684	-0.156402587890625	-4.978179931640625	-2.643585205078125	9.929352835083007	-0.086191259765625	-0.1801636749267578	3.826141357421875	-4.955291748046875	-2.361297607421875	
266	1.064	0.0	0.0	0.0	0.0	0.003	0.006	0.003	0.003	9.981426721191406	-0.4429273071289062	-0.08200140686035155	6.351470947265625	-5.901336669921875	-0.904083251953125	9.941922393798828	0.3238157745361328	-0.11552023010253906	0.63323974609375	-4.589080810546875	-2.8839111328125	10.275913525390624	-0.04129997863769531	-0.430956298828125	3.4637451171875	-4.302978515625	-2.2430419921875	
267	1.068	0.0	0.0	0.0	0.0	0.003	0.006	0.003	0.006	9.89463691101074	0.09337386474609374	-0.11552023010253906	0.293731689453125	-2.170562744140625	-0.804901123046875	9.589974749755859	0.3597287994384765	0.08080430603027343	0.152587890625	-4.810333251953125	-2.5634765625	9.732429748535155	0.022744915771484374	-0.10474632263183593	3.5552978515625	-4.730224609375	-2.37274169921875	
268	1.072	0.0	0.0	0.0	0.0	0.006	0.003	0.003	0.003	9.855731134033203	-0.6266822845458984	0.08200140686035155	4.299163818359375	-5.02777099609375	-0.84686279296875	9.83238766784668	0.3908534210205078	0.05686228942871093	0.698089599609375	-5.096435546875	-2.73895263671875	10.102932455444336	0.20649989318847656	-0.2962824554443359	3.414154052734375	-4.467010498046875	-1.80816650390625	
269	1.076	0.0	0.0	0.0	0.0	0.0	0.006	0.003	0.006	9.776722479248047	-0.8780734588623046	0.32561142578124996	-0.743865966796875	-1.10626220703125	-0.9918212890625	9.92755718383789	0.2693476867675781	0.29089550170898437	0.5340576171875	-4.940032958984375	-3.11279296875	10.037091909790039	-0.16280571289062498	-0.3591302490234375	3.704071044921875	-4.650115966796875	-1.972198486328125	
270	1.08	0.0	0.0	0.0	0.0	0.006	0.003	0.003	0.006	9.78031378173828	-0.680551821899414	0.1352723937988281	1.708984375	-2.948760986328125	-0.7781982421875	9.779116680908203	0.5458779785156249	0.07721300354003906	1.06048583984375	-4.92095947265625	-3.070831298828125	10.103531005859374	0.27293898925781246	-0.29867665710449215	3.719329833984375	-4.0130615234375	-2.117156982421875	
271	1.084	0.0	0.0	0.0	0.0	0.006	0.006	0.003	0.006	9.654019644165038	-0.43574470214843747	0.5524620330810547	-1.613616943359375	-0.782012939453125	-0.6866455078125	9.746196408081055	0.3507505432128906	0.5530605834960938	-0.03814697265625	-4.932403564453125	-2.83050537109375	10.062829577636718	0.07601590270996093	-0.19931728820800781	3.62396240234375	-4.650115966796875	-1.476287841796875	
272	1.088	0.0	0.0	0.0	0.0	0.003	0.003	0.006	0.006	9.928754284667969	-0.008978256225585938	0.07062894897460938	-1.728057861328125	-0.45013427734375	-0.640869140625	10.036493359375	0.5530605834960938	0.062249243164062495	0.57220458984375	-4.901885986328125	-2.84576416015625	10.266336718749999	0.06763619689941405	-0.2424129180908203	3.643035888671875	-4.322052001953125	-2.1820068359375	
273	1.092	0.0	0.0	0.0	0.0	0.003	0.003	0.003	0.006	9.842563024902343	-0.31543606872558594	0.3764882110595703	-0.96893310546875	-0.51116943359375	-0.621795654296875	9.898228213500976	0.37409400939941406	0.31004911499023435	-0.02288818359375	-4.848480224609375	-3.33404541015625	10.182539660644531	-0.023942016601562498	-0.22505495605468748	3.597259521484375	-4.344940185546875	-1.86920166015625	
274	1.096	0.0	0.0	0.0	0.0	0.006	0.003	0.003	0.003	9.91498762512207	0.27353753967285155	-0.013766659545898436	0.48828125	-1.926422119140625	-0.67901611328125	9.798270294189452	0.6290764862060546	0.1580173095703125	0.35858154296875	-4.78363037109375	-2.704620361328125	9.99220062866211	0.062249243164062495	-0.3687070556640625	3.803253173828125	-4.78363037109375	-2.437591552734375	
275	1.1	0.0	0.0	0.0	0.0	0.003	0.003	0.006	0.003	9.87608184814453	-0.059256491088867186	0.34715924072265625	2.17437744140625	-3.002166748046875	-0.4425048828125	9.689334118652344	0.49799394531249996	0.4435258575439453	-0.12969970703125	-5.08880615234375	-2.719879150390625	10.196904870605469	0.02454056701660156	-0.2041056915283203	3.604888916015625	-4.665374755859375	-1.56402587890625	
276	1.104	0.0	0.0	0.0	0.0	0.003	0.003	0.006	0.006	9.98501802368164	-0.17657237243652343	-0.033518823242187495	1.491546630859375	-2.849578857421875	-1.068115234375	9.947907897949218	0.4860229370117187	0.09816226806640624	0.629425048828125	-4.49371337890625	-2.643585205078125	10.269329470825195	-0.1657984649658203	-0.4321533996582031	3.787994384765625	-4.57000732421875	-2.31170654296875	
277	1.108	0.0	0.0	0.0	0.0	0.006	0.006	0.006	0.003	9.751583361816406	0.09337386474609374	0.22206220397949217	2.44903564453125	-3.421783447265625	-1.140594482421875	9.51276174621582	0.5584475372314452	0.6386532928466796	-0.041961669921875	-4.9285888671875	-2.956390380859375	9.880870251464843	0.38367081604003905	-0.061650692749023434	3.48663330078125	-4.730224609375	-2.063751220703125	
278	1.112	0.0	0.0	0.0	0.0	0.003	0.003	0.003	0.006	9.79408044128418	-0.033518823242187495	0.30047230834960936	0.1068115234375	-1.972198486328125	-0.804901123046875	9.78629928588867	0.5051765502929687	0.2232593048095703	0.35858154296875	-5.069732666015625	-2.95257568359375	10.152612139892577	-0.08678981018066406	-0.30047230834960936	3.818511962890625	-4.638671875	-2.178192138671875	
279	1.116	0.0	0.0	0.0	0.0	0.006	0.006	0.006	0.003	9.873089096069336	0.12090718383789062	0.12030863342285156	1.64794921875	-3.009796142578125	-1.373291015625	9.770736975097655	0.4417302062988281	0.46507367248535153	0.034332275390625	-4.993438720703125	-3.009796142578125	10.131064324951172	0.15203180541992187	-0.17836802368164062	3.662109375	-4.63104248046875	-2.178192138671875	
280	1.12	0.0	0.0	0.0	0.0	0.003	0.003	0.006	0.006	9.788094937133788	0.13287819213867186	0.31962592163085934	2.960205078125	-3.72314453125	-0.911712646484375	9.820416659545899	0.4860229370117187	0.13108254089355467	0.11444091796875	-4.634857177734375	-3.082275390625	9.941323843383788	-0.07062894897460938	-0.21906945190429686	3.688812255859375	-4.90570068359375	-2.29644775390625	
281	1.124	0.0	0.0	0.0	0.0	0.006	0.003	0.006	0.003	9.83777462158203	0.1197100830078125	0.19632453613281248	0.606536865234375	-2.681732177734375	-1.068115234375	9.566032733154296	0.5644330413818359	0.5770026000976562	0.05340576171875	-4.901885986328125	-2.98309326171875	9.867702142333984	0.3016694091796875	-0.03651157531738281	3.520965576171875	-4.787445068359375	-2.147674560546875	
282	1.1280000000000001	0.0	0.0	0.0	0.0	0.003	0.003	0.003	0.003	10.007762939453125	0.08140285644531249	-0.03890577697753906	3.19671630859375	-4.3182373046875	-0.621795654296875	9.931148486328125	0.40940848388671874	0.11911153259277343	0.591278076171875	-4.82940673828125	-3.0364990234375	10.04906291809082	-0.03890577697753906	-0.29568390502929687	3.437042236328125	-4.917144775390625	-2.025604248046875	
283	1.1320000000000001	0.0	0.0	0.0	0.0	0.003	4.614	4.635	4.593	9.929352835083007	0.10354922180175781	0.029927520751953124	1.529693603515625	-2.87628173828125	-1.02996826171875	9.676166009521484	0.37289690856933594	0.4255693450927734	0.030517578125	-4.802703857421875	-2.99835205078125	9.936535440063476	0.12689268798828124	-0.09816226806640624	2.99072265625	-4.955291748046875	-2.437591552734375	
284	1.1360000000000001	0.0	0.0	0.0	0.0	4.599	4.641	4.641	4.593	9.91438907470703	0.17118541870117188	0.06643909606933593	3.56292724609375	-4.47845458984375	-0.675201416015625	9.80066449584961	0.4447229583740234	0.13407529296874998	0.667572021484375	-4.8675537109375	-3.08990478515625	9.847351428222655	0.17597382202148437	-0.19512743530273435	3.673553466796875	-5.04302978515625	-2.044677734375	
285	1.1400000000000001	0.0	0.0	0.0	0.0	4.599	4.638	4.638	4.599	9.791087689208984	-0.027533319091796873	0.21128829650878905	5.889892578125	-5.542755126953125	-0.86212158203125	9.645041387939452	0.4159925384521484	0.45669396667480466	0.118255615234375	-5.08880615234375	-2.8839111328125	9.74200655517578	-0.07601590270996093	0.08978256225585937	3.7384033203125	-4.680633544921875	-2.2430419921875	
286	1.1440000000000001	0.0	0.0	0.0	0.0	4.59	4.638	4.641	4.605	10.007762939453125	0.05746083984375	-0.12629413757324218	3.833770751953125	-4.344940185546875	-0.980377197265625	9.852738381958007	0.2603694305419922	-0.040701428222656245	0.7171630859375	-5.008697509765625	-3.108978271484375	10.075997686767577	0.029927520751953124	-0.3399766357421875	3.6163330078125	-4.878997802734375	-2.15911865234375	
287	1.1480000000000001	0.0	0.0	0.0	0.0	4.605	4.644	4.647	4.596	9.819818109130859	-0.0005985504150390625	0.20649989318847656	5.496978759765625	-5.443572998046875	-0.926971435546875	9.59476315307617	0.5135562561035156	0.2885013000488281	0.301361083984375	-4.886627197265625	-3.15093994140625	9.758765966796874	-0.05626373901367187	-0.0796072052001953	3.765106201171875	-4.5166015625	-2.51007080078125	
288	1.1520000000000001	0.0	0.0	0.0	0.0	4.599	4.641	4.644	4.578	9.868899243164062	0.08738836059570312	0.04249707946777344	3.032684326171875	-4.459381103515625	-1.079559326171875	9.675567459106444	0.36152445068359373	0.16998831787109375	0.827789306640625	-5.31005859375	-2.918243408203125	9.80724855041504	0.2765302917480469	0.04908113403320312	3.795623779296875	-4.688262939453125	-2.002716064453125	
289	1.156	0.0	0.0	0.0	0.0	4.6080000000000005	4.641	4.641	4.578	9.883264453125	-0.297479556274414	0.10175357055664062	3.734588623046875	-4.38690185546875	-0.69427490234375	9.822212310791015	0.3447650390625	0.1897404815673828	0.537872314453125	-4.64630126953125	-3.337860107421875	9.92755718383789	-0.21248539733886718	-0.17896657409667968	3.7078857421875	-4.53948974609375	-2.46429443359375	
290	1.16	0.0	0.0	0.0	0.0	4.602	4.635	4.644	4.593	10.01015714111328	-0.22445640563964842	-0.09935936889648436	3.330230712890625	-4.40216064453125	-0.812530517578125	9.704896429443359	0.296881005859375	0.11252747802734374	0.568389892578125	-5.039215087890625	-3.162384033203125	9.882067352294921	0.21009119567871093	-0.08200140686035155	3.51715087890625	-4.375457763671875	-2.132415771484375	
291	1.164	0.0	0.0	0.0	0.0	4.602	4.644	0.003	0.003	9.835380419921874	-0.028730419921875	0.07781155395507812	4.032135009765625	-4.390716552734375	-1.033782958984375	9.635464581298828	0.44532150878906246	0.29269115295410153	0.35858154296875	-4.730224609375	-3.25775146484375	10.019733947753906	-0.12629413757324218	-0.3962403747558593	3.79180908203125	-4.421234130859375	-2.010345458984375	
292	1.168	0.0	0.0	0.0	0.0	0.012	0.003	0.006	0.003	10.01015714111328	-0.2597708801269531	-0.1197100830078125	4.37164306640625	-4.96673583984375	-0.629425048828125	9.897629663085937	0.2693476867675781	0.1005564697265625	-0.1983642578125	-5.107879638671875	-2.32696533203125	9.938929641723632	0.1657984649658203	-0.16699556579589842	3.5400390625	-4.58526611328125	-1.987457275390625	
293	1.172	0.0	0.0	0.0	0.0	0.006	0.003	0.006	0.003	9.932345587158203	0.012569558715820313	0.011971008300781249	4.058837890625	-4.421234130859375	-0.934600830078125	9.795277542114258	0.3387795349121094	0.07242460021972656	0.461578369140625	-4.96673583984375	-3.238677978515625	10.213065731811524	-0.20231004028320312	-0.5835866546630859	3.490447998046875	-4.436492919921875	-2.06756591796875	
294	1.176	0.0	0.0	0.0	0.0	0.003	0.003	0.003	0.006	9.970054263305663	-0.26276363220214843	-0.15981296081542967	5.435943603515625	-5.51605224609375	-0.789642333984375	9.764751470947266	0.3459621398925781	0.03890577697753906	0.156402587890625	-5.016326904296875	-2.658843994140625	9.728838446044922	0.20231004028320312	-0.06284779357910156	3.41796875	-4.4403076171875	-2.048492431640625	
295	1.18	0.0	0.0	0.0	0.0	0.003	0.003	0.006	0.006	9.827000714111328	-0.35613749694824215	-0.11192892761230468	3.53240966796875	-4.67681884765625	-0.8697509765625	9.890447058105469	0.42796354675292964	-0.10414777221679687	0.579833984375	-4.92095947265625	-2.750396728515625	10.165181698608398	-0.09157821350097656	-0.5674257934570313	3.7689208984375	-4.535675048828125	-1.903533935546875	
296	1.184	0.0	0.0	0.0	0.0	0.003	0.003	0.003	0.006	9.97903251953125	-0.3752911102294922	-0.1227028350830078	6.3018798828125	-6.14166259765625	-0.946044921875	9.892242709350585	0.29927520751953124	0.0047884033203125	0.25177001953125	-4.894256591796875	-2.50244140625	10.250175857543944	0.010773907470703125	-0.5590460876464843	3.757476806640625	-4.8828125	-2.17437744140625	
297	1.188	0.0	0.0	0.0	0.0	0.006	0.003	0.003	0.006	9.809642752075195	-0.5105635040283203	-0.16759411621093748	1.617431640625	-2.628326416015625	-0.946044921875	9.816226806640625	0.4644751220703125	-0.08738836059570312	0.732421875	-4.852294921875	-3.200531005859375	10.116699114990233	0.02454056701660156	-0.5919663604736328	3.528594970703125	-4.24957275390625	-1.8463134765625	
298	1.192	0.0	0.0	0.0	0.0	0.003	0.003	0.006	0.0	9.534309561157226	-0.10115502014160156	0.4064157318115234	-0.438690185546875	-1.506805419921875	-0.67138671875	9.59476315307617	0.6296750366210937	0.37888241271972656	0.16021728515625	-4.78363037109375	-2.90679931640625	10.11909331665039	0.06643909606933593	-0.354940396118164	3.7994384765625	-4.9285888671875	-2.2430419921875	
299	1.196	0.0	0.0	0.0	0.0	0.003	0.006	0.003	0.003	9.785700735473633	-0.48722003784179685	-0.025737667846679687	0.19073486328125	-1.983642578125	-0.713348388671875	10.007762939453125	0.4159925384521484	-0.20649989318847656	0.926971435546875	-4.730224609375	-3.1280517578125	10.209474429321288	-0.02154781494140625	-0.5548562347412109	3.627777099609375	-4.535675048828125	-1.9989013671875	
300	1.2	0.0	0.0	0.0	0.0	0.0	0.003	0.006	0.003	9.655815295410155	-0.1352723937988281	0.296881005859375	-1.636505126953125	-0.5035400390625	-0.8087158203125	9.720458740234374	0.5692214447021484	0.21128829650878905	0.35858154296875	-4.604339599609375	-2.93731689453125	10.165181698608398	0.018555062866210937	-0.37708676147460934	3.22723388671875	-4.57000732421875	-2.193450927734375	
301	1.204	0.0	0.0	0.0	0.0	0.003	0.003	0.006	0.006	9.713276135253906	-0.6745663177490234	0.023942016601562498	-2.239227294921875	-0.61798095703125	-0.553131103515625	9.853935482788085	0.49859249572753905	-0.006584054565429687	-0.0152587890625	-4.84466552734375	-3.1890869140625	10.150816488647461	0.1131260284423828	-0.6350619903564453	3.490447998046875	-4.558563232421875	-2.0599365234375	
302	1.208	0.0	0.0	0.0	0.0	0.006	0.006	0.003	0.003	9.604938510131836	-0.06823474731445311	0.4159925384521484	-2.0294189453125	-0.20599365234375	-0.32806396484375	9.72345149230957	0.49320554199218747	0.3010708587646484	0.102996826171875	-4.75311279296875	-2.948760986328125	9.957484704589843	0.011971008300781249	-0.23523031311035156	3.528594970703125	-4.756927490234375	-2.017974853515625	
303	1.212	0.0	0.0	0.0	0.0	0.009000000000000001	0.006	0.003	0.003	10.018536846923828	0.3956418243408203	-0.16819266662597654	0.919342041015625	-2.101898193359375	-1.19781494140625	9.886855755615233	0.35015199279785153	0.18315642700195311	0.141143798828125	-4.76837158203125	-3.429412841796875	10.244788903808594	-0.0053869537353515625	-0.5931634613037109	3.772735595703125	-4.543304443359375	-2.063751220703125	
304	1.216	0.0	0.0	0.0	0.0	0.006	0.003	0.003	0.003	9.64623848876953	0.28790274963378903	0.373495458984375	-0.83160400390625	-1.178741455078125	-0.934600830078125	9.64683703918457	0.40222587890625	0.43634325256347656	-0.102996826171875	-4.673004150390625	-3.7994384765625	9.885658654785155	0.07362170104980469	-0.13347674255371092	3.566741943359375	-4.6234130859375	-1.800537109375	
305	1.22	0.0	0.0	0.0	0.0	0.003	0.003	0.003	0.009000000000000001	9.950900650024414	0.5219359619140624	-0.034715924072265626	2.132415771484375	-3.2196044921875	-0.995635986328125	9.797073193359374	0.5716156463623047	0.18315642700195311	0.110626220703125	-4.57000732421875	-3.204345703125	10.150816488647461	0.01915361328125	-0.5315127685546874	3.452301025390625	-4.64630126953125	-2.3956298828125	
306	1.224	0.0	0.0	0.0	0.0	0.006	0.006	0.003	0.003	9.731232647705077	0.3058592620849609	0.3591302490234375	6.44683837890625	-6.27899169921875	-0.83160400390625	9.829394915771484	0.20231004028320312	0.12569558715820311	-0.270843505859375	-4.932403564453125	-2.75421142578125	10.002375985717773	0.06703764648437499	-0.14006079711914063	3.330230712890625	-4.64630126953125	-2.002716064453125	
