	time	dac1	dac2	dac3	dac4	adc1.3	adc2.3	adc3.3	adc4.3	imu1accx	imu1accy	imu1accz	imu1gyrox	imu1gyroy	imu1gyroz	imu2accx	imu2accy	imu2accz	imu2gyrox	imu2gyroy	imu2gyroz	imu3accx	imu3accy	imu3accz	imu3gyrox	imu3gyroy	imu3gyroz	log
0	0.0	0.0	0.0	0.0	0.0	4.6080000000000005	4.647	4.65	4.596	9.874884747314452	0.09576806640624999	0.10474632263183593	2.613067626953125	-3.66973876953125	-0.80108642578125	9.78031378173828	0.25139117431640623	0.16819266662597654	0.1373291015625	-4.833221435546875	-2.872467041015625	10.005368737792969	0.05087678527832031	-0.2136824981689453	3.66973876953125	-4.52423095703125	-2.227783203125	Estabilizou em 10s, 2071 rpm
1	0.004	0.0	0.0	0.0	0.0	4.6080000000000005	4.65	4.65	4.5840000000000005	9.866505041503906	0.08858546142578125	0.10474632263183593	2.338409423828125	-3.482818603515625	-0.743865966796875	9.785102185058593	0.25139117431640623	0.18136077575683593	0.3509521484375	-4.64630126953125	-2.674102783203125	10.007164389038085	0.04848258361816406	-0.21906945190429686	3.63922119140625	-4.634857177734375	-2.101898193359375	Started
2	0.008	0.0	0.0	0.0	0.0	4.611	4.647	4.647	4.5840000000000005	9.866505041503906	0.05805939025878906	0.09157821350097656	2.44140625	-3.65447998046875	-0.713348388671875	9.785700735473633	0.22685060729980466	0.17477672119140625	0.396728515625	-4.96673583984375	-2.63214111328125	10.008960040283203	0.015562310791015624	-0.22385785522460935	3.803253173828125	-4.604339599609375	-2.26593017578125	IMU1|LSM6DS3|0x6A|I2C-1|±2g (±19,6m/s²)|±125º/s|400Hz
3	0.012	0.0	0.0	0.0	0.0	4.614	4.641	4.647	4.602	9.879673150634765	0.06045359191894531	0.06943184814453125	2.6397705078125	-3.696441650390625	-0.934600830078125	9.791686239624022	0.23403321228027343	0.1580173095703125	0.244140625	-4.970550537109375	-2.8076171875	10.003573086547851	0.01975216369628906	-0.2328361114501953	3.894805908203125	-4.505157470703125	-2.346038818359375	IMU2|LSM6DS3|0x6B|I2C-1|±2g (±19,6m/s²)|±125º/s|400Hz
4	0.016	0.0	0.0	0.0	0.0	4.6080000000000005	4.65	4.65	4.599	9.872490545654296	0.062249243164062495	0.08140285644531249	2.72369384765625	-3.60870361328125	-0.720977783203125	9.788693487548828	0.2316390106201172	0.15382745666503905	0.606536865234375	-4.962921142578125	-2.849578857421875	10.002974536132811	0.031124621582031248	-0.2328361114501953	3.742218017578125	-4.779815673828125	-2.048492431640625	IMU3|LSM6DS3|0x6B|I2C-2|±2g (±19,6m/s²)|±125º/s|400Hz
5	0.02	0.0	0.0	0.0	0.0	4.611	4.65	4.647	4.605	9.86411083984375	0.040701428222656245	0.08140285644531249	2.685546875	-3.635406494140625	-0.75531005859375	9.788693487548828	0.20290859069824219	0.14425065002441406	0.370025634765625	-5.100250244140625	-2.70843505859375	10.002974536132811	-0.003591302490234375	-0.24061726684570311	3.711700439453125	-4.535675048828125	-2.071380615234375	ADC|ADS1015|0|0|1|0|±6,144 V|2400 SPS
6	0.024	0.0	0.0	0.0	0.0	4.602	4.647	4.644	4.611	9.867702142333984	0.054468087768554684	0.08020575561523437	2.52532958984375	-3.444671630859375	-0.49591064453125	9.791686239624022	0.21009119567871093	0.15203180541992187	0.423431396484375	-4.955291748046875	-2.910614013671875	10.00955859069824	0.023942016601562498	-0.23403321228027343	3.54766845703125	-4.543304443359375	-2.216339111328125	Gen1|Disabled
7	0.028	0.0	0.0	0.0	0.0	4.611	4.647	4.65	4.596	9.874884747314452	0.055066638183593745	0.08020575561523437	2.72369384765625	-3.551483154296875	-0.8697509765625	9.803058697509766	0.22385785522460935	0.14484920043945312	0.6256103515625	-4.66156005859375	-2.93731689453125	10.007762939453125	0.01975216369628906	-0.2501940734863281	3.810882568359375	-4.8675537109375	-2.101898193359375	Gen2|Enabled|Noise|0.0|10.0|1668
8	0.032	0.0	0.0	0.0	0.0	4.611	4.65	4.65	4.5840000000000005	9.862315188598632	0.04129997863769531	0.0718260498046875	2.826690673828125	-3.5858154296875	-0.713348388671875	9.795277542114258	0.20470424194335937	0.14784195251464843	0.293731689453125	-4.673004150390625	-2.857208251953125	10.003573086547851	-0.016759411621093748	-0.24480711975097655	3.631591796875	-4.55474853515625	-2.346038818359375	Gen3|Enabled|Noise|0.0|10.0|128
9	0.036000000000000004	0.0	0.0	0.0	0.0	4.614	4.647	4.647	4.587	9.87009634399414	0.055066638183593745	0.06643909606933593	2.727508544921875	-3.612518310546875	-0.8697509765625	9.788094937133788	0.22086510314941404	0.14185644836425781	0.31280517578125	-4.87518310546875	-2.826690673828125	10.00955859069824	0.011372457885742187	-0.25737667846679685	3.604888916015625	-4.38690185546875	-2.185821533203125	Gen4|Enabled|Noise|0.0|10.0|128
10	0.04	0.0	0.0	0.0	0.0	4.614	4.641	4.647	4.599	9.874884747314452	0.05805939025878906	0.07781155395507812	2.5482177734375	-3.45611572265625	-0.6866455078125	9.791087689208984	0.21906945190429686	0.14305354919433594	0.423431396484375	-4.87518310546875	-2.93731689453125	10.000580334472655	0.010773907470703125	-0.2454056701660156	3.76129150390625	-4.695892333984375	-2.105712890625	Ctrl|Disabled
11	0.044	0.0	0.0	0.0	0.0	4.6080000000000005	4.65	4.65	4.605	9.87009634399414	0.03950432739257812	0.07841010437011718	2.468109130859375	-3.2958984375	-0.766754150390625	9.791686239624022	0.18914193115234373	0.13168109130859373	0.3509521484375	-4.82940673828125	-2.89154052734375	9.997587582397461	-0.02154781494140625	-0.2537853759765625	3.66973876953125	-4.543304443359375	-2.29644775390625	
12	0.048	0.0	0.0	0.0	0.0	4.6080000000000005	4.647	4.647	4.605	9.867103591918944	0.047285482788085934	0.06344634399414062	2.361297607421875	-3.9520263671875	-0.888824462890625	9.788693487548828	0.2088940948486328	0.13946224670410157	0.2593994140625	-4.734039306640625	-2.536773681640625	10.01075569152832	0.0047884033203125	-0.26755203552246093	3.574371337890625	-4.4403076171875	-2.040863037109375	
13	0.052000000000000005	0.0	0.0	0.0	0.0	4.599	4.647	4.644	4.611	9.872490545654296	0.05386953735351562	0.07481880187988281	2.63214111328125	-3.734588623046875	-0.83160400390625	9.788693487548828	0.1975216369628906	0.14305354919433594	0.408172607421875	-4.634857177734375	-2.9449462890625	10.007762939453125	0.00239420166015625	-0.2597708801269531	3.6468505859375	-4.87518310546875	-2.26593017578125	
14	0.056	0.0	0.0	0.0	0.0	4.611	4.647	4.65	4.596	9.87668039855957	0.04249707946777344	0.076614453125	2.471923828125	-3.33404541015625	-0.86212158203125	9.785102185058593	0.19812018737792966	0.14006079711914063	0.324249267578125	-4.78363037109375	-2.574920654296875	10.012551342773437	-0.016759411621093748	-0.26216508178710934	3.757476806640625	-4.810333251953125	-2.399444580078125	
15	0.06	0.0	0.0	0.0	0.0	4.611	4.65	4.65	4.587	9.873089096069336	0.04668693237304687	0.07481880187988281	2.368927001953125	-3.53240966796875	-0.698089599609375	9.785102185058593	0.2154781494140625	0.14125789794921875	0.087738037109375	-4.89044189453125	-2.532958984375	10.01733974609375	0.010175357055664061	-0.2472013214111328	3.73077392578125	-4.711151123046875	-2.407073974609375	
16	0.064	0.0	0.0	0.0	0.0	4.614	4.647	4.647	4.59	9.871293444824218	0.0526724365234375	0.08559270935058594	2.750396728515625	-3.490447998046875	-0.728607177734375	9.788094937133788	0.2088940948486328	0.15322890625	0.30517578125	-4.9896240234375	-2.777099609375	10.014346994018554	0.0005985504150390625	-0.2454056701660156	3.726959228515625	-4.76837158203125	-2.1514892578125	
17	0.068	0.0	0.0	0.0	0.0	4.614	4.641	4.647	4.6080000000000005	9.87608184814453	0.037708676147460936	0.08499415893554688	2.37274169921875	-3.53240966796875	-0.77056884765625	9.78629928588867	0.19632453613281248	0.1514332550048828	0.331878662109375	-4.955291748046875	-2.8076171875	10.008960040283203	-0.0005985504150390625	-0.23403321228027343	3.60870361328125	-4.680633544921875	-2.1209716796875	
18	0.07200000000000001	0.0	0.0	0.0	0.0	4.611	4.647	4.65	4.605	9.86411083984375	0.047285482788085934	0.0939724151611328	2.66265869140625	-3.620147705078125	-0.8697509765625	9.789890588378906	0.21727380065917967	0.1610100616455078	0.23651123046875	-4.669189453125	-2.73895263671875	10.000580334472655	0.017956512451171875	-0.23642741394042968	3.726959228515625	-4.680633544921875	-2.2430419921875	
19	0.076	0.0	0.0	0.0	0.0	4.6080000000000005	4.65	4.65	4.614	9.873687646484374	0.0526724365234375	0.0909796630859375	2.567291259765625	-3.467559814453125	-0.701904296875	9.787496386718749	0.22266075439453123	0.16041151123046873	0.392913818359375	-4.84466552734375	-2.819061279296875	10.005368737792969	0.013766659545898436	-0.239420166015625	3.72314453125	-4.64630126953125	-2.17437744140625	
20	0.08	0.0	0.0	0.0	0.0	4.599	4.644	4.641	4.614	9.87069489440918	0.054468087768554684	0.0909796630859375	2.681732177734375	-3.833770751953125	-0.823974609375	9.785102185058593	0.21188684692382811	0.1693897674560547	0.213623046875	-4.550933837890625	-2.8076171875	10.00417163696289	0.00718260498046875	-0.2184709014892578	3.6163330078125	-4.638671875	-2.15911865234375	
21	0.084	0.0	0.0	0.0	0.0	4.614	4.647	4.65	4.593	9.872490545654296	0.07302315063476562	0.09516951599121093	2.506256103515625	-3.528594970703125	-0.7781982421875	9.785102185058593	0.2232593048095703	0.1801636749267578	0.392913818359375	-4.909515380859375	-2.918243408203125	10.004770187377929	0.01975216369628906	-0.2088940948486328	3.7078857421875	-4.547119140625	-2.292633056640625	
22	0.088	0.0	0.0	0.0	0.0	4.617	4.65	4.647	4.5840000000000005	9.867702142333984	0.06823474731445311	0.09696516723632811	2.57110595703125	-3.612518310546875	-0.751495361328125	9.784503634643555	0.2262520568847656	0.17238251953125	0.3204345703125	-4.99725341796875	-2.948760986328125	10.001777435302733	0.023343466186523436	-0.20290859069824219	3.582000732421875	-4.78363037109375	-2.23541259765625	
23	0.092	0.0	0.0	0.0	0.0	4.617	4.647	4.647	4.593	9.867103591918944	0.07302315063476562	0.10893617553710937	2.597808837890625	-3.4637451171875	-0.888824462890625	9.785102185058593	0.229843359375	0.17896657409667968	0.244140625	-4.734039306640625	-2.89154052734375	10.002375985717773	0.03591302490234375	-0.21607669982910155	3.74603271484375	-4.58526611328125	-2.162933349609375	
24	0.096	0.0	0.0	0.0	0.0	4.617	4.638	4.647	4.602	9.87668039855957	0.08080430603027343	0.1149216796875	2.52532958984375	-3.437042236328125	-0.75531005859375	9.787496386718749	0.24121581726074218	0.18136077575683593	0.29754638671875	-4.787445068359375	-2.834320068359375	10.00417163696289	0.034715924072265626	-0.20949264526367187	3.85284423828125	-4.497528076171875	-2.20489501953125	
25	0.1	0.0	0.0	0.0	0.0	4.611	4.65	4.65	4.605	9.87009634399414	0.08020575561523437	0.1149216796875	2.597808837890625	-3.734588623046875	-0.804901123046875	9.791087689208984	0.24301146850585936	0.17956512451171874	0.457763671875	-4.8065185546875	-2.719879150390625	10.006565838623047	0.03591302490234375	-0.20530279235839843	3.66973876953125	-4.63104248046875	-2.28118896484375	
26	0.10400000000000001	0.0	0.0	0.0	0.0	4.605	4.647	4.65	4.6080000000000005	9.878476049804688	0.08858546142578125	0.1197100830078125	2.681732177734375	-3.47900390625	-0.8544921875	9.78629928588867	0.2376245147705078	0.17776947326660156	0.0457763671875	-4.58526611328125	-2.7618408203125	10.001777435302733	0.031124621582031248	-0.2154781494140625	3.780364990234375	-4.52423095703125	-2.13623046875	
27	0.108	0.0	0.0	0.0	0.0	4.599	4.647	4.641	4.614	9.866505041503906	0.09038111267089843	0.1197100830078125	2.61688232421875	-3.54766845703125	-0.75531005859375	9.783306533813477	0.2537853759765625	0.18315642700195311	0.415802001953125	-4.73785400390625	-2.689361572265625	10.01015714111328	0.04249707946777344	-0.20171148986816406	3.54766845703125	-4.695892333984375	-2.170562744140625	
28	0.112	0.0	0.0	0.0	0.0	4.614	4.647	4.65	4.593	9.865307940673828	0.086191259765625	0.12210428466796874	2.544403076171875	-3.35693359375	-0.759124755859375	9.785102185058593	0.2549824768066406	0.18375497741699218	0.194549560546875	-3.940582275390625	-2.704620361328125	9.995791931152343	0.04608838195800781	-0.2136824981689453	3.71551513671875	-4.718780517578125	-2.223968505859375	
29	0.116	0.0	0.0	0.0	0.0	4.614	4.65	4.647	4.581	9.862315188598632	0.09516951599121093	0.1005564697265625	2.66265869140625	-3.955841064453125	-0.827789306640625	9.785102185058593	0.2609679809570312	0.17118541870117188	0.16021728515625	-4.817962646484375	-3.131866455078125	10.003573086547851	0.05985504150390625	-0.2214636535644531	3.60870361328125	-4.703521728515625	-2.071380615234375	
30	0.12	0.0	0.0	0.0	0.0	4.614	4.647	4.647	4.596	9.87069489440918	0.09756371765136718	0.11851298217773437	2.407073974609375	-3.231048583984375	-0.8697509765625	9.788693487548828	0.2609679809570312	0.1879448303222656	0.431060791015625	-4.894256591796875	-2.742767333984375	10.011354241943359	0.04908113403320312	-0.21128829650878905	3.589630126953125	-4.749298095703125	-2.201080322265625	
31	0.124	0.0	0.0	0.0	0.0	4.614	4.6530000000000005	4.65	4.599	9.865307940673828	0.08140285644531249	0.11252747802734374	2.712249755859375	-3.505706787109375	-0.766754150390625	9.787496386718749	0.2507926239013672	0.1801636749267578	0.347137451171875	-4.974365234375	-2.79998779296875	10.01015714111328	0.03890577697753906	-0.20829554443359374	3.612518310546875	-4.375457763671875	-2.109527587890625	
32	0.128	0.0	0.0	0.0	0.0	4.6080000000000005	4.65	4.65	4.605	9.879673150634765	0.08918401184082031	0.10714052429199218	2.605438232421875	-3.39508056640625	-0.91552734375	9.783905084228515	0.2657563842773437	0.18136077575683593	0.1068115234375	-4.49371337890625	-2.73895263671875	9.998784683227539	0.0526724365234375	-0.21428104858398436	3.57818603515625	-4.642486572265625	-2.017974853515625	
33	0.132	0.0	0.0	0.0	0.0	4.6080000000000005	4.647	4.647	4.6080000000000005	9.865307940673828	0.09516951599121093	0.11791443176269531	2.414703369140625	-3.398895263671875	-0.9918212890625	9.791087689208984	0.25737667846679685	0.19153613281249998	0.499725341796875	-4.99725341796875	-2.902984619140625	10.008960040283203	0.05327098693847656	-0.2136824981689453	3.726959228515625	-4.82177734375	-2.31170654296875	
34	0.136	0.0	0.0	0.0	0.0	4.6080000000000005	4.647	4.638	4.605	9.87009634399414	0.08259995727539061	0.11432312927246092	2.5482177734375	-3.45611572265625	-0.812530517578125	9.788693487548828	0.24061726684570311	0.19692308654785154	0.3509521484375	-4.718780517578125	-2.79998779296875	10.013748443603514	0.04249707946777344	-0.2088940948486328	3.566741943359375	-4.7149658203125	-2.147674560546875	
35	0.14	0.0	0.0	0.0	0.0	4.6080000000000005	4.65	4.65	4.59	9.871293444824218	0.08678981018066406	0.11252747802734374	2.399444580078125	-3.574371337890625	-0.70953369140625	9.785102185058593	0.24779987182617186	0.19572598571777342	0.209808349609375	-4.82177734375	-2.777099609375	10.013149893188476	0.06045359191894531	-0.21308394775390624	3.505706787109375	-4.72259521484375	-2.02178955078125	
36	0.14400000000000002	0.0	0.0	0.0	0.0	4.617	4.644	4.647	4.581	9.87668039855957	0.08978256225585937	0.10654197387695312	2.5177001953125	-3.80706787109375	-0.885009765625	9.78629928588867	0.2597708801269531	0.17657237243652343	0.164031982421875	-4.5928955078125	-2.620697021484375	10.008361489868163	0.05386953735351562	-0.21009119567871093	3.70025634765625	-4.61578369140625	-2.254486083984375	
37	0.148	0.0	0.0	0.0	0.0	4.611	4.644	4.647	4.596	9.868300692749022	0.07841010437011718	0.09457096557617187	2.7313232421875	-3.482818603515625	-0.659942626953125	9.783306533813477	0.23702596435546874	0.1753752716064453	0.240325927734375	-5.115509033203125	-2.7313232421875	10.008361489868163	0.034715924072265626	-0.20829554443359374	3.6773681640625	-4.665374755859375	-1.91497802734375	
38	0.152	0.0	0.0	0.0	0.0	4.611	4.65	4.65	4.605	9.871293444824218	0.08080430603027343	0.08499415893554688	2.51007080078125	-3.50189208984375	-0.83160400390625	9.78629928588867	0.25258827514648435	0.17477672119140625	-0.064849853515625	-4.6539306640625	-2.727508544921875	10.014945544433592	0.04129997863769531	-0.2154781494140625	3.88336181640625	-4.81414794921875	-2.147674560546875	
39	0.156	0.0	0.0	0.0	0.0	4.611	4.65	4.65	4.605	9.874884747314452	0.07781155395507812	0.08259995727539061	2.69317626953125	-3.631591796875	-1.003265380859375	9.78629928588867	0.2501940734863281	0.1592144104003906	0.278472900390625	-4.92095947265625	-2.895355224609375	10.017938296508788	0.05626373901367187	-0.2316390106201172	4.024505615234375	-4.44793701171875	-1.9989013671875	
40	0.16	0.0	0.0	0.0	0.0	4.602	4.647	4.647	4.611	9.873687646484374	0.08020575561523437	0.08200140686035155	2.5482177734375	-3.36456298828125	-0.766754150390625	9.788693487548828	0.2328361114501953	0.16220716247558592	0.274658203125	-4.848480224609375	-2.925872802734375	10.01015714111328	0.037708676147460936	-0.2292448089599609	3.719329833984375	-4.741668701171875	-2.407073974609375	
41	0.164	0.0	0.0	0.0	0.0	4.611	4.644	4.65	4.602	9.865906491088866	0.07242460021972656	0.08439560852050781	2.719879150390625	-3.50189208984375	-0.728607177734375	9.787496386718749	0.23582886352539062	0.1466448516845703	0.377655029296875	-4.955291748046875	-2.826690673828125	9.995791931152343	0.04129997863769531	-0.23343466186523437	3.818511962890625	-4.6539306640625	-2.231597900390625	
42	0.168	0.0	0.0	0.0	0.0	4.6080000000000005	4.65	4.65	4.5840000000000005	9.878476049804688	0.08140285644531249	0.076614453125	2.50244140625	-3.589630126953125	-0.850677490234375	9.784503634643555	0.24660277099609373	0.1484405029296875	0.32806396484375	-4.99725341796875	-2.81524658203125	10.00417163696289	0.05027823486328125	-0.25438392639160157	3.467559814453125	-4.680633544921875	-2.223968505859375	
43	0.17200000000000001	0.0	0.0	0.0	0.0	4.614	4.644	4.647	4.5840000000000005	9.859920986938477	0.08499415893554688	0.06943184814453125	2.590179443359375	-3.734588623046875	-0.728607177734375	9.782707983398437	0.24361001892089842	0.15023615417480468	0.316619873046875	-4.67681884765625	-2.834320068359375	10.008361489868163	0.040701428222656245	-0.24779987182617186	3.597259521484375	-4.81414794921875	-2.132415771484375	
44	0.176	0.0	0.0	0.0	0.0	4.617	4.644	4.647	4.602	9.866505041503906	0.086191259765625	0.08319850769042968	2.521514892578125	-3.56292724609375	-0.74005126953125	9.785102185058593	0.2454056701660156	0.14305354919433594	0.736236572265625	-5.016326904296875	-2.93731689453125	10.01674119567871	0.044292730712890624	-0.26216508178710934	3.5400390625	-4.596710205078125	-2.197265625	
45	0.18	0.0	0.0	0.0	0.0	4.611	4.6530000000000005	4.65	4.605	9.868899243164062	0.08798691101074219	0.07481880187988281	2.73895263671875	-3.71551513671875	-0.713348388671875	9.78629928588867	0.25318682556152344	0.13168109130859373	0.06866455078125	-4.82177734375	-2.73895263671875	10.008960040283203	0.05027823486328125	-0.27832594299316404	3.627777099609375	-4.772186279296875	-2.147674560546875	
46	0.184	0.0	0.0	0.0	0.0	4.611	4.647	4.647	4.605	9.897629663085937	0.0718260498046875	0.07422025146484375	2.391815185546875	-3.41033935546875	-0.64849853515625	9.809044201660155	0.23642741394042968	0.13467384338378904	0.14495849609375	-4.96673583984375	-2.75421142578125	10.019733947753906	0.03890577697753906	-0.28431144714355466	3.70025634765625	-4.558563232421875	-1.94549560546875	
47	0.188	0.0	0.0	0.0	0.0	4.602	4.647	4.644	4.614	9.891644158935547	0.028730419921875	0.09756371765136718	2.719879150390625	-3.4332275390625	-0.823974609375	9.808445651245117	0.20530279235839843	0.15981296081542967	0.1678466796875	-4.695892333984375	-2.574920654296875	10.033500607299803	0.001197100830078125	-0.24839842224121092	3.88336181640625	-4.82940673828125	-2.1820068359375	
48	0.192	0.0	0.0	0.0	0.0	4.614	4.647	4.65	4.599	9.86411083984375	0.017956512451171875	0.07003039855957031	2.3345947265625	-3.467559814453125	-0.560760498046875	9.782707983398437	0.19213468322753904	0.12210428466796874	0.286102294921875	-5.0048828125	-2.8839111328125	10.014945544433592	-0.003591302490234375	-0.2747346405029297	3.8299560546875	-4.650115966796875	-2.13623046875	
49	0.196	0.0	0.0	0.0	0.0	4.6080000000000005	4.65	4.65	4.587	9.8694977935791	0.029927520751953124	0.062249243164062495	2.62451171875	-3.765106201171875	-0.93841552734375	9.797073193359374	0.20290859069824219	0.14006079711914063	0.293731689453125	-4.924774169921875	-2.960205078125	10.00417163696289	0.005985504150390624	-0.2501940734863281	3.56292724609375	-4.581451416015625	-2.06756591796875	
50	0.2	0.0	0.0	0.0	0.0	4.614	4.647	4.647	4.587	9.83238766784668	-0.013168109130859374	0.1131260284423828	2.666473388671875	-3.566741943359375	-0.789642333984375	9.771934075927733	0.17298106994628906	0.18136077575683593	0.415802001953125	-4.909515380859375	-2.841949462890625	10.002974536132811	-0.023942016601562498	-0.18734627990722655	3.5247802734375	-4.57763671875	-2.086639404296875	
51	0.20400000000000001	0.0	0.0	0.0	0.0	4.614	4.641	4.647	4.602	9.841365924072266	-0.034715924072265626	0.09516951599121093	2.7008056640625	-3.482818603515625	-0.86212158203125	9.782707983398437	0.13587094421386717	0.14784195251464843	0.16021728515625	-4.772186279296875	-2.849578857421875	10.001777435302733	-0.07541735229492187	-0.20949264526367187	3.696441650390625	-4.535675048828125	-2.155303955078125	
52	0.20800000000000002	0.0	0.0	0.0	0.0	4.614	4.65	4.65	4.6080000000000005	9.885658654785155	0.029328970336914062	0.059256491088867186	2.674102783203125	-3.7078857421875	-0.69427490234375	9.789890588378906	0.2041056915283203	0.13587094421386717	0.408172607421875	-4.947662353515625	-2.918243408203125	10.007164389038085	-0.003591302490234375	-0.2454056701660156	3.60107421875	-4.558563232421875	-2.101898193359375	
53	0.212	0.0	0.0	0.0	0.0	4.614	4.647	4.65	4.605	9.872490545654296	0.031124621582031248	0.11432312927246092	2.55584716796875	-3.711700439453125	-0.69427490234375	9.795277542114258	0.2088940948486328	0.18914193115234373	0.457763671875	-4.863739013671875	-2.681732177734375	10.026916552734374	0.008379705810546874	-0.20709844360351562	4.024505615234375	-4.638671875	-2.170562744140625	
54	0.216	0.0	0.0	0.0	0.0	4.602	4.647	4.644	4.614	9.87009634399414	-0.022744915771484374	0.10295067138671875	2.574920654296875	-3.704071044921875	-0.904083251953125	9.785700735473633	0.1197100830078125	0.15682020874023436	0.17547607421875	-4.940032958984375	-2.925872802734375	10.005368737792969	-0.09038111267089843	-0.21727380065917967	3.70025634765625	-4.60052490234375	-2.094268798828125	
55	0.22	0.0	0.0	0.0	0.0	4.614	4.647	4.65	4.593	9.890447058105469	0.07362170104980469	0.05566518859863281	2.89154052734375	-3.711700439453125	-0.980377197265625	9.79348189086914	0.23702596435546874	0.1292868896484375	0.396728515625	-5.168914794921875	-2.956390380859375	10.005368737792969	0.031124621582031248	-0.2741360900878906	3.757476806640625	-4.46319580078125	-2.147674560546875	
56	0.224	0.0	0.0	0.0	0.0	4.611	4.65	4.65	4.5840000000000005	9.86291373901367	0.06464344482421874	0.09217676391601562	2.590179443359375	-3.53240966796875	-0.93841552734375	9.78031378173828	0.2561795776367187	0.17178396911621094	0.232696533203125	-4.772186279296875	-2.712249755859375	9.997587582397461	0.06344634399414062	-0.23104046020507812	3.879547119140625	-4.467010498046875	-2.071380615234375	
57	0.228	0.0	0.0	0.0	0.0	4.614	4.647	4.647	4.59	9.873687646484374	-0.0047884033203125	0.11252747802734374	2.40325927734375	-3.505706787109375	-0.80108642578125	9.78629928588867	0.14604630126953125	0.16699556579589842	0.29754638671875	-5.16510009765625	-3.002166748046875	10.00417163696289	-0.061650692749023434	-0.23223756103515625	3.80706787109375	-4.589080810546875	-2.124786376953125	
58	0.232	0.0	0.0	0.0	0.0	4.614	4.641	4.647	4.602	9.89583401184082	0.08439560852050781	0.061650692749023434	2.948760986328125	-3.543853759765625	-0.934600830078125	9.805452899169921	0.25139117431640623	0.1292868896484375	0.209808349609375	-4.650115966796875	-2.796173095703125	10.026916552734374	0.04848258361816406	-0.2657563842773437	3.627777099609375	-4.520416259765625	-2.254486083984375	
59	0.23600000000000002	0.0	0.0	0.0	0.0	4.6080000000000005	4.65	4.65	4.6080000000000005	9.866505041503906	0.09995791931152344	0.07122749938964844	2.40325927734375	-3.482818603515625	-0.6103515625	9.787496386718749	0.28490999755859375	0.14903905334472656	0.3509521484375	-4.909515380859375	-2.597808837890625	10.015544094848632	0.09157821350097656	-0.24959552307128904	3.742218017578125	-4.817962646484375	-2.330780029296875	
60	0.24	0.0	0.0	0.0	0.0	4.611	4.647	4.647	4.6080000000000005	9.83837317199707	0.04848258361816406	0.08798691101074219	2.90679931640625	-3.566741943359375	-0.83160400390625	9.76894132385254	0.19093758239746092	0.16699556579589842	0.25177001953125	-4.7454833984375	-2.773284912109375	9.98501802368164	-0.029328970336914062	-0.24480711975097655	3.665924072265625	-4.749298095703125	-2.300262451171875	
61	0.244	0.0	0.0	0.0	0.0	4.596	4.647	4.641	4.614	9.867702142333984	0.1083376251220703	0.06045359191894531	2.780914306640625	-3.72314453125	-0.885009765625	9.785102185058593	0.28790274963378903	0.1406593475341797	0.12969970703125	-4.634857177734375	-2.74658203125	9.9981861328125	0.06643909606933593	-0.27293898925781246	3.482818603515625	-4.78363037109375	-2.239227294921875	
62	0.248	0.0	0.0	0.0	0.0	4.614	4.647	4.65	4.593	9.878476049804688	0.12030863342285156	0.0652419952392578	2.5787353515625	-3.589630126953125	-0.78582763671875	9.796474642944336	0.3136404174804687	0.1322796417236328	0.392913818359375	-4.985809326171875	-2.857208251953125	10.022726699829102	0.11791443176269531	-0.28431144714355466	3.719329833984375	-4.87518310546875	-2.105712890625	
63	0.252	0.0	0.0	0.0	0.0	4.614	4.65	4.65	4.5840000000000005	9.879074600219726	0.09157821350097656	0.11133037719726561	2.49481201171875	-3.749847412109375	-0.789642333984375	9.790489138793944	0.23582886352539062	0.16160861206054686	0.080108642578125	-4.817962646484375	-2.727508544921875	10.007164389038085	0.028131869506835935	-0.2472013214111328	3.597259521484375	-4.459381103515625	-2.2735595703125	
64	0.256	0.0	0.0	0.0	0.0	4.614	4.647	4.647	4.587	9.885060104370117	0.13766659545898435	0.08200140686035155	2.5177001953125	-3.612518310546875	-0.942230224609375	9.788094937133788	0.3112462158203125	0.1484405029296875	0.469207763671875	-4.871368408203125	-2.7923583984375	10.028113653564452	0.10175357055664062	-0.25917232971191406	3.536224365234375	-4.581451416015625	-2.02178955078125	
65	0.26	0.0	0.0	0.0	0.0	4.6080000000000005	4.638	4.647	4.602	9.881468801879882	0.12629413757324218	0.07781155395507812	2.49481201171875	-3.65447998046875	-0.568389892578125	9.780912332153319	0.16041151123046873	0.13467384338378904	0.339508056640625	-4.947662353515625	-2.777099609375	10.02990930480957	0.1322796417236328	-0.26276363220214843	3.53240966796875	-4.33349609375	-2.20489501953125	
66	0.264	0.0	0.0	0.0	0.0	4.611	4.65	4.65	4.605	9.852139831542969	0.09696516723632811	0.09816226806640624	2.64739990234375	-3.56292724609375	-0.6866455078125	9.769539874267577	0.2376245147705078	0.16879121704101563	0.133514404296875	-4.871368408203125	-2.895355224609375	9.987412225341796	0.04249707946777344	-0.23044190979003906	3.498077392578125	-4.608154296875	-2.079010009765625	
67	0.268	0.0	0.0	0.0	0.0	4.6080000000000005	4.647	4.647	4.605	9.866505041503906	0.1274912384033203	0.10594342346191406	2.346038818359375	-3.22723388671875	-0.7171630859375	9.782707983398437	0.2920926025390625	0.18076222534179687	0.244140625	-4.901885986328125	-2.81524658203125	10.01015714111328	0.09277531433105468	-0.21248539733886718	3.6773681640625	-4.7454833984375	-2.25067138671875	
68	0.272	0.0	0.0	0.0	0.0	4.605	4.647	4.641	4.611	9.884461553955077	0.10893617553710937	0.08918401184082031	2.69317626953125	-3.7689208984375	-0.843048095703125	9.787496386718749	0.2711433380126953	0.15562310791015624	0.209808349609375	-4.89044189453125	-2.773284912109375	10.019733947753906	0.07062894897460938	-0.2232593048095703	3.74603271484375	-4.817962646484375	-2.25067138671875	
69	0.276	0.0	0.0	0.0	0.0	4.611	4.65	4.65	4.59	9.866505041503906	0.08978256225585937	0.11432312927246092	2.399444580078125	-3.398895263671875	-0.858306884765625	9.781510882568359	0.23104046020507812	0.19213468322753904	0.11444091796875	-4.764556884765625	-2.87628173828125	10.007762939453125	0.01915361328125	-0.20709844360351562	3.79180908203125	-4.6234130859375	-1.99127197265625	
70	0.28	0.0	0.0	0.0	0.0	4.614	4.647	4.65	4.581	9.85692823486328	0.09816226806640624	0.13168109130859373	2.552032470703125	-3.490447998046875	-0.682830810546875	9.779116680908203	0.28012159423828126	0.21188684692382811	0.6103515625	-5.096435546875	-2.773284912109375	10.001777435302733	0.07302315063476562	-0.17956512451171874	3.787994384765625	-4.596710205078125	-2.254486083984375	
71	0.28400000000000003	0.0	0.0	0.0	0.0	4.614	4.647	4.647	4.596	9.871293444824218	0.08918401184082031	0.10474632263183593	2.70843505859375	-3.7078857421875	-0.9613037109375	9.779715231323241	0.2519897247314453	0.18854338073730467	0.782012939453125	-4.917144775390625	-2.9144287109375	9.993996279907225	0.05087678527832031	-0.19632453613281248	3.551483154296875	-4.550933837890625	-2.3040771484375	
72	0.28800000000000003	0.0	0.0	0.0	0.0	4.605	4.638	4.647	4.602	9.871891995239258	0.07481880187988281	0.1131260284423828	2.559661865234375	-3.688812255859375	-0.823974609375	9.78629928588867	0.2280477081298828	0.18854338073730467	0.385284423828125	-4.89044189453125	-2.895355224609375	10.001777435302733	0.020350714111328123	-0.18914193115234373	3.505706787109375	-4.238128662109375	-2.13623046875	
73	0.292	0.0	0.0	0.0	0.0	4.6080000000000005	4.65	4.65	4.605	9.871293444824218	0.07841010437011718	0.1322796417236328	2.5634765625	-3.7689208984375	-0.865936279296875	9.787496386718749	0.24600422058105467	0.21248539733886718	0.42724609375	-4.8828125	-2.7618408203125	10.005967288208007	0.05327098693847656	-0.17776947326660156	3.631591796875	-4.756927490234375	-2.170562744140625	
74	0.296	0.0	0.0	0.0	0.0	4.6080000000000005	4.647	4.647	4.611	9.880870251464843	0.07481880187988281	0.10893617553710937	2.643585205078125	-3.41796875	-0.64849853515625	9.79946739501953	0.2328361114501953	0.18315642700195311	0.52642822265625	-4.81414794921875	-2.92205810546875	10.011354241943359	0.03591302490234375	-0.20530279235839843	3.711700439453125	-4.833221435546875	-2.06756591796875	
75	0.3	0.0	0.0	0.0	0.0	4.611	4.647	4.644	4.611	9.877877499389648	0.06763619689941405	0.11013327636718749	2.70843505859375	-3.814697265625	-0.736236572265625	9.79348189086914	0.2232593048095703	0.1945288848876953	0.217437744140625	-4.92095947265625	-2.727508544921875	10.018536846923828	0.018555062866210937	-0.19871873779296872	3.704071044921875	-4.482269287109375	-2.056121826171875	
76	0.304	0.0	0.0	0.0	0.0	4.611	4.65	4.65	4.587	9.85752678527832	0.06703764648437499	0.14185644836425781	2.54058837890625	-3.459930419921875	-0.675201416015625	9.783905084228515	0.229843359375	0.21787235107421873	0.2593994140625	-4.55474853515625	-2.536773681640625	10.007164389038085	0.025139117431640625	-0.16699556579589842	3.551483154296875	-4.3487548828125	-2.117156982421875	
77	0.308	0.0	0.0	0.0	0.0	4.617	4.65	4.647	4.5840000000000005	9.853336932373047	0.05626373901367187	0.1227028350830078	2.4871826171875	-3.452301025390625	-0.743865966796875	9.789890588378906	0.21068974609375	0.1849520782470703	0.45013427734375	-4.993438720703125	-2.872467041015625	9.99220062866211	0.016160861206054686	-0.19812018737792966	3.849029541015625	-4.718780517578125	-2.197265625	
78	0.312	0.0	0.0	0.0	0.0	4.6080000000000005	4.644	4.647	4.596	9.868899243164062	0.04129997863769531	0.10953472595214843	2.727508544921875	-3.59344482421875	-0.728607177734375	9.787496386718749	0.21607669982910155	0.18136077575683593	0.431060791015625	-5.11932373046875	-2.628326416015625	10.002974536132811	0.0005985504150390625	-0.2136824981689453	3.673553466796875	-4.604339599609375	-2.048492431640625	
79	0.316	0.0	0.0	0.0	0.0	4.611	4.65	4.647	4.602	9.872490545654296	0.03531447448730469	0.11911153259277343	2.445220947265625	-3.47137451171875	-0.743865966796875	9.783905084228515	0.19632453613281248	0.19153613281249998	0.091552734375	-4.726409912109375	-2.803802490234375	10.005967288208007	-0.0017956512451171875	-0.20769699401855468	3.85284423828125	-4.665374755859375	-2.162933349609375	
80	0.32	0.0	0.0	0.0	0.0	4.611	4.65	4.65	4.605	9.86411083984375	0.018555062866210937	0.11671733093261719	2.399444580078125	-3.42559814453125	-0.583648681640625	9.783306533813477	0.18734627990722655	0.19033903198242186	0.408172607421875	-4.90570068359375	-2.83050537109375	10.001777435302733	-0.02154781494140625	-0.21727380065917967	3.875732421875	-4.8370361328125	-2.208709716796875	
81	0.324	0.0	0.0	0.0	0.0	4.602	4.647	4.647	4.614	9.859322436523437	0.03411737365722656	0.10354922180175781	2.37274169921875	-3.589630126953125	-0.904083251953125	9.782707983398437	0.21428104858398436	0.17657237243652343	0.1983642578125	-4.787445068359375	-2.834320068359375	10.00417163696289	0.00718260498046875	-0.23223756103515625	4.0435791015625	-4.78363037109375	-2.086639404296875	
82	0.328	0.0	0.0	0.0	0.0	4.614	4.647	4.638	4.605	9.858125335693359	0.023942016601562498	0.11911153259277343	2.742767333984375	-3.6468505859375	-0.67138671875	9.785102185058593	0.19931728820800781	0.18435352783203124	0.23651123046875	-4.749298095703125	-2.719879150390625	10.00417163696289	-0.022744915771484374	-0.21727380065917967	3.84521484375	-4.73785400390625	-2.23541259765625	
83	0.332	0.0	0.0	0.0	0.0	4.611	4.65	4.65	4.5840000000000005	9.86291373901367	0.013168109130859374	0.09636661682128905	2.46429443359375	-3.63922119140625	-0.6256103515625	9.787496386718749	0.17118541870117188	0.1771709228515625	0.202178955078125	-5.115509033203125	-2.849578857421875	10.007762939453125	-0.04129997863769531	-0.2154781494140625	3.60107421875	-4.61578369140625	-2.262115478515625	
84	0.336	0.0	0.0	0.0	0.0	4.62	4.647	4.647	4.581	9.871293444824218	0.04369418029785156	0.08020575561523437	2.7313232421875	-3.570556640625	-0.91552734375	9.80066449584961	0.20829554443359374	0.1484405029296875	0.507354736328125	-5.008697509765625	-2.93731689453125	10.006565838623047	-0.012569558715820313	-0.2316390106201172	3.79180908203125	-4.5928955078125	-2.18963623046875	
85	0.34	0.0	0.0	0.0	0.0	4.611	4.644	4.647	4.599	9.873687646484374	0.0383072265625	0.07242460021972656	2.666473388671875	-3.520965576171875	-0.732421875	9.791087689208984	0.19333178405761717	0.1657984649658203	0.091552734375	-4.871368408203125	-2.674102783203125	10.008361489868163	-0.012569558715820313	-0.22445640563964842	3.513336181640625	-4.512786865234375	-2.079010009765625	
86	0.34400000000000003	0.0	0.0	0.0	0.0	4.6080000000000005	4.65	4.65	4.6080000000000005	9.873687646484374	0.017956512451171875	0.08738836059570312	2.78472900390625	-3.536224365234375	-0.78582763671875	9.784503634643555	0.17417817077636719	0.17298106994628906	0.217437744140625	-5.191802978515625	-2.86102294921875	10.011354241943359	-0.03232172241210937	-0.22206220397949217	3.72314453125	-4.79888916015625	-2.2125244140625	
87	0.34800000000000003	0.0	0.0	0.0	0.0	4.611	4.65	4.65	4.6080000000000005	9.87608184814453	0.04369418029785156	0.06763619689941405	2.613067626953125	-3.72314453125	-0.766754150390625	9.782707983398437	0.21308394775390624	0.15741875915527342	0.499725341796875	-4.87518310546875	-2.73895263671875	9.999383233642577	0.008978256225585938	-0.23822306518554687	3.74603271484375	-4.7149658203125	-2.132415771484375	
88	0.352	0.0	0.0	0.0	0.0	4.599	4.647	4.647	4.611	9.867103591918944	0.04249707946777344	0.05566518859863281	2.685546875	-3.437042236328125	-0.507354736328125	9.785102185058593	0.21308394775390624	0.143652099609375	0.2288818359375	-5.0201416015625	-2.803802490234375	10.005368737792969	0.0005985504150390625	-0.2454056701660156	3.826141357421875	-4.6234130859375	-2.117156982421875	
89	0.356	0.0	0.0	0.0	0.0	4.611	4.647	4.65	4.602	9.860519537353515	0.03411737365722656	0.061650692749023434	2.849578857421875	-3.803253173828125	-0.67901611328125	9.78629928588867	0.19991583862304688	0.1562216583251953	0.324249267578125	-4.547119140625	-2.70843505859375	10.013748443603514	-0.016160861206054686	-0.24779987182617186	3.7994384765625	-4.650115966796875	-2.06756591796875	
90	0.36	0.0	0.0	0.0	0.0	4.611	4.65	4.65	4.587	9.859322436523437	0.05805939025878906	0.06284779357910156	2.7313232421875	-3.8909912109375	-0.74005126953125	9.787496386718749	0.22685060729980466	0.13108254089355467	0.400543212890625	-4.711151123046875	-2.7618408203125	10.00955859069824	0.005985504150390624	-0.2549824768066406	3.7078857421875	-4.5928955078125	-2.216339111328125	
91	0.364	0.0	0.0	0.0	0.0	4.617	4.647	4.647	4.587	9.867103591918944	0.07422025146484375	0.05027823486328125	2.590179443359375	-3.44085693359375	-1.01470947265625	9.784503634643555	0.24001871643066405	0.1274912384033203	0.3204345703125	-4.604339599609375	-3.01361083984375	10.007762939453125	0.040102877807617184	-0.26336218261718747	3.814697265625	-4.833221435546875	-1.89971923828125	
92	0.368	0.0	0.0	0.0	0.0	4.62	4.641	4.647	4.602	9.85752678527832	0.08080430603027343	0.061650692749023434	2.685546875	-3.65447998046875	-0.77056884765625	9.789890588378906	0.2328361114501953	0.1304839904785156	-0.0457763671875	-4.7760009765625	-2.552032470703125	10.006565838623047	0.03232172241210937	-0.26216508178710934	3.7689208984375	-4.63104248046875	-2.1820068359375	
93	0.372	0.0	0.0	0.0	0.0	4.605	4.65	4.65	4.605	9.867702142333984	0.08678981018066406	0.05327098693847656	2.69317626953125	-3.452301025390625	-0.72479248046875	9.790489138793944	0.2651578338623047	0.1322796417236328	0.38909912109375	-4.70733642578125	-2.849578857421875	10.002974536132811	0.06883329772949218	-0.28969840087890625	3.66973876953125	-4.55474853515625	-2.063751220703125	
94	0.376	0.0	0.0	0.0	0.0	4.611	4.65	4.647	4.605	9.871293444824218	0.11552023010253906	0.04668693237304687	2.513885498046875	-3.3416748046875	-0.713348388671875	9.788693487548828	0.28311434631347654	0.12689268798828124	0.14495849609375	-5.0201416015625	-2.7923583984375	10.005967288208007	0.06703764648437499	-0.2980781066894531	3.849029541015625	-4.634857177734375	-2.22015380859375	
95	0.38	0.0	0.0	0.0	0.0	4.602	4.647	4.647	4.611	9.87668039855957	0.12449848632812499	0.05027823486328125	2.521514892578125	-3.6468505859375	-0.61798095703125	9.78629928588867	0.2705447875976562	0.12150573425292968	0.293731689453125	-4.924774169921875	-2.7923583984375	10.001178884887695	0.062249243164062495	-0.2807201446533203	3.490447998046875	-4.364013671875	-2.094268798828125	
96	0.384	0.0	0.0	0.0	0.0	4.611	4.647	4.6530000000000005	4.596	9.87009634399414	0.12330138549804687	0.06105214233398437	2.471923828125	-3.566741943359375	-0.86212158203125	9.789292037963866	0.2747346405029297	0.12449848632812499	0.415802001953125	-5.130767822265625	-2.87628173828125	10.013748443603514	0.07062894897460938	-0.28311434631347654	3.6773681640625	-4.467010498046875	-2.017974853515625	
97	0.388	0.0	0.0	0.0	0.0	4.6080000000000005	4.65	4.65	4.587	9.87009634399414	0.1227028350830078	0.05686228942871093	2.368927001953125	-3.6468505859375	-0.72479248046875	9.78629928588867	0.2825157958984375	0.13946224670410157	0.1068115234375	-4.825592041015625	-2.6092529296875	10.005368737792969	0.06763619689941405	-0.28730419921875	3.5247802734375	-4.657745361328125	-2.044677734375	
98	0.392	0.0	0.0	0.0	0.0	4.614	4.647	4.647	4.5840000000000005	9.867702142333984	0.1149216796875	0.06943184814453125	2.66265869140625	-3.5552978515625	-0.667572021484375	9.782707983398437	0.2861070983886719	0.14963760375976562	0.446319580078125	-5.001068115234375	-2.780914306640625	10.008960040283203	0.0718260498046875	-0.2645592834472656	3.459930419921875	-4.5013427734375	-2.23541259765625	
99	0.396	0.0	0.0	0.0	0.0	4.611	4.644	4.647	4.605	9.86291373901367	0.10654197387695312	0.08140285644531249	2.52532958984375	-3.498077392578125	-0.78582763671875	9.780912332153319	0.277727392578125	0.16280571289062498	0.335693359375	-4.78363037109375	-2.8076171875	10.008960040283203	0.06464344482421874	-0.2424129180908203	3.57818603515625	-4.459381103515625	-2.25830078125	
100	0.4	0.0	0.0	0.0	0.0	4.611	4.65	4.65	4.602	9.875483297729492	0.10295067138671875	0.08798691101074219	2.72369384765625	-3.513336181640625	-0.675201416015625	9.788693487548828	0.2651578338623047	0.15682020874023436	0.278472900390625	-4.85992431640625	-2.7618408203125	10.002974536132811	0.061650692749023434	-0.23403321228027343	3.627777099609375	-4.741668701171875	-2.09808349609375	
101	0.404	0.0	0.0	0.0	0.0	4.6080000000000005	4.65	4.647	4.611	9.87727894897461	0.10474632263183593	0.08259995727539061	2.475738525390625	-3.753662109375	-0.8392333984375	9.788693487548828	0.2711433380126953	0.1753752716064453	0.20599365234375	-4.749298095703125	-2.960205078125	10.007762939453125	0.0652419952392578	-0.21308394775390624	3.7078857421875	-4.6539306640625	-2.086639404296875	
102	0.40800000000000003	0.0	0.0	0.0	0.0	4.599	4.647	4.644	4.614	9.874884747314452	0.09277531433105468	0.105344873046875	2.773284912109375	-3.620147705078125	-0.5035400390625	9.781510882568359	0.2615665313720703	0.19871873779296872	0.225067138671875	-4.863739013671875	-2.552032470703125	10.000580334472655	0.054468087768554684	-0.1945288848876953	3.742218017578125	-4.726409912109375	-2.254486083984375	
103	0.41200000000000003	0.0	0.0	0.0	0.0	4.614	4.647	4.65	4.596	9.868899243164062	0.08200140686035155	0.09636661682128905	2.368927001953125	-3.24249267578125	-0.49591064453125	9.787496386718749	0.25737667846679685	0.19692308654785154	0.2593994140625	-5.0201416015625	-2.941131591796875	10.002974536132811	0.04369418029785156	-0.19812018737792966	3.7841796875	-4.35638427734375	-2.361297607421875	
104	0.41600000000000004	0.0	0.0	0.0	0.0	4.6080000000000005	4.65	4.65	4.5840000000000005	9.868899243164062	0.07841010437011718	0.1149216796875	2.498626708984375	-3.643035888671875	-0.77056884765625	9.789890588378906	0.2615665313720703	0.18914193115234373	0.156402587890625	-5.02777099609375	-2.872467041015625	9.995791931152343	0.04908113403320312	-0.19213468322753904	3.459930419921875	-4.497528076171875	-2.0599365234375	
105	0.42	0.0	0.0	0.0	0.0	4.6080000000000005	4.65	4.647	4.59	9.868899243164062	0.076614453125	0.12030863342285156	2.62451171875	-3.80706787109375	-0.606536865234375	9.787496386718749	0.24001871643066405	0.20829554443359374	0.179290771484375	-4.848480224609375	-2.83050537109375	10.001178884887695	0.03591302490234375	-0.17178396911621094	3.910064697265625	-4.550933837890625	-2.0751953125	
106	0.424	0.0	0.0	0.0	0.0	4.605	4.641	4.647	4.605	9.865906491088866	0.0652419952392578	0.12389993591308593	2.532958984375	-3.559112548828125	-0.90789794921875	9.788094937133788	0.23582886352539062	0.19692308654785154	0.148773193359375	-4.6844482421875	-2.63214111328125	10.007762939453125	0.023942016601562498	-0.17836802368164062	3.582000732421875	-4.642486572265625	-2.208709716796875	
107	0.428	0.0	0.0	0.0	0.0	4.611	4.65	4.65	4.605	9.86351228942871	0.0718260498046875	0.12868833923339842	2.796173095703125	-3.627777099609375	-0.804901123046875	9.784503634643555	0.24361001892089842	0.21308394775390624	0.0457763671875	-5.1116943359375	-2.910614013671875	10.01015714111328	0.03591302490234375	-0.18914193115234373	3.734588623046875	-4.3792724609375	-1.99127197265625	
108	0.432	0.0	0.0	0.0	0.0	4.6080000000000005	4.647	4.65	4.611	9.859920986938477	0.06105214233398437	0.1304839904785156	2.64739990234375	-3.4942626953125	-0.972747802734375	9.783306533813477	0.21906945190429686	0.2154781494140625	0.461578369140625	-4.974365234375	-2.777099609375	10.01015714111328	0.02633621826171875	-0.19153613281249998	3.772735595703125	-4.619598388671875	-2.285003662109375	
109	0.436	0.0	0.0	0.0	0.0	4.605	4.647	4.641	4.614	9.867103591918944	0.054468087768554684	0.13108254089355467	2.765655517578125	-3.631591796875	-0.949859619140625	9.781510882568359	0.22385785522460935	0.2059013427734375	0.3662109375	-5.130767822265625	-2.66265869140625	10.007762939453125	0.01915361328125	-0.19871873779296872	3.692626953125	-4.611968994140625	-2.170562744140625	
110	0.44	0.0	0.0	0.0	0.0	4.614	4.65	4.6530000000000005	4.593	9.873687646484374	0.062249243164062495	0.12030863342285156	2.666473388671875	-3.6468505859375	-0.732421875	9.784503634643555	0.2346317626953125	0.19393033447265623	0.29754638671875	-4.734039306640625	-2.8533935546875	10.016142645263672	0.023942016601562498	-0.20769699401855468	3.936767578125	-4.69207763671875	-2.0904541015625	
111	0.444	0.0	0.0	0.0	0.0	4.614	4.65	4.65	4.5840000000000005	9.867702142333984	0.05027823486328125	0.11073182678222655	2.582550048828125	-3.612518310546875	-0.77056884765625	9.787496386718749	0.21727380065917967	0.18255787658691405	0.034332275390625	-4.817962646484375	-2.643585205078125	10.015544094848632	0.008379705810546874	-0.21068974609375	3.7689208984375	-4.680633544921875	-2.315521240234375	
112	0.448	0.0	0.0	0.0	0.0	4.614	4.65	4.647	4.596	9.861716638183593	0.04369418029785156	0.11911153259277343	2.567291259765625	-3.47900390625	-0.87738037109375	9.788693487548828	0.20829554443359374	0.18435352783203124	0.476837158203125	-4.7149658203125	-2.811431884765625	10.014346994018554	0.011372457885742187	-0.2154781494140625	3.589630126953125	-4.6234130859375	-2.391815185546875	
113	0.452	0.0	0.0	0.0	0.0	4.611	4.638	4.647	4.605	9.86291373901367	0.04608838195800781	0.11192892761230468	2.60162353515625	-3.6468505859375	-0.843048095703125	9.7928833404541	0.2154781494140625	0.17238251953125	0.28228759765625	-4.96673583984375	-2.716064453125	10.005368737792969	0.018555062866210937	-0.22026655273437498	3.8909912109375	-4.67681884765625	-2.17437744140625	
114	0.456	0.0	0.0	0.0	0.0	4.6080000000000005	4.65	4.65	4.605	9.872490545654296	0.03651157531738281	0.11133037719726561	2.57110595703125	-3.475189208984375	-0.4425048828125	9.789890588378906	0.20530279235839843	0.16519991455078123	0.244140625	-5.10406494140625	-2.796173095703125	10.008960040283203	-0.0047884033203125	-0.2262520568847656	3.505706787109375	-4.32586669921875	-1.895904541015625	
115	0.46	0.0	0.0	0.0	0.0	4.605	4.647	4.65	4.614	9.860519537353515	0.034715924072265626	0.09935936889648436	2.544403076171875	-3.719329833984375	-0.80108642578125	9.785102185058593	0.20350714111328125	0.17597382202148437	0.2288818359375	-4.673004150390625	-2.899169921875	10.004770187377929	-0.013766659545898436	-0.23044190979003906	3.795623779296875	-4.87518310546875	-2.09808349609375	
116	0.464	0.0	0.0	0.0	0.0	4.602	4.647	4.644	4.611	9.873687646484374	0.029927520751953124	0.09277531433105468	2.704620361328125	-3.6468505859375	-0.79345703125	9.78629928588867	0.19871873779296872	0.16639701538085935	0.217437744140625	-4.84466552734375	-2.777099609375	9.9981861328125	-0.013168109130859374	-0.23642741394042968	3.467559814453125	-4.638671875	-2.140045166015625	
117	0.468	0.0	0.0	0.0	0.0	4.611	4.65	4.65	4.593	9.871293444824218	0.03890577697753906	0.07362170104980469	2.574920654296875	-3.70025634765625	-0.64849853515625	9.792284790039062	0.18914193115234373	0.16819266662597654	0.1220703125	-5.01251220703125	-2.811431884765625	10.005368737792969	-0.013168109130859374	-0.23044190979003906	3.62396240234375	-4.413604736328125	-2.155303955078125	
118	0.47200000000000003	0.0	0.0	0.0	0.0	4.614	4.65	4.65	4.5840000000000005	9.871891995239258	0.037110125732421874	0.08200140686035155	2.5787353515625	-3.574371337890625	-0.457763671875	9.789292037963866	0.1927332336425781	0.1657984649658203	0.46539306640625	-4.8065185546875	-2.895355224609375	10.011354241943359	-0.014963760375976562	-0.22086510314941404	3.80706787109375	-4.52423095703125	-2.323150634765625	
119	0.47600000000000003	0.0	0.0	0.0	0.0	4.611	4.647	4.647	4.596	9.864709390258788	0.029927520751953124	0.08499415893554688	2.5482177734375	-3.627777099609375	-0.64849853515625	9.785102185058593	0.1927332336425781	0.15322890625	0.415802001953125	-5.08880615234375	-2.8839111328125	10.014945544433592	-0.01975216369628906	-0.229843359375	3.53240966796875	-4.680633544921875	-2.201080322265625	
120	0.48	0.0	0.0	0.0	0.0	4.611	4.65	4.647	4.605	9.867702142333984	0.03531447448730469	0.08379705810546874	2.605438232421875	-3.696441650390625	-0.789642333984375	9.788693487548828	0.19213468322753904	0.13766659545898435	0.263214111328125	-4.69970703125	-2.75421142578125	10.008960040283203	-0.0143652099609375	-0.2328361114501953	3.65447998046875	-4.680633544921875	-2.26593017578125	
121	0.484	0.0	0.0	0.0	0.0	4.6080000000000005	4.65	4.65	4.6080000000000005	9.8694977935791	0.029927520751953124	0.06763619689941405	2.60162353515625	-3.597259521484375	-0.812530517578125	9.789890588378906	0.19632453613281248	0.1292868896484375	0.362396240234375	-4.810333251953125	-2.9296875	10.007762939453125	-0.0047884033203125	-0.24660277099609373	3.84521484375	-4.955291748046875	-2.254486083984375	
122	0.488	0.0	0.0	0.0	0.0	4.605	4.647	4.65	4.611	9.872490545654296	0.0383072265625	0.06404489440917968	2.73895263671875	-3.48663330078125	-0.87738037109375	9.785102185058593	0.20171148986816406	0.15023615417480468	0.26702880859375	-4.791259765625	-2.8076171875	9.9981861328125	-0.0047884033203125	-0.2537853759765625	3.696441650390625	-4.611968994140625	-2.32696533203125	
123	0.492	0.0	0.0	0.0	0.0	4.611	4.647	4.641	4.602	9.874884747314452	0.04848258361816406	0.06404489440917968	2.90679931640625	-3.910064697265625	-0.89263916015625	9.787496386718749	0.2184709014892578	0.14245499877929688	0.3509521484375	-4.99725341796875	-2.780914306640625	10.007762939453125	0.011971008300781249	-0.2609679809570312	3.71551513671875	-4.486083984375	-2.330780029296875	
124	0.496	0.0	0.0	0.0	0.0	4.611	4.65	4.65	4.587	9.867702142333984	0.05746083984375	0.052073886108398436	2.559661865234375	-3.780364990234375	-0.67901611328125	9.787496386718749	0.2136824981689453	0.12629413757324218	0.514984130859375	-5.0201416015625	-2.750396728515625	10.011354241943359	0.016160861206054686	-0.2609679809570312	3.742218017578125	-4.66156005859375	-2.06756591796875	
125	0.5	0.0	0.0	0.0	0.0	4.62	4.647	4.65	4.581	9.861716638183593	0.06404489440917968	0.061650692749023434	2.582550048828125	-3.826141357421875	-1.102447509765625	9.788693487548828	0.21607669982910155	0.12389993591308593	0.247955322265625	-4.70733642578125	-2.536773681640625	10.012551342773437	0.023343466186523436	-0.26216508178710934	3.6773681640625	-4.76837158203125	-2.231597900390625	
126	0.504	0.0	0.0	0.0	0.0	4.614	4.647	4.65	4.596	9.86291373901367	0.0652419952392578	0.062249243164062495	2.681732177734375	-3.330230712890625	-0.701904296875	9.78689783630371	0.24001871643066405	0.12629413757324218	0.14495849609375	-4.93621826171875	-2.796173095703125	10.01674119567871	0.04608838195800781	-0.27174188842773433	3.7078857421875	-4.61578369140625	-2.162933349609375	
127	0.508	0.0	0.0	0.0	0.0	4.611	4.65	4.65	4.599	9.865307940673828	0.08439560852050781	0.05386953735351562	2.7313232421875	-3.7841796875	-0.774383544921875	9.78689783630371	0.2424129180908203	0.12988544006347655	0.1373291015625	-4.795074462890625	-2.92205810546875	10.01015714111328	0.03950432739257812	-0.2723404388427734	3.66973876953125	-4.61578369140625	-2.1209716796875	
128	0.512	0.0	0.0	0.0	0.0	4.611	4.65	4.65	4.605	9.8694977935791	0.08439560852050781	0.07122749938964844	2.696990966796875	-3.528594970703125	-0.54931640625	9.78629928588867	0.2507926239013672	0.13168109130859373	0.133514404296875	-4.84466552734375	-2.69317626953125	10.015544094848632	0.040701428222656245	-0.2747346405029297	3.63922119140625	-4.547119140625	-2.285003662109375	
129	0.516	0.0	0.0	0.0	0.0	4.602	4.647	4.647	4.611	9.865307940673828	0.0939724151611328	0.07841010437011718	2.513885498046875	-3.5858154296875	-0.8544921875	9.788094937133788	0.2555810272216797	0.12808978881835936	0.3662109375	-4.95147705078125	-2.704620361328125	10.007762939453125	0.0526724365234375	-0.2723404388427734	3.620147705078125	-4.72259521484375	-2.29644775390625	
130	0.52	0.0	0.0	0.0	0.0	4.611	4.647	4.65	4.599	9.8694977935791	0.09816226806640624	0.06703764648437499	2.5482177734375	-3.635406494140625	-0.667572021484375	9.78629928588867	0.2537853759765625	0.12330138549804687	0.14495849609375	-4.50897216796875	-2.8839111328125	10.004770187377929	0.062249243164062495	-0.25737667846679685	3.604888916015625	-4.894256591796875	-2.132415771484375	
131	0.524	0.0	0.0	0.0	0.0	4.611	4.65	4.65	4.587	9.86411083984375	0.08858546142578125	0.07062894897460938	2.376556396484375	-3.42559814453125	-0.75531005859375	9.784503634643555	0.25139117431640623	0.1274912384033203	0.431060791015625	-5.02777099609375	-2.86102294921875	10.018536846923828	0.05626373901367187	-0.25318682556152344	3.662109375	-4.787445068359375	-2.1820068359375	
132	0.528	0.0	0.0	0.0	0.0	4.614	4.65	4.647	4.5840000000000005	9.866505041503906	0.0987608184814453	0.0718260498046875	2.49481201171875	-3.387451171875	-0.690460205078125	9.782707983398437	0.2657563842773437	0.15322890625	0.38909912109375	-5.0201416015625	-2.727508544921875	10.013149893188476	0.05985504150390625	-0.239420166015625	3.77655029296875	-4.58526611328125	-2.010345458984375	
133	0.532	0.0	0.0	0.0	0.0	4.614	4.644	4.647	4.599	9.875483297729492	0.10115502014160156	0.08259995727539061	2.376556396484375	-3.490447998046875	-0.9002685546875	9.784503634643555	0.26396073303222656	0.16460136413574217	0.08392333984375	-4.81414794921875	-2.712249755859375	10.002974536132811	0.06464344482421874	-0.23642741394042968	3.60107421875	-4.673004150390625	-2.285003662109375	
134	0.536	0.0	0.0	0.0	0.0	4.6080000000000005	4.65	4.65	4.605	9.861118087768554	0.09756371765136718	0.08559270935058594	2.55584716796875	-3.60107421875	-0.720977783203125	9.783905084228515	0.25258827514648435	0.16699556579589842	0.209808349609375	-4.993438720703125	-2.777099609375	9.996989031982421	0.059256491088867186	-0.21787235107421873	3.631591796875	-4.634857177734375	-2.06756591796875	
135	0.54	0.0	0.0	0.0	0.0	4.611	4.65	4.65	4.605	9.868899243164062	0.08319850769042968	0.09756371765136718	2.7008056640625	-3.76129150390625	-0.81634521484375	9.779116680908203	0.2609679809570312	0.181959326171875	0.263214111328125	-4.985809326171875	-3.009796142578125	10.003573086547851	0.05805939025878906	-0.20470424194335937	3.41033935546875	-4.566192626953125	-2.197265625	
136	0.544	0.0	0.0	0.0	0.0	4.602	4.647	4.647	4.614	9.868899243164062	0.09457096557617187	0.10354922180175781	2.460479736328125	-3.597259521484375	-0.823974609375	9.787496386718749	0.2651578338623047	0.1897404815673828	0.49591064453125	-4.749298095703125	-2.796173095703125	10.000580334472655	0.05087678527832031	-0.21248539733886718	3.6773681640625	-4.7149658203125	-2.239227294921875	
137	0.548	0.0	0.0	0.0	0.0	4.614	4.647	4.6530000000000005	4.599	9.873687646484374	0.08559270935058594	0.11073182678222655	2.552032470703125	-3.50189208984375	-0.57220458984375	9.783306533813477	0.2603694305419922	0.19213468322753904	0.270843505859375	-4.871368408203125	-2.880096435546875	10.000580334472655	0.04668693237304687	-0.18854338073730467	3.6163330078125	-4.5928955078125	-2.094268798828125	
138	0.552	0.0	0.0	0.0	0.0	4.611	4.65	4.65	4.587	9.87608184814453	0.08499415893554688	0.1149216796875	2.51007080078125	-3.414154052734375	-0.83160400390625	9.78629928588867	0.24600422058105467	0.19991583862304688	0.18310546875	-4.8370361328125	-2.788543701171875	10.005368737792969	0.04548983154296875	-0.19033903198242186	3.574371337890625	-4.444122314453125	-2.044677734375	
139	0.556	0.0	0.0	0.0	0.0	4.614	4.65	4.647	4.587	9.880870251464843	0.08259995727539061	0.11911153259277343	2.658843994140625	-3.597259521484375	-0.823974609375	9.791087689208984	0.24301146850585936	0.20649989318847656	0.1068115234375	-4.642486572265625	-2.819061279296875	10.002375985717773	0.047884033203124995	-0.18076222534179687	3.986358642578125	-4.596710205078125	-2.216339111328125	
140	0.56	0.0	0.0	0.0	0.0	4.614	4.644	4.647	4.602	9.878476049804688	0.08559270935058594	0.12090718383789062	2.61688232421875	-3.57818603515625	-0.6561279296875	9.785102185058593	0.24600422058105467	0.20769699401855468	0.5340576171875	-4.94384765625	-2.7618408203125	10.00417163696289	0.03172317199707031	-0.19512743530273435	3.528594970703125	-4.650115966796875	-2.1820068359375	
141	0.5640000000000001	0.0	0.0	0.0	0.0	4.6080000000000005	4.65	4.65	4.602	9.8694977935791	0.08798691101074219	0.1304839904785156	2.66265869140625	-3.536224365234375	-0.659942626953125	9.785102185058593	0.23822306518554687	0.20231004028320312	0.43487548828125	-4.993438720703125	-2.5177001953125	10.00417163696289	0.03232172241210937	-0.1927332336425781	3.65447998046875	-4.70733642578125	-2.285003662109375	
142	0.5680000000000001	0.0	0.0	0.0	0.0	4.611	4.65	4.647	4.605	9.8694977935791	0.07841010437011718	0.12569558715820311	2.468109130859375	-3.269195556640625	-1.018524169921875	9.785102185058593	0.23702596435546874	0.19931728820800781	0.133514404296875	-4.924774169921875	-2.864837646484375	9.994594830322265	0.0383072265625	-0.19871873779296872	3.70025634765625	-4.50897216796875	-1.995086669921875	
143	0.5720000000000001	0.0	0.0	0.0	0.0	4.602	4.647	4.644	4.614	9.883264453125	0.076614453125	0.11851298217773437	2.712249755859375	-3.658294677734375	-1.0223388671875	9.783306533813477	0.2346317626953125	0.19153613281249998	0.3662109375	-5.01251220703125	-2.90679931640625	10.001178884887695	0.037708676147460936	-0.20231004028320312	3.57818603515625	-4.528045654296875	-2.0751953125	
144	0.5760000000000001	0.0	0.0	0.0	0.0	4.614	4.647	4.65	4.596	9.872490545654296	0.076614453125	0.11133037719726561	2.7618408203125	-3.513336181640625	-0.827789306640625	9.785102185058593	0.2316390106201172	0.19033903198242186	0.22125244140625	-4.749298095703125	-2.666473388671875	9.999981784057617	0.040102877807617184	-0.19991583862304688	3.566741943359375	-4.398345947265625	-2.201080322265625	
145	0.58	0.0	0.0	0.0	0.0	4.614	4.65	4.65	4.5840000000000005	9.865906491088866	0.06464344482421874	0.1131260284423828	2.84576416015625	-3.749847412109375	-0.919342041015625	9.789890588378906	0.21906945190429686	0.18315642700195311	0.30517578125	-4.970550537109375	-2.95257568359375	10.01015714111328	0.03172317199707031	-0.20829554443359374	3.627777099609375	-4.60052490234375	-2.368927001953125	
146	0.584	0.0	0.0	0.0	0.0	4.614	4.647	4.647	4.59	9.873687646484374	0.07062894897460938	0.10175357055664062	2.74658203125	-3.44085693359375	-0.621795654296875	9.783905084228515	0.23044190979003906	0.17657237243652343	0.3509521484375	-4.772186279296875	-2.66265869140625	9.998784683227539	0.028131869506835935	-0.21787235107421873	3.704071044921875	-4.650115966796875	-2.353668212890625	
147	0.588	0.0	0.0	0.0	0.0	4.6080000000000005	4.644	4.647	4.602	9.872490545654296	0.06344634399414062	0.09457096557617187	2.64739990234375	-3.8604736328125	-0.789642333984375	9.785102185058593	0.21906945190429686	0.17836802368164062	0.32806396484375	-5.077362060546875	-2.83050537109375	10.002974536132811	0.01975216369628906	-0.2184709014892578	3.780364990234375	-4.932403564453125	-2.14385986328125	
148	0.592	0.0	0.0	0.0	0.0	4.6080000000000005	4.65	4.65	4.6080000000000005	9.88386300354004	0.05327098693847656	0.10654197387695312	2.613067626953125	-3.79180908203125	-0.972747802734375	9.785102185058593	0.2154781494140625	0.17417817077636719	0.148773193359375	-4.96673583984375	-2.899169921875	10.007762939453125	0.0143652099609375	-0.2214636535644531	3.810882568359375	-4.608154296875	-2.288818359375	
149	0.596	0.0	0.0	0.0	0.0	4.611	4.647	4.65	4.6080000000000005	9.87009634399414	0.06105214233398437	0.09337386474609374	2.70843505859375	-3.59344482421875	-0.896453857421875	9.78629928588867	0.2184709014892578	0.16280571289062498	0.335693359375	-4.73785400390625	-2.902984619140625	10.018536846923828	0.016759411621093748	-0.22266075439453123	3.757476806640625	-4.703521728515625	-2.1820068359375	
150	0.6	0.0	0.0	0.0	0.0	4.599	4.647	4.644	4.614	9.868300692749022	0.05027823486328125	0.09516951599121093	2.79998779296875	-3.543853759765625	-0.789642333984375	9.783306533813477	0.21727380065917967	0.16340426330566404	0.354766845703125	-4.7149658203125	-2.7923583984375	10.017938296508788	0.012569558715820313	-0.2232593048095703	3.536224365234375	-4.425048828125	-2.117156982421875	
151	0.604	0.0	0.0	0.0	0.0	4.614	4.647	4.6530000000000005	4.593	9.86291373901367	0.044292730712890624	0.08559270935058594	2.445220947265625	-3.612518310546875	-0.81634521484375	9.787496386718749	0.2154781494140625	0.16759411621093748	0.301361083984375	-4.82940673828125	-2.895355224609375	10.01075569152832	0.00718260498046875	-0.22026655273437498	3.459930419921875	-4.444122314453125	-2.09808349609375	
152	0.608	0.0	0.0	0.0	0.0	4.611	4.65	4.65	4.587	9.859920986938477	0.05327098693847656	0.08559270935058594	2.628326416015625	-3.326416015625	-0.86212158203125	9.79408044128418	0.21906945190429686	0.1657984649658203	0.164031982421875	-4.84466552734375	-2.666473388671875	10.008960040283203	-0.0005985504150390625	-0.2262520568847656	3.6773681640625	-4.528045654296875	-2.307891845703125	
153	0.612	0.0	0.0	0.0	0.0	4.611	4.647	4.647	4.59	9.864709390258788	0.040701428222656245	0.06703764648437499	2.62451171875	-3.635406494140625	-0.675201416015625	9.785102185058593	0.2088940948486328	0.16340426330566404	0.164031982421875	-5.123138427734375	-2.9449462890625	10.004770187377929	-0.008978256225585938	-0.2316390106201172	3.498077392578125	-4.451751708984375	-2.166748046875	
154	0.616	0.0	0.0	0.0	0.0	4.614	4.641	4.647	4.602	9.861716638183593	0.032920272827148434	0.08379705810546874	2.521514892578125	-3.490447998046875	-0.858306884765625	9.788693487548828	0.20290859069824219	0.16819266662597654	0.3662109375	-4.608154296875	-2.838134765625	10.008361489868163	-0.00239420166015625	-0.2316390106201172	3.757476806640625	-4.69207763671875	-1.911163330078125	
155	0.62	0.0	0.0	0.0	0.0	4.611	4.65	4.65	4.611	9.866505041503906	0.040102877807617184	0.08858546142578125	2.597808837890625	-3.620147705078125	-0.774383544921875	9.785102185058593	0.19931728820800781	0.15502455749511718	0.133514404296875	-4.825592041015625	-2.66265869140625	10.00417163696289	0.001197100830078125	-0.2316390106201172	3.66973876953125	-4.60052490234375	-2.20489501953125	
156	0.624	0.0	0.0	0.0	0.0	4.605	4.647	4.65	4.6080000000000005	9.8694977935791	0.044891281127929686	0.07003039855957031	2.635955810546875	-3.673553466796875	-0.682830810546875	9.791087689208984	0.20949264526367187	0.14784195251464843	0.152587890625	-4.9591064453125	-2.81524658203125	10.007164389038085	0.009576806640625	-0.2292448089599609	3.62396240234375	-4.7149658203125	-2.079010009765625	
157	0.628	0.0	0.0	0.0	0.0	4.602	4.647	4.644	4.617	9.878476049804688	0.05805939025878906	0.07781155395507812	2.544403076171875	-3.559112548828125	-0.705718994140625	9.789890588378906	0.21308394775390624	0.14305354919433594	0.293731689453125	-4.8828125	-2.605438232421875	10.005967288208007	0.010175357055664061	-0.24899697265624998	3.742218017578125	-4.306793212890625	-2.132415771484375	
158	0.632	0.0	0.0	0.0	0.0	4.617	4.65	4.6530000000000005	4.596	9.884461553955077	0.04608838195800781	0.08559270935058594	2.716064453125	-3.704071044921875	-0.926971435546875	9.79348189086914	0.21906945190429686	0.1406593475341797	0.118255615234375	-4.886627197265625	-2.75421142578125	10.003573086547851	0.015562310791015624	-0.25139117431640623	3.76129150390625	-4.840850830078125	-2.2125244140625	
159	0.636	0.0	0.0	0.0	0.0	4.614	4.65	4.65	4.5840000000000005	9.87608184814453	0.058657940673828124	0.0796072052001953	2.506256103515625	-3.482818603515625	-0.70953369140625	9.78629928588867	0.22505495605468748	0.14604630126953125	0.164031982421875	-4.886627197265625	-2.899169921875	10.005368737792969	0.012569558715820313	-0.2615665313720703	3.50189208984375	-4.47845458984375	-1.956939697265625	
160	0.64	0.0	0.0	0.0	0.0	4.611	4.644	4.647	4.59	9.875483297729492	0.06703764648437499	0.06943184814453125	2.60162353515625	-3.475189208984375	-0.514984130859375	9.78629928588867	0.22864625854492185	0.15023615417480468	0.354766845703125	-5.0811767578125	-2.70843505859375	10.003573086547851	0.023942016601562498	-0.2555810272216797	3.7994384765625	-4.459381103515625	-1.93023681640625	
161	0.644	0.0	0.0	0.0	0.0	4.611	4.638	4.647	4.599	9.873089096069336	0.06703764648437499	0.076614453125	2.765655517578125	-3.627777099609375	-0.4425048828125	9.78629928588867	0.23223756103515625	0.13587094421386717	0.553131103515625	-4.871368408203125	-2.86102294921875	10.006565838623047	0.022744915771484374	-0.27174188842773433	3.688812255859375	-4.634857177734375	-2.03704833984375	
162	0.648	0.0	0.0	0.0	0.0	4.6080000000000005	4.65	4.65	4.6080000000000005	9.87608184814453	0.0718260498046875	0.0909796630859375	2.5787353515625	-3.45611572265625	-0.69427490234375	9.778518130493163	0.24779987182617186	0.13946224670410157	0.2899169921875	-5.126953125	-2.750396728515625	10.000580334472655	0.034715924072265626	-0.27293898925781246	3.4942626953125	-4.73785400390625	-2.23541259765625	
163	0.652	0.0	0.0	0.0	0.0	4.599	4.65	4.647	4.605	9.872490545654296	0.07422025146484375	0.0796072052001953	2.60162353515625	-3.505706787109375	-0.80108642578125	9.785102185058593	0.24061726684570311	0.14724340209960937	0.14495849609375	-4.66156005859375	-2.712249755859375	10.018536846923828	0.034715924072265626	-0.2711433380126953	3.734588623046875	-4.7760009765625	-2.117156982421875	
164	0.656	0.0	0.0	0.0	0.0	4.605	4.647	4.641	4.611	9.87727894897461	0.08020575561523437	0.08020575561523437	2.593994140625	-3.73077392578125	-0.92315673828125	9.792284790039062	0.23822306518554687	0.14903905334472656	0.3204345703125	-5.084991455078125	-2.93731689453125	10.003573086547851	0.0430956298828125	-0.25737667846679685	3.536224365234375	-4.50897216796875	-2.3193359375	
165	0.66	0.0	0.0	0.0	0.0	4.611	4.65	4.65	4.59	9.877877499389648	0.08200140686035155	0.07422025146484375	2.765655517578125	-3.44085693359375	-0.949859619140625	9.80006594543457	0.24301146850585936	0.14963760375976562	0.179290771484375	-4.932403564453125	-2.9754638671875	10.008960040283203	0.051475335693359374	-0.25438392639160157	3.871917724609375	-4.642486572265625	-2.193450927734375	
166	0.664	0.0	0.0	0.0	0.0	4.617	4.65	4.647	4.581	9.867103591918944	0.08439560852050781	0.0796072052001953	2.76947021484375	-3.66973876953125	-0.69427490234375	9.787496386718749	0.2442085693359375	0.15322890625	0.087738037109375	-4.72259521484375	-2.69317626953125	9.993397729492187	0.03651157531738281	-0.24959552307128904	3.7689208984375	-4.512786865234375	-2.227783203125	
167	0.668	0.0	0.0	0.0	0.0	4.614	4.647	4.647	4.596	9.86411083984375	0.0796072052001953	0.07302315063476562	2.429962158203125	-3.635406494140625	-0.79345703125	9.789890588378906	0.2442085693359375	0.1693897674560547	0.125885009765625	-4.810333251953125	-2.86102294921875	10.001777435302733	0.04129997863769531	-0.2316390106201172	3.6468505859375	-4.673004150390625	-2.288818359375	
168	0.672	0.0	0.0	0.0	0.0	4.611	4.65	4.65	4.602	9.861118087768554	0.0796072052001953	0.08319850769042968	2.5482177734375	-3.45611572265625	-0.9918212890625	9.787496386718749	0.24480711975097655	0.16220716247558592	0.274658203125	-5.0048828125	-2.819061279296875	10.008361489868163	0.044891281127929686	-0.22266075439453123	3.833770751953125	-4.61578369140625	-2.147674560546875	
169	0.676	0.0	0.0	0.0	0.0	4.611	4.65	4.65	4.6080000000000005	9.861716638183593	0.054468087768554684	0.08319850769042968	2.582550048828125	-3.665924072265625	-0.75531005859375	9.779715231323241	0.22864625854492185	0.17357962036132812	0.354766845703125	-4.947662353515625	-2.864837646484375	10.00417163696289	0.023343466186523436	-0.21128829650878905	3.77655029296875	-4.665374755859375	-2.170562744140625	
170	0.68	0.0	0.0	0.0	0.0	4.605	4.647	4.65	4.611	9.87009634399414	0.08978256225585937	0.08678981018066406	2.674102783203125	-3.6468505859375	-0.67138671875	9.78629928588867	0.26755203552246093	0.15203180541992187	0.1678466796875	-5.0811767578125	-3.047943115234375	9.999383233642577	0.08379705810546874	-0.20051438903808594	3.7078857421875	-4.489898681640625	-2.178192138671875	
171	0.684	0.0	0.0	0.0	0.0	4.611	4.647	4.641	4.602	9.834183319091796	0.10414777221679687	0.13108254089355467	2.506256103515625	-3.570556640625	-0.75531005859375	9.783905084228515	0.20709844360351562	0.17118541870117188	0.202178955078125	-4.871368408203125	-2.84576416015625	9.996989031982421	0.030526071166992186	-0.21248539733886718	3.70025634765625	-4.70733642578125	-2.288818359375	
172	0.6880000000000001	0.0	0.0	0.0	0.0	4.611	4.65	4.65	4.5840000000000005	9.868300692749022	0.031124621582031248	0.09696516723632811	2.460479736328125	-3.56292724609375	-0.720977783203125	9.791686239624022	0.20829554443359374	0.16160861206054686	0.400543212890625	-4.55474853515625	-3.093719482421875	10.04906291809082	-0.03651157531738281	-0.2472013214111328	3.5858154296875	-4.5928955078125	-2.346038818359375	
173	0.6920000000000001	0.0	0.0	0.0	0.0	4.617	4.65	4.647	4.581	9.834781869506836	0.13766659545898435	0.1580173095703125	2.536773681640625	-3.566741943359375	-0.58746337890625	9.769539874267577	0.32082302246093747	0.23044190979003906	0.28228759765625	-4.833221435546875	-2.796173095703125	10.020931048583984	0.1227028350830078	-0.2154781494140625	3.7384033203125	-4.57000732421875	-2.2430419921875	
174	0.6960000000000001	0.0	0.0	0.0	0.0	4.6080000000000005	4.644	4.647	4.599	9.859322436523437	0.008978256225585938	0.08319850769042968	2.506256103515625	-3.528594970703125	-0.789642333984375	9.798868844604492	0.1975216369628906	0.14185644836425781	0.63323974609375	-4.978179931640625	-2.777099609375	10.032902056884765	-0.03172317199707031	-0.24959552307128904	3.692626953125	-4.638671875	-2.08282470703125	
175	0.7000000000000001	0.0	0.0	0.0	0.0	4.6080000000000005	4.65	4.647	4.605	9.813832604980469	0.13467384338378904	0.17298106994628906	2.50244140625	-3.4637451171875	-0.965118408203125	9.76235726928711	0.26396073303222656	0.24061726684570311	0.12969970703125	-4.840850830078125	-2.73895263671875	10.01733974609375	0.09217676391601562	-0.2041056915283203	3.650665283203125	-4.6539306640625	-2.2735595703125	
176	0.704	0.0	0.0	0.0	0.0	4.614	4.65	4.65	4.605	9.903615167236328	0.05805939025878906	0.11073182678222655	2.552032470703125	-3.66973876953125	-0.812530517578125	9.82580361328125	0.15562310791015624	0.14006079711914063	0.30517578125	-4.833221435546875	-2.834320068359375	10.081384640502929	-0.022146365356445312	-0.27892449340820313	3.753662109375	-4.57763671875	-2.407073974609375	
177	0.708	0.0	0.0	0.0	0.0	4.605	4.65	4.647	4.6080000000000005	9.813832604980469	0.19153613281249998	0.19213468322753904	2.574920654296875	-3.68499755859375	-0.75531005859375	9.752181912231444	0.29568390502929687	0.2663549346923828	0.26702880859375	-4.75311279296875	-2.674102783203125	10.032303506469725	0.15741875915527342	-0.2154781494140625	3.7994384765625	-4.711151123046875	-2.0294189453125	
178	0.712	0.0	0.0	0.0	0.0	4.6080000000000005	4.647	4.65	4.599	9.919177478027343	0.018555062866210937	0.10354922180175781	2.468109130859375	-3.34930419921875	-0.86212158203125	9.820416659545899	0.09516951599121093	0.13766659545898435	0.396728515625	-4.8370361328125	-2.964019775390625	10.025719451904296	-0.0987608184814453	-0.2645592834472656	3.60107421875	-4.5013427734375	-2.101898193359375	
179	0.716	0.0	0.0	0.0	0.0	4.611	4.65	4.65	4.587	9.890447058105469	0.16998831787109375	0.029927520751953124	3.200531005859375	-3.5247802734375	-0.61798095703125	9.792284790039062	0.36272155151367186	0.16879121704101563	0.640869140625	-5.035400390625	-2.81524658203125	10.044274514770507	0.19153613281249998	-0.22385785522460935	3.528594970703125	-4.695892333984375	-2.13623046875	
180	0.72	0.0	0.0	0.0	0.0	4.617	4.65	4.647	4.5840000000000005	9.916783276367187	0.04189852905273437	0.12030863342285156	2.60162353515625	-3.66973876953125	-0.522613525390625	9.82580361328125	0.0718260498046875	0.12808978881835936	0.4730224609375	-4.947662353515625	-2.8533935546875	10.035894808959961	-0.0796072052001953	-0.28490999755859375	3.757476806640625	-4.840850830078125	-2.231597900390625	
181	0.724	0.0	0.0	0.0	0.0	4.614	4.644	4.647	4.602	9.88266590270996	0.1693897674560547	0.020350714111328123	2.93731689453125	-3.795623779296875	-0.732421875	9.785700735473633	0.3381809844970703	0.18076222534179687	0.28228759765625	-4.8980712890625	-2.780914306640625	10.035296258544921	0.17776947326660156	-0.1580173095703125	3.57818603515625	-4.512786865234375	-2.330780029296875	
182	0.728	0.0	0.0	0.0	0.0	4.6080000000000005	4.65	4.65	4.605	9.928155734252929	0.029328970336914062	0.11552023010253906	2.78472900390625	-3.47900390625	-0.762939453125	9.78031378173828	0.1562216583251953	0.15502455749511718	0.057220458984375	-4.795074462890625	-2.55584716796875	10.058041174316406	-0.0987608184814453	-0.28371289672851563	3.780364990234375	-4.627227783203125	-2.06756591796875	
183	0.732	0.0	0.0	0.0	0.0	4.611	4.65	4.65	4.6080000000000005	9.87009634399414	0.15083470458984374	0.0143652099609375	3.093719482421875	-3.7841796875	-0.858306884765625	9.78629928588867	0.34237083740234375	0.17477672119140625	0.286102294921875	-4.909515380859375	-2.872467041015625	9.944316595458984	0.08020575561523437	-0.15382745666503905	3.734588623046875	-4.53948974609375	-2.28118896484375	
184	0.736	0.0	0.0	0.0	0.0	4.602	4.647	4.644	4.614	9.85094273071289	0.086191259765625	0.05566518859863281	2.7618408203125	-3.63922119140625	-0.54931640625	9.767145672607422	0.1304839904785156	0.16160861206054686	0.2593994140625	-4.6844482421875	-2.67791748046875	10.024522351074218	-0.12090718383789062	-0.28311434631347654	3.551483154296875	-5.13458251953125	-2.109527587890625	
185	0.74	0.0	0.0	0.0	0.0	4.614	4.647	4.65	4.599	9.861716638183593	0.15023615417480468	0.028730419921875	3.07464599609375	-3.993988037109375	-0.66375732421875	9.720458740234374	0.32561142578124996	0.2136824981689453	0.308990478515625	-4.970550537109375	-3.047943115234375	9.935936889648437	0.09696516723632811	-0.13287819213867186	3.658294677734375	-4.596710205078125	-2.353668212890625	
186	0.744	0.0	0.0	0.0	0.0	4.6080000000000005	4.65	4.65	4.587	9.867103591918944	0.07062894897460938	0.047884033203124995	2.704620361328125	-3.85284423828125	-0.74005126953125	9.7928833404541	0.07781155395507812	0.143652099609375	0.22125244140625	-4.825592041015625	-2.6397705078125	9.896432562255859	0.028730419921875	-0.12389993591308593	3.894805908203125	-4.657745361328125	-2.002716064453125	
187	0.748	0.0	0.0	0.0	0.0	4.614	4.647	4.647	4.587	9.842563024902343	0.14544775085449219	0.01975216369628906	3.551483154296875	-3.688812255859375	-0.6256103515625	9.707290631103515	0.34057518615722654	0.21787235107421873	0.396728515625	-4.749298095703125	-3.05938720703125	9.906009368896484	0.10474632263183593	-0.12449848632812499	3.753662109375	-4.57763671875	-2.29644775390625	
188	0.752	0.0	0.0	0.0	0.0	4.614	4.644	4.647	4.602	9.852139831542969	0.10235212097167969	0.05686228942871093	2.78472900390625	-3.688812255859375	-0.69427490234375	9.764751470947266	0.13766659545898435	0.12449848632812499	0.331878662109375	-4.90570068359375	-2.727508544921875	9.885060104370117	0.062249243164062495	-0.11372457885742186	3.795623779296875	-4.665374755859375	-1.956939697265625	
189	0.756	0.0	0.0	0.0	0.0	4.6080000000000005	4.65	4.65	4.605	9.86291373901367	-0.10115502014160156	0.10953472595214843	2.51007080078125	-3.15093994140625	-0.90789794921875	9.6917283203125	0.33698388366699217	0.21906945190429686	0.30517578125	-4.627227783203125	-3.1890869140625	9.994594830322265	-0.07122749938964844	-0.26336218261718747	3.604888916015625	-4.413604736328125	-2.201080322265625	
190	0.76	0.0	0.0	0.0	0.0	4.611	4.65	4.65	4.6080000000000005	9.859322436523437	0.0987608184814453	0.05626373901367187	2.552032470703125	-3.818511962890625	-0.759124755859375	9.775525378417969	0.28490999755859375	0.08858546142578125	0.1678466796875	-5.077362060546875	-2.704620361328125	9.882067352294921	0.04668693237304687	-0.11611878051757812	3.82232666015625	-4.688262939453125	-2.0294189453125	
191	0.764	0.0	0.0	0.0	0.0	4.599	4.647	4.644	4.614	9.86291373901367	-0.0939724151611328	0.08738836059570312	2.437591552734375	-3.406524658203125	-0.934600830078125	9.685742816162108	0.3752911102294922	0.23104046020507812	0.457763671875	-4.749298095703125	-3.04412841796875	9.991003527832031	-0.06284779357910156	-0.27832594299316404	3.7078857421875	-4.608154296875	-2.544403076171875	
192	0.768	0.0	0.0	0.0	0.0	4.614	4.647	4.6530000000000005	4.593	9.878476049804688	0.013766659545898436	0.17178396911621094	1.735687255859375	-3.200531005859375	-1.041412353515625	9.758765966796874	0.297479556274414	0.08080430603027343	0.331878662109375	-4.924774169921875	-2.628326416015625	9.88386300354004	0.20949264526367187	-0.2184709014892578	3.53240966796875	-4.589080810546875	-1.918792724609375	
193	0.772	0.0	0.0	0.0	0.0	4.614	4.65	4.65	4.5840000000000005	9.849745629882811	-0.11851298217773437	0.07242460021972656	2.26593017578125	-3.200531005859375	-0.95367431640625	9.791087689208984	0.1975216369628906	0.12689268798828124	0.362396240234375	-4.9591064453125	-3.07464599609375	9.986813674926758	-0.07900865478515624	-0.3076549133300781	3.7994384765625	-4.2724609375	-2.262115478515625	
194	0.776	0.0	0.0	0.0	0.0	4.617	4.647	4.647	4.593	9.87608184814453	0.05746083984375	0.17657237243652343	1.659393310546875	-3.261566162109375	-0.949859619140625	9.763554370117188	0.3136404174804687	0.08140285644531249	0.43487548828125	-5.092620849609375	-2.86102294921875	10.038289010620117	0.22445640563964842	-0.2292448089599609	3.84521484375	-4.669189453125	-1.9683837890625	
195	0.78	0.0	0.0	0.0	0.0	4.614	4.641	4.647	4.605	9.852139831542969	-0.1274912384033203	0.0718260498046875	2.3345947265625	-3.204345703125	-0.93841552734375	9.795876092529296	0.21009119567871093	0.14305354919433594	0.293731689453125	-4.741668701171875	-2.960205078125	9.982623822021484	-0.10773907470703124	-0.3016694091796875	3.757476806640625	-4.57763671875	-2.460479736328125	
196	0.784	0.0	0.0	0.0	0.0	4.611	4.65	4.65	4.605	9.888651406860351	0.10714052429199218	0.1897404815673828	1.93023681640625	-3.185272216796875	-0.9307861328125	9.790489138793944	0.36691140441894526	0.3315969299316406	0.14495849609375	-4.8370361328125	-2.655029296875	10.04846436767578	0.2262520568847656	-0.22206220397949217	3.7384033203125	-4.70733642578125	-1.956939697265625	
197	0.788	0.0	0.0	0.0	0.0	4.6080000000000005	4.647	4.647	4.6080000000000005	9.938331091308592	0.007781155395507812	0.016759411621093748	2.55584716796875	-3.39508056640625	-0.949859619140625	9.797073193359374	0.22565350646972654	0.14245499877929688	0.244140625	-4.913330078125	-3.269195556640625	10.186130963134765	-0.2292448089599609	-0.47105917663574215	3.79180908203125	-4.749298095703125	-2.38037109375	
198	0.792	0.0	0.0	0.0	0.0	4.605	4.647	4.644	4.614	9.887454306030273	0.13646949462890623	0.20709844360351562	2.063751220703125	-3.3111572265625	-0.8697509765625	9.78629928588867	0.3603273498535156	0.3381809844970703	0.087738037109375	-4.917144775390625	-2.49481201171875	10.036493359375	0.2376245147705078	-0.22266075439453123	3.74603271484375	-4.566192626953125	-1.94549560546875	
199	0.796	0.0	0.0	0.0	0.0	4.614	4.65	4.65	4.596	9.935936889648437	0.004189852905273437	0.010773907470703125	2.52532958984375	-3.4027099609375	-0.835418701171875	9.9215716796875	-0.12629413757324218	-0.025737667846679687	0.217437744140625	-4.94384765625	-2.941131591796875	10.199897622680663	-0.23882161560058593	-0.49260699157714843	3.71551513671875	-4.730224609375	-2.26593017578125	
200	0.8	0.0	0.0	0.0	0.0	4.614	4.65	4.65	4.5840000000000005	9.874286196899414	0.18614917907714842	0.23822306518554687	2.685546875	-3.1890869140625	-0.762939453125	9.7928833404541	0.3752911102294922	0.3333925811767578	-0.110626220703125	-4.764556884765625	-2.422332763671875	10.052654220581054	0.3920505218505859	-0.229843359375	3.57818603515625	-4.726409912109375	-2.285003662109375	
201	0.804	0.0	0.0	0.0	0.0	4.611	4.647	4.647	4.593	9.955689053344726	-0.011971008300781249	0.012569558715820313	2.58636474609375	-3.612518310546875	-1.094818115234375	9.929951385498047	-0.16041151123046873	-0.03531447448730469	0.35858154296875	-4.7454833984375	-2.742767333984375	10.212467181396484	-0.25139117431640623	-0.49679684448242184	3.82232666015625	-4.61578369140625	-2.349853515625	
202	0.808	0.0	0.0	0.0	0.0	4.611	4.638	4.647	4.605	9.817423907470703	0.29388825378417965	0.030526071166992186	3.33404541015625	-3.80706787109375	-0.522613525390625	9.7545761138916	0.4722562774658203	0.17836802368164062	0.4119873046875	-4.962921142578125	-2.78472900390625	10.039486111450195	0.421978042602539	-0.2088940948486328	3.70025634765625	-4.69207763671875	-2.23541259765625	
203	0.812	0.0	0.0	0.0	0.0	4.617	4.65	4.65	4.6080000000000005	9.96586441040039	-0.029328970336914062	-0.003591302490234375	2.330780029296875	-3.662109375	-0.79345703125	9.936535440063476	-0.19033903198242186	-0.051475335693359374	0.331878662109375	-4.894256591796875	-2.658843994140625	10.019135397338866	-0.1879448303222656	-0.21009119567871093	3.673553466796875	-4.70733642578125	-1.987457275390625	
204	0.8160000000000001	0.0	0.0	0.0	0.0	4.605	4.647	4.647	4.6080000000000005	9.82460651245117	0.2316390106201172	0.017956512451171875	3.2196044921875	-3.9825439453125	-0.835418701171875	9.74200655517578	0.4608838195800781	0.201112939453125	0.42724609375	-5.035400390625	-2.628326416015625	10.038887561035155	0.42018239135742186	-0.2041056915283203	3.6468505859375	-4.730224609375	-2.349853515625	
205	0.8200000000000001	0.0	0.0	0.0	0.0	4.596	4.647	4.644	4.611	9.95329485168457	-0.1274912384033203	-0.07062894897460938	2.277374267578125	-3.59344482421875	-0.4730224609375	9.814431155395507	-0.062249243164062495	0.14125789794921875	0.4730224609375	-5.0048828125	-2.780914306640625	10.018536846923828	-0.19213468322753904	-0.19931728820800781	3.582000732421875	-4.92095947265625	-1.979827880859375	
206	0.8240000000000001	0.0	0.0	0.0	0.0	4.611	4.65	4.65	4.59	9.821015209960937	0.1801636749267578	-0.016759411621093748	2.8839111328125	-3.83758544921875	-0.827789306640625	9.730035546875	0.5105635040283203	0.20649989318847656	0.362396240234375	-5.1116943359375	-2.613067626953125	10.043077413940429	0.48123453369140623	-0.19393033447265623	3.719329833984375	-4.688262939453125	-2.223968505859375	
207	0.8280000000000001	0.0	0.0	0.0	0.0	4.617	4.65	4.65	4.5840000000000005	9.865906491088866	-0.14484920043945312	0.12629413757324218	1.983642578125	-3.246307373046875	-0.606536865234375	9.818022457885741	-0.09576806640624999	0.16819266662597654	0.335693359375	-4.7149658203125	-2.6092529296875	10.02332525024414	-0.2615665313720703	-0.18136077575683593	3.734588623046875	-4.673004150390625	-2.071380615234375	
208	0.8320000000000001	0.0	0.0	0.0	0.0	4.62	4.647	4.647	4.599	9.82460651245117	0.10115502014160156	-0.017357962036132813	2.4261474609375	-3.3721923828125	-1.171112060546875	9.655815295410155	0.5458779785156249	0.2753331909179687	0.827789306640625	-4.703521728515625	-3.574371337890625	9.82460651245117	0.07003039855957031	-0.029927520751953124	3.559112548828125	-4.436492919921875	-2.666473388671875	
209	0.836	0.0	0.0	0.0	0.0	4.611	4.65	4.65	4.602	9.849147079467773	-0.062249243164062495	0.13108254089355467	1.73187255859375	-3.070831298828125	-0.66375732421875	9.815029705810547	-0.02633621826171875	0.1640028137207031	0.286102294921875	-4.817962646484375	-2.70843505859375	10.02332525024414	-0.18136077575683593	-0.18315642700195311	3.57818603515625	-4.840850830078125	-1.934051513671875	
210	0.84	0.0	0.0	0.0	0.0	4.6080000000000005	4.65	4.65	4.6080000000000005	9.832986218261718	0.051475335693359374	0.1945288848876953	2.655029296875	-3.444671630859375	-0.8392333984375	9.634267480468749	0.6069301208496093	0.3064578125	0.385284423828125	-4.421234130859375	-3.551483154296875	9.816226806640625	0.05027823486328125	-0.016160861206054686	3.753662109375	-4.302978515625	-2.231597900390625	
211	0.844	0.0	0.0	0.0	0.0	4.605	4.647	4.65	4.611	9.85692823486328	-0.07721300354003906	0.14245499877929688	1.6632080078125	-3.147125244140625	-0.9307861328125	9.83238766784668	-0.10654197387695312	0.16759411621093748	0.278472900390625	-4.98199462890625	-2.6702880859375	9.868300692749022	-0.13467384338378904	-0.13467384338378904	3.833770751953125	-4.817962646484375	-1.71661376953125	
212	0.848	0.0	0.0	0.0	0.0	4.611	4.647	4.641	4.605	9.893439810180663	0.1693897674560547	0.17776947326660156	3.25775146484375	-3.810882568359375	-0.60272216796875	9.65342109375	0.6823474731445313	0.3094505645751953	0.67138671875	-4.70733642578125	-3.662109375	9.819818109130859	0.10354922180175781	-0.015562310791015624	3.56292724609375	-4.45556640625	-2.582550048828125	
213	0.852	0.0	0.0	0.0	0.0	4.611	4.65	4.65	4.587	9.875483297729492	0.10115502014160156	0.15682020874023436	1.682281494140625	-3.086090087890625	-0.728607177734375	9.692925421142577	0.39923312683105466	0.14903905334472656	0.301361083984375	-5.11932373046875	-2.490997314453125	9.840168823242188	-0.08259995727539061	-0.15682020874023436	3.6468505859375	-4.566192626953125	-1.68609619140625	
214	0.856	0.0	0.0	0.0	0.0	4.614	4.65	4.647	4.5840000000000005	9.929352835083007	0.19153613281249998	0.17597382202148437	4.207611083984375	-3.84521484375	-0.301361083984375	9.647435589599608	0.670975015258789	0.3268085266113281	0.614166259765625	-4.573822021484375	-3.6468505859375	9.973047015380859	-0.1867477294921875	-0.36930560607910157	3.719329833984375	-4.421234130859375	-2.414703369140625	
215	0.86	0.0	0.0	0.0	0.0	4.617	4.644	4.647	4.599	9.930549935913085	0.3345896820068359	-0.034715924072265626	4.131317138671875	-4.35638427734375	-0.23651123046875	9.719860189819336	0.4064157318115234	0.15083470458984374	0.186920166015625	-4.55474853515625	-2.536773681640625	9.874286196899414	-0.08080430603027343	-0.15382745666503905	3.59344482421875	-4.70733642578125	-1.911163330078125	
216	0.864	0.0	0.0	0.0	0.0	4.611	4.65	4.65	4.605	9.961076007080077	0.2280477081298828	0.14604630126953125	4.924774169921875	-4.680633544921875	-0.0762939453125	9.808445651245117	0.19871873779296872	0.13108254089355467	0.00762939453125	-4.886627197265625	-3.45611572265625	9.97184991455078	-0.12449848632812499	-0.3746925598144531	3.787994384765625	-4.4403076171875	-2.475738525390625	
217	0.868	0.0	0.0	0.0	0.0	4.614	4.65	4.65	4.6080000000000005	9.90241806640625	0.2950853546142578	-0.023343466186523436	4.486083984375	-4.642486572265625	-0.179290771484375	9.706093530273437	0.3890577697753906	0.1897404815673828	0.118255615234375	-5.01251220703125	-2.361297607421875	9.85632968444824	-0.07721300354003906	-0.13467384338378904	3.551483154296875	-4.718780517578125	-1.644134521484375	
218	0.872	0.0	0.0	0.0	0.0	4.602	4.647	4.647	4.611	9.989207876586914	0.20649989318847656	0.12988544006347655	3.932952880859375	-4.444122314453125	-0.5950927734375	9.81862100830078	0.16819266662597654	0.15741875915527342	0.019073486328125	-4.75311279296875	-3.513336181640625	9.99220062866211	-0.12629413757324218	-0.35673604736328124	3.59344482421875	-4.528045654296875	-2.376556396484375	
219	0.876	0.0	0.0	0.0	0.0	4.611	4.647	4.65	4.596	9.898826763916015	0.19692308654785154	-0.01975216369628906	4.43267822265625	-4.64630126953125	-0.133514404296875	9.82520506286621	0.31543606872558594	0.22206220397949217	0.034332275390625	-4.98199462890625	-2.292633056640625	10.043077413940429	0.4704606262207031	-0.21787235107421873	3.68499755859375	-4.87518310546875	-1.926422119140625	
220	0.88	0.0	0.0	0.0	0.0	4.611	4.65	4.6530000000000005	4.5840000000000005	9.766547122192382	-0.14604630126953125	0.01915361328125	3.37982177734375	-4.0740966796875	-1.09100341796875	9.797073193359374	0.21787235107421873	0.17836802368164062	-0.030517578125	-4.8675537109375	-3.42559814453125	9.964068759155273	-0.04189852905273437	-0.3441664886474609	3.6163330078125	-4.383087158203125	-2.38800048828125	
221	0.884	0.0	0.0	0.0	0.0	4.617	4.65	4.647	4.587	9.871891995239258	0.16220716247558592	-0.0017956512451171875	4.291534423828125	-4.207611083984375	-0.06866455078125	9.813234054565429	0.35314474487304687	0.2328361114501953	0.0	-5.130767822265625	-2.2735595703125	10.032303506469725	0.5063736511230469	-0.19812018737792966	3.6773681640625	-4.8370361328125	-1.667022705078125	
222	0.888	0.0	0.0	0.0	0.0	4.617	4.644	4.647	4.596	9.762955819702148	-0.23582886352539062	0.008379705810546874	2.86102294921875	-3.925323486328125	-0.96893310546875	9.98501802368164	-0.3327940307617187	-0.1484405029296875	0.583648681640625	-5.252838134765625	-2.826690673828125	10.308833798217773	-0.32561142578124996	-0.5835866546630859	3.7841796875	-4.482269287109375	-2.361297607421875	
223	0.892	0.0	0.0	0.0	0.0	4.614	4.65	4.65	4.602	9.650428341674804	0.03591302490234375	0.3920505218505859	0.57220458984375	-2.44140625	-1.434326171875	9.802460147094726	0.3315969299316406	0.2346317626953125	-0.38909912109375	-5.0201416015625	-2.26593017578125	10.036493359375	0.43933600463867184	-0.21787235107421873	3.63922119140625	-4.638671875	-1.73187255859375	
224	0.896	0.0	0.0	0.0	0.0	4.6080000000000005	4.65	4.65	4.6080000000000005	9.735422500610351	-0.20709844360351562	0.017956512451171875	2.5177001953125	-3.4637451171875	-1.21307373046875	9.970054263305663	-0.30346506042480464	-0.12330138549804687	0.301361083984375	-4.79888916015625	-2.7923583984375	10.29865844116211	-0.3124433166503906	-0.59376201171875	3.742218017578125	-4.52423095703125	-2.3345947265625	
225	0.9	0.0	0.0	0.0	0.0	4.602	4.647	4.647	4.614	9.645041387939452	0.05746083984375	0.38367081604003905	0.38909912109375	-2.445220947265625	-1.3275146484375	9.683947164916992	0.4955997436523437	0.3321954803466797	0.507354736328125	-5.04302978515625	-2.51007080078125	10.043077413940429	0.4632780212402344	-0.143652099609375	3.543853759765625	-4.711151123046875	-2.20489501953125	
226	0.904	0.0	0.0	0.0	0.0	4.614	4.647	4.6530000000000005	4.602	9.727641345214844	-0.30705636291503907	0.0047884033203125	2.044677734375	-3.459930419921875	-1.44195556640625	9.969455712890625	-0.3573345977783203	-0.11252747802734374	0.28228759765625	-4.665374755859375	-2.758026123046875	10.28549033203125	-0.316034619140625	-0.5847837554931641	3.757476806640625	-4.825592041015625	-2.4566650390625	
227	0.908	0.0	0.0	0.0	0.0	4.611	4.65	4.65	4.5840000000000005	9.642647186279296	0.08259995727539061	0.3585316986083984	0.28228759765625	-2.391815185546875	-1.45721435546875	9.667187753295899	0.41898529052734373	0.3705027069091797	0.34332275390625	-5.176544189453125	-2.61688232421875	10.015544094848632	0.4213794921875	-0.105344873046875	3.5247802734375	-4.55474853515625	-2.28118896484375	
228	0.912	0.0	0.0	0.0	0.0	4.614	4.647	4.65	4.587	9.92217023010254	-0.21966800231933592	0.07841010437011718	-0.408172607421875	-2.288818359375	-1.617431640625	9.90181951599121	-0.24779987182617186	0.062249243164062495	0.583648681640625	-4.791259765625	-2.69317626953125	10.286687432861328	-0.30466216125488277	-0.575206948852539	3.742218017578125	-4.688262939453125	-1.827239990234375	
229	0.916	0.0	0.0	0.0	0.0	4.617	4.644	4.647	4.602	9.669581954956055	-0.028730419921875	0.3459621398925781	0.087738037109375	-2.330780029296875	-1.178741455078125	9.673771807861328	0.49380409240722656	0.3746925598144531	0.32806396484375	-4.878997802734375	-2.72369384765625	10.03050785522461	0.44113165588378905	-0.12389993591308593	3.787994384765625	-4.64630126953125	-2.3956298828125	
230	0.92	0.0	0.0	0.0	0.0	4.6080000000000005	4.65	4.65	4.605	9.919177478027343	0.09516951599121093	0.06105214233398437	0.431060791015625	-2.3040771484375	-1.461029052734375	9.911396322631836	-0.08499415893554688	0.061650692749023434	0.64849853515625	-4.974365234375	-2.8839111328125	10.059238275146484	-0.2980781066894531	-0.21787235107421873	3.448486328125	-4.711151123046875	-1.934051513671875	
231	0.924	0.0	0.0	0.0	0.0	4.611	4.65	4.65	4.605	9.661202249145507	0.15741875915527342	0.3238157745361328	2.475738525390625	-3.662109375	-1.220703125	9.675567459106444	0.47704468078613277	0.3746925598144531	0.74005126953125	-4.665374755859375	-3.406524658203125	10.022128149414062	0.3968389251708984	-0.10414777221679687	3.7078857421875	-4.589080810546875	-2.040863037109375	
232	0.928	0.0	0.0	0.0	0.0	4.602	4.647	4.647	4.614	9.865307940673828	0.16460136413574217	0.11911153259277343	0.81634521484375	-2.643585205078125	-1.56402587890625	9.920973129272461	-0.16460136413574217	0.031124621582031248	0.743865966796875	-4.833221435546875	-2.95257568359375	10.05504842224121	-0.4321533996582031	-0.22685060729980466	3.513336181640625	-4.901885986328125	-1.796722412109375	
233	0.932	0.0	0.0	0.0	0.0	4.614	4.647	4.65	4.59	9.941922393798828	0.10474632263183593	0.05805939025878906	1.556396484375	-2.7618408203125	-1.262664794921875	9.70369932861328	0.8319850769042968	0.26815058593749996	0.58746337890625	-4.2877197265625	-3.53240966796875	9.803657247924804	0.03651157531738281	-0.058657940673828124	3.681182861328125	-4.60052490234375	-2.60162353515625	
234	0.936	0.0	0.0	0.0	0.0	4.611	4.65	4.65	4.5840000000000005	9.82580361328125	0.017956512451171875	0.15562310791015624	-0.05340576171875	-2.15911865234375	-1.552581787109375	9.883264453125	0.05386953735351562	0.06045359191894531	0.9002685546875	-4.99725341796875	-3.021240234375	10.043675964355469	-0.2663549346923828	-0.24480711975097655	3.509521484375	-4.72259521484375	-1.796722412109375	
235	0.9400000000000001	0.0	0.0	0.0	0.0	4.614	4.65	4.647	4.587	9.94730934753418	0.2292448089599609	0.009576806640625	1.186370849609375	-2.90679931640625	-1.140594482421875	9.686341366577148	0.9331400970458984	0.23822306518554687	0.49591064453125	-4.69207763671875	-3.1280517578125	9.775525378417969	0.21188684692382811	-0.07062894897460938	3.574371337890625	-4.53948974609375	-2.37274169921875	
236	0.9440000000000001	0.0	0.0	0.0	0.0	4.6080000000000005	4.641	4.647	4.602	9.995193380737303	0.30466216125488277	-0.044292730712890624	4.459381103515625	-4.657745361328125	-0.141143798828125	9.732429748535155	0.3555389465332031	0.15981296081542967	0.026702880859375	-4.856109619140625	-2.87628173828125	9.833584768676758	0.09935936889648436	-0.12210428466796874	3.79180908203125	-4.3792724609375	-1.85394287109375	
237	0.9480000000000001	0.0	0.0	0.0	0.0	4.605	4.65	3.255	0.003	9.949703549194336	0.14125789794921875	0.0053869537353515625	2.117156982421875	-3.57818603515625	-1.239776611328125	9.696516723632811	0.9301473449707031	0.2537853759765625	0.732421875	-4.520416259765625	-3.566741943359375	9.801861596679688	0.2902969512939453	-0.04369418029785156	3.589630126953125	-4.364013671875	-2.536773681640625	
238	0.9520000000000001	0.0	0.0	0.0	0.0	0.006	0.006	0.003	0.006	9.986813674926758	0.258573779296875	-0.044891281127929686	4.60052490234375	-4.642486572265625	0.1068115234375	9.706093530273437	0.5213374114990235	0.18555062866210936	-0.3204345703125	-5.001068115234375	-2.773284912109375	9.801861596679688	0.29388825378417965	-0.10893617553710937	3.711700439453125	-4.749298095703125	-1.9683837890625	
239	0.9560000000000001	0.0	0.0	0.0	0.0	0.003	0.003	0.003	0.006	9.94671079711914	0.19991583862304688	-0.010773907470703125	2.09808349609375	-3.116607666015625	-1.041412353515625	9.70369932861328	0.28790274963378903	0.19931728820800781	0.02288818359375	-4.634857177734375	-3.475189208984375	9.773131176757811	0.18076222534179687	-0.037110125732421874	3.910064697265625	-4.486083984375	-2.8533935546875	
240	0.96	0.0	0.0	0.0	0.0	0.006	0.003	0.003	0.003	10.002375985717773	0.22744915771484372	-0.05386953735351562	4.596710205078125	-4.756927490234375	0.08392333984375	9.744400756835937	0.43514615173339843	0.1849520782470703	-0.202178955078125	-4.833221435546875	-3.10516357421875	9.852738381958007	0.08499415893554688	-0.08439560852050781	3.505706787109375	-4.425048828125	-1.983642578125	
241	0.964	0.0	0.0	0.0	0.0	0.006	0.003	0.003	0.006	9.94072529296875	0.06823474731445311	0.033518823242187495	5.413055419921875	-4.856109619140625	0.614166259765625	9.692326870727538	0.5063736511230469	0.20171148986816406	-0.213623046875	-4.444122314453125	-3.6468505859375	9.995193380737303	-0.03950432739257812	-0.3920505218505859	3.7994384765625	-4.64630126953125	-2.74658203125	
242	0.968	0.0	0.0	0.0	0.0	0.006	0.003	0.003	0.003	9.996989031982421	0.19572598571777342	-0.08379705810546874	4.6234130859375	-4.787445068359375	0.23651123046875	9.77432827758789	0.31543606872558594	0.14425065002441406	0.12969970703125	-4.924774169921875	-2.288818359375	9.77492682800293	0.14724340209960937	-0.04668693237304687	3.543853759765625	-4.283905029296875	-1.758575439453125	
243	0.972	0.0	0.0	0.0	0.0	0.006	0.003	0.003	0.006	9.941922393798828	0.17657237243652343	0.0383072265625	5.992889404296875	-5.146026611328125	0.55694580078125	9.712079034423828	0.35673604736328124	0.22266075439453123	0.0152587890625	-4.58526611328125	-3.452301025390625	9.9981861328125	-0.14724340209960937	-0.3345896820068359	3.963470458984375	-4.67681884765625	-2.38800048828125	
244	0.976	0.0	0.0	0.0	0.0	0.003	0.003	0.003	0.009000000000000001	10.008361489868163	0.19033903198242186	-0.08858546142578125	3.0975341796875	-3.696441650390625	-0.705718994140625	9.803058697509766	0.10594342346191406	0.143652099609375	-0.034332275390625	-5.176544189453125	-2.323150634765625	10.121487518310547	0.2214636535644531	-0.32022447204589843	3.765106201171875	-4.749298095703125	-1.880645751953125	
245	0.98	0.0	0.0	0.0	0.0	0.006	0.003	0.003	0.003	9.906607919311522	0.061650692749023434	0.017357962036132813	5.802154541015625	-4.9285888671875	0.35858154296875	9.920374578857421	-0.3381809844970703	-0.06105214233398437	0.3662109375	-4.955291748046875	-2.8533935546875	9.94730934753418	-0.18315642700195311	-0.3058592620849609	3.856658935546875	-4.619598388671875	-2.58636474609375	
246	0.984	0.0	0.0	0.0	0.0	0.003	0.003	0.003	0.003	9.782109432983399	-0.25318682556152344	0.25318682556152344	2.574920654296875	-3.84521484375	-0.782012939453125	9.756970315551758	0.32561142578124996	0.16340426330566404	-0.156402587890625	-4.886627197265625	-1.88446044921875	10.053252770996092	0.34715924072265625	-0.2567781280517578	3.7841796875	-4.7607421875	-1.949310302734375	
247	0.988	0.0	0.0	0.0	0.0	0.003	0.003	0.003	0.003	9.911994873046874	0.009576806640625	0.00239420166015625	5.687713623046875	-5.016326904296875	0.431060791015625	9.94072529296875	-0.06584054565429687	-0.0652419952392578	0.41961669921875	-5.084991455078125	-2.628326416015625	10.304643945312499	-0.21966800231933592	-0.565630142211914	3.650665283203125	-4.69970703125	-2.25830078125	
248	0.992	0.0	0.0	0.0	0.0	0.006	0.003	0.003	0.006	9.749787710571288	-0.16220716247558592	0.27952304382324217	3.0364990234375	-3.88336181640625	-0.5950927734375	9.750386260986328	0.4010287780761719	0.3274070770263672	0.640869140625	-4.993438720703125	-2.40325927734375	10.032303506469725	0.26216508178710934	-0.24899697265624998	3.6163330078125	-4.7149658203125	-1.728057861328125	
249	0.996	0.0	0.0	0.0	0.0	0.009000000000000001	0.003	0.003	0.006	9.82580361328125	-0.2328361114501953	-0.0652419952392578	-0.09918212890625	-2.330780029296875	-2.1514892578125	9.922768780517577	-0.10654197387695312	-0.023343466186523436	0.52642822265625	-4.703521728515625	-2.7923583984375	10.256759912109374	-0.39444472351074217	-0.5339069702148437	3.7078857421875	-4.634857177734375	-2.410888671875	
250	1.0	0.0	0.0	0.0	0.0	0.009000000000000001	0.003	0.003	0.003	9.719261639404296	-0.20051438903808594	0.34656069030761716	2.590179443359375	-3.48663330078125	-0.888824462890625	9.779116680908203	0.6452373474121094	0.3345896820068359	0.43487548828125	-4.779815673828125	-2.2430419921875	10.092757098388672	0.3489548919677734	-0.26695348510742184	3.566741943359375	-4.611968994140625	-2.231597900390625	
251	1.004	0.0	0.0	0.0	0.0	0.003	0.006	0.003	0.003	9.849745629882811	-0.20171148986816406	-0.07362170104980469	-0.415802001953125	-1.918792724609375	-2.231597900390625	9.903016616821288	0.12868833923339842	-0.02633621826171875	0.362396240234375	-4.817962646484375	-3.261566162109375	10.284293231201172	-0.34057518615722654	-0.5614402893066406	3.582000732421875	-4.695892333984375	-2.155303955078125	
252	1.008	0.0	0.0	0.0	0.0	0.003	0.003	0.003	0.006	9.674370358276366	-0.16340426330566404	0.3555389465332031	2.15911865234375	-3.2806396484375	-0.919342041015625	9.789292037963866	0.37708676147460934	0.32142157287597656	0.225067138671875	-4.734039306640625	-2.185821533203125	10.000580334472655	0.3298012786865234	-0.030526071166992186	3.66973876953125	-4.70733642578125	-2.31170654296875	
253	1.012	0.0	0.0	0.0	0.0	0.006	0.003	0.003	0.006	9.850344180297851	-0.19632453613281248	0.00718260498046875	-0.530242919921875	-2.03704833984375	-2.246856689453125	9.943119494628906	0.06763619689941405	0.017357962036132813	0.457763671875	-4.978179931640625	-3.131866455078125	10.250774407958984	-0.2819172454833984	-0.4836287353515625	3.696441650390625	-4.53948974609375	-2.162933349609375	
254	1.016	0.0	0.0	0.0	0.0	0.006	0.003	0.003	0.003	9.764152920532226	0.13766659545898435	0.20350714111328125	-0.26702880859375	-2.025604248046875	-2.101898193359375	9.822212310791015	0.2184709014892578	0.31543606872558594	0.392913818359375	-4.95147705078125	-2.506256103515625	10.04247886352539	0.2807201446533203	-0.017956512451171875	3.406524658203125	-4.566192626953125	-2.155303955078125	
255	1.02	0.0	0.0	0.0	0.0	0.006	0.003	0.003	0.006	9.85094273071289	-0.12988544006347655	0.02633621826171875	-1.12152099609375	-1.766204833984375	-2.349853515625	9.926360083007811	0.23104046020507812	0.027533319091796873	0.385284423828125	-4.69207763671875	-3.093719482421875	10.083778842163085	-0.059256491088867186	-0.33758243408203126	3.795623779296875	-4.978179931640625	-1.918792724609375	
256	1.024	0.0	0.0	0.0	0.0	0.003	0.003	0.006	0.003	9.770736975097655	0.2537853759765625	0.21607669982910155	0.0	-2.094268798828125	-2.02178955078125	9.712677584838866	0.34177228698730466	0.2561795776367187	0.70953369140625	-5.1422119140625	-3.13568115234375	9.99160207824707	0.20649989318847656	0.01915361328125	4.047393798828125	-4.49371337890625	-2.162933349609375	
257	1.028	0.0	0.0	0.0	0.0	-0.006	0.003	0.003	0.003	9.848548529052733	-0.07900865478515624	0.0939724151611328	3.2958984375	-3.936767578125	-0.553131103515625	9.94671079711914	0.2609679809570312	0.006584054565429687	0.701904296875	-4.840850830078125	-2.99835205078125	10.101136804199218	-0.04129997863769531	-0.3591302490234375	3.765106201171875	-4.8828125	-1.918792724609375	
258	1.032	0.0	0.0	0.0	0.0	-0.003	0.006	0.006	0.003	9.853935482788085	0.2747346405029297	0.1801636749267578	-0.06866455078125	-2.18963623046875	-2.155303955078125	9.756371765136718	0.3537432952880859	0.21068974609375	0.438690185546875	-4.871368408203125	-2.971649169921875	9.83837317199707	-0.007781155395507812	-0.0796072052001953	3.66973876953125	-4.39453125	-2.5177001953125	
259	1.036	0.0	0.0	0.0	0.0	0.006	0.003	0.003	0.006	10.060435375976562	0.3872621185302734	0.040701428222656245	3.536224365234375	-4.11224365234375	-0.339508056640625	9.69831237487793	0.14903905334472656	0.3298012786865234	0.118255615234375	-4.99725341796875	-2.99072265625	10.063428128051758	-0.003591302490234375	-0.33399113159179683	3.71551513671875	-4.82177734375	-1.99127197265625	
260	1.04	0.0	0.0	0.0	0.0	0.006	0.003	0.003	0.003	9.894038360595703	0.35194764404296874	0.09935936889648436	0.164031982421875	-2.20489501953125	-1.6326904296875	9.728838446044922	0.4381389038085937	0.201112939453125	0.331878662109375	-4.7149658203125	-3.04412841796875	9.776722479248047	0.009576806640625	-0.0526724365234375	3.95965576171875	-4.39453125	-2.593994140625	
261	1.044	0.0	0.0	0.0	0.0	0.003	0.003	0.003	0.006	10.06821653137207	0.430956298828125	0.00239420166015625	4.238128662109375	-4.4708251953125	-0.06866455078125	9.730035546875	0.10594342346191406	0.33758243408203126	-0.12969970703125	-4.93621826171875	-2.86102294921875	10.088567245483398	-0.011971008300781249	-0.35314474487304687	3.490447998046875	-4.52423095703125	-2.155303955078125	
262	1.048	0.0	0.0	0.0	0.0	0.009000000000000001	0.006	0.006	0.003	10.005368737792969	0.2932897033691406	0.17956512451171874	6.4544677734375	-5.7220458984375	0.789642333984375	9.715670336914062	0.21727380065917967	0.22206220397949217	0.308990478515625	-5.046844482421875	-3.055572509765625	9.823409411621093	0.03531447448730469	-0.047285482788085934	3.627777099609375	-4.5013427734375	-2.44903564453125	
263	1.052	0.0	0.0	0.0	0.0	0.006	0.003	0.003	0.006	10.033500607299803	0.47764323120117186	-0.008978256225585938	5.023956298828125	-4.69970703125	0.232696533203125	9.71686743774414	0.08858546142578125	0.33399113159179683	-0.179290771484375	-4.730224609375	-2.8533935546875	9.776722479248047	0.14544775085449219	-0.11252747802734374	3.795623779296875	-4.833221435546875	-2.368927001953125	
264	1.056	0.0	0.0	0.0	0.0	0.009000000000000001	0.003	0.006	0.003	9.980828170776366	0.21487959899902342	0.20171148986816406	6.847381591796875	-5.39398193359375	1.18255615234375	9.677363110351562	0.2902969512939453	0.23343466186523437	0.0762939453125	-4.5318603515625	-3.131866455078125	9.769539874267577	0.09576806640624999	-0.0143652099609375	3.932952880859375	-4.474639892578125	-2.31170654296875	
265	1.06	0.0	0.0	0.0	0.0	0.003	0.003	0.003	0.006	10.050858569335936	0.4740519287109375	-0.07242460021972656	5.462646484375	-5.031585693359375	0.514984130859375	9.801861596679688	0.1304839904785156	-0.030526071166992186	0.43487548828125	-4.901885986328125	-2.506256103515625	9.835380419921874	0.07601590270996093	-0.16160861206054686	3.543853759765625	-4.528045654296875	-2.101898193359375	
266	1.064	0.0	0.0	0.0	0.0	0.003	0.003	0.003	0.003	9.987412225341796	0.10414777221679687	0.17896657409667968	6.412506103515625	-5.519866943359375	1.24359130859375	9.71686743774414	0.29568390502929687	0.19153613281249998	-0.148773193359375	-4.72259521484375	-2.9754638671875	9.999981784057617	0.03591302490234375	-0.34117373657226563	3.704071044921875	-4.302978515625	-2.056121826171875	
267	1.068	0.0	0.0	0.0	0.0	0.003	0.006	0.006	0.003	9.776123928833007	-0.25139117431640623	-0.017357962036132813	4.199981689453125	-4.642486572265625	-0.40435791015625	9.753977563476562	0.15263035583496093	-0.03890577697753906	0.202178955078125	-5.0811767578125	-2.559661865234375	9.763554370117188	0.03950432739257812	-0.1879448303222656	3.60107421875	-4.741668701171875	-2.391815185546875	
268	1.072	0.0	0.0	0.0	0.0	0.006	0.003	0.003	0.003	9.962871658325195	0.0017956512451171875	0.14544775085449219	6.76727294921875	-5.7220458984375	1.094818115234375	9.872490545654296	0.239420166015625	-0.01975216369628906	0.614166259765625	-5.0811767578125	-2.597808837890625	10.034099157714843	0.05985504150390625	-0.38187516479492184	3.8604736328125	-4.779815673828125	-2.353668212890625	
269	1.076	0.0	0.0	0.0	0.0	0.006	0.003	0.003	0.003	9.790489138793944	-0.40761283264160153	0.013168109130859374	3.368377685546875	-4.016876220703125	-0.347137451171875	9.78689783630371	0.12449848632812499	-0.032920272827148434	0.308990478515625	-4.901885986328125	-2.574920654296875	10.084377392578125	-0.011372457885742187	-0.11133037719726561	3.917694091796875	-4.669189453125	-2.048492431640625	
270	1.08	0.0	0.0	0.0	0.0	0.006	0.006	0.006	0.003	9.90241806640625	0.03651157531738281	0.1304839904785156	-0.072479248046875	-2.010345458984375	-2.437591552734375	9.865307940673828	0.19033903198242186	-0.010175357055664061	0.743865966796875	-4.878997802734375	-2.704620361328125	9.9981861328125	0.09816226806640624	-0.3429693878173828	3.643035888671875	-4.482269287109375	-2.033233642578125	
271	1.084	0.0	0.0	0.0	0.0	0.0	0.003	0.003	0.0	9.733626849365233	-0.6111199737548828	-0.003591302490234375	2.227783203125	-3.92913818359375	-1.15203857421875	9.733028298950195	0.16639701538085935	-0.05686228942871093	0.339508056640625	-4.791259765625	-2.620697021484375	9.982025271606444	-0.010773907470703125	-0.04908113403320312	3.72314453125	-4.787445068359375	-2.11334228515625	
272	1.088	0.0	0.0	0.0	0.0	0.0	0.003	0.006	0.006	9.719261639404296	-0.24121581726074218	-0.08499415893554688	-1.28936767578125	-1.682281494140625	-2.742767333984375	9.904812268066406	0.1975216369628906	-0.005985504150390624	0.579833984375	-5.115509033203125	-2.826690673828125	10.065223779296874	0.061650692749023434	-0.3962403747558593	3.753662109375	-4.512786865234375	-2.254486083984375	
273	1.092	0.0	0.0	0.0	0.0	0.003	0.006	0.003	0.006	9.719261639404296	-0.5823895538330078	0.12030863342285156	1.51824951171875	-3.124237060546875	-1.4801025390625	9.803058697509766	0.2747346405029297	0.39324762268066404	0.457763671875	-5.0048828125	-2.9449462890625	10.084975942993163	-0.09337386474609374	-0.0796072052001953	3.566741943359375	-4.734039306640625	-2.00653076171875	
274	1.096	0.0	0.0	0.0	0.0	0.006	0.003	0.006	0.006	9.696516723632811	-0.2825157958984375	0.06643909606933593	-2.407073974609375	-0.8392333984375	-2.83050537109375	9.784503634643555	0.32620997619628905	0.08020575561523437	0.568389892578125	-4.848480224609375	-2.719879150390625	10.168773001098632	0.08020575561523437	-0.5159504577636719	3.612518310546875	-4.520416259765625	-2.4871826171875	
275	1.1	0.0	0.0	0.0	0.0	0.006	0.003	0.003	0.003	9.718064538574218	0.6649895111083984	0.6183025787353515	0.22125244140625	-2.1209716796875	-2.044677734375	9.80066449584961	0.23044190979003906	0.42018239135742186	0.22125244140625	-4.795074462890625	-2.857208251953125	10.078391888427733	-0.028730419921875	-0.10115502014160156	3.719329833984375	-4.802703857421875	-1.880645751953125	
276	1.104	0.0	0.0	0.0	0.0	0.003	0.003	0.003	0.006	9.733028298950195	-0.11252747802734374	0.14604630126953125	-1.537322998046875	-1.285552978515625	-3.021240234375	9.907206469726562	0.2424129180908203	0.18136077575683593	0.5340576171875	-4.82940673828125	-3.101348876953125	10.34893667602539	-0.07362170104980469	-0.5398924743652344	3.520965576171875	-4.497528076171875	-2.468109130859375	
277	1.108	0.0	0.0	0.0	0.0	0.003	0.006	0.003	0.006	9.763554370117188	0.6380547424316406	0.5943605621337891	0.965118408203125	-2.353668212890625	-1.293182373046875	9.727641345214844	0.3028665100097656	0.4878185882568359	0.308990478515625	-4.917144775390625	-2.895355224609375	10.056844073486328	0.18555062866210936	-0.2184709014892578	3.574371337890625	-4.791259765625	-1.941680908203125	
278	1.112	0.0	0.0	0.0	0.0	0.006	0.003	0.003	0.003	9.779715231323241	0.29089550170898437	0.23343466186523437	-2.09808349609375	-1.13677978515625	-2.44903564453125	9.83777462158203	0.3447650390625	0.17417817077636719	0.38909912109375	-4.67681884765625	-3.05938720703125	10.256759912109374	0.031124621582031248	-0.6009446166992187	3.543853759765625	-4.558563232421875	-2.166748046875	
279	1.116	0.0	0.0	0.0	0.0	0.006	0.003	0.003	0.006	9.861716638183593	0.8068459594726562	0.48123453369140623	3.4332275390625	-3.4637451171875	-0.774383544921875	9.843760125732421	0.26216508178710934	0.17477672119140625	-0.202178955078125	-4.85992431640625	-2.69317626953125	10.142436782836914	0.09337386474609374	-0.13108254089355467	3.757476806640625	-4.726409912109375	-1.8463134765625	
280	1.12	0.0	0.0	0.0	0.0	0.003	0.003	0.006	0.003	10.220846887207031	0.3327940307617187	-0.2597708801269531	5.2337646484375	-5.04302978515625	0.598907470703125	9.86411083984375	0.3495534423828125	0.19632453613281248	0.19073486328125	-4.75311279296875	-2.90679931640625	9.993996279907225	-0.19512743530273435	-0.49799394531249996	3.50189208984375	-4.901885986328125	-2.407073974609375	
281	1.124	0.0	0.0	0.0	0.0	0.003	0.003	0.003	0.006	9.923367330932617	1.0031704956054688	0.37768531188964843	4.375457763671875	-4.344940185546875	0.3662109375	9.71686743774414	0.33399113159179683	0.19632453613281248	-0.213623046875	-4.611968994140625	-2.880096435546875	9.95987890625	0.26695348510742184	-0.17417817077636719	3.444671630859375	-4.63104248046875	-2.101898193359375	
282	1.1280000000000001	0.0	0.0	0.0	0.0	0.003	0.003	0.006	0.003	10.128670123291014	0.5345055206298828	-0.25737667846679685	7.228851318359375	-6.35528564453125	0.858306884765625	9.81862100830078	0.17956512451171874	-0.03232172241210937	0.030517578125	-4.871368408203125	-2.35748291015625	9.993397729492187	-0.16340426330566404	-0.43155484924316406	3.353118896484375	-4.6234130859375	-1.911163330078125	
283	1.1320000000000001	0.0	0.0	0.0	0.0	0.0	0.003	0.003	0.003	9.93952819213867	0.6919242797851562	0.17776947326660156	4.43267822265625	-4.581451416015625	0.064849853515625	9.822212310791015	0.20709844360351562	0.05805939025878906	-0.385284423828125	-4.932403564453125	-2.811431884765625	10.032303506469725	0.12569558715820311	-0.07122749938964844	3.7841796875	-4.772186279296875	-2.368927001953125	
284	1.1360000000000001	0.0	0.0	0.0	0.0	0.006	0.003	0.003	0.006	9.955689053344726	-0.18914193115234373	-0.24061726684570311	4.726409912109375	-4.924774169921875	0.682830810546875	9.710881933593749	0.2597708801269531	-0.02454056701660156	-0.202178955078125	-4.825592041015625	-2.66265869140625	9.898826763916015	-0.11911153259277343	-0.4584896179199218	3.76129150390625	-5.04302978515625	-2.23541259765625	
285	1.1400000000000001	0.0	0.0	0.0	0.0	0.003	0.003	0.003	0.003	9.689932669067382	-0.06763619689941405	0.017956512451171875	3.070831298828125	-4.199981689453125	-0.423431396484375	9.680954412841796	0.23523031311035156	0.16220716247558592	0.606536865234375	-4.917144775390625	-2.63214111328125	9.773131176757811	0.2184709014892578	0.02154781494140625	3.681182861328125	-4.64630126953125	-2.349853515625	
286	1.1440000000000001	0.0	0.0	0.0	0.0	0.006	0.003	0.003	0.006	9.848548529052733	0.2292448089599609	-0.10175357055664062	5.859375	-5.428314208984375	0.22125244140625	9.89523546142578	0.14963760375976562	-0.16699556579589842	0.49591064453125	-5.27191162109375	-2.777099609375	10.097545501708984	-0.22086510314941404	-0.4327519500732422	3.749847412109375	-4.852294921875	-2.201080322265625	
287	1.1480000000000001	0.0	0.0	0.0	0.0	0.003	0.003	0.003	0.006	9.630676177978515	-0.9840168823242187	0.10773907470703124	-0.75531005859375	-2.216339111328125	-2.35748291015625	9.696516723632811	0.2346317626953125	0.19812018737792966	0.278472900390625	-4.329681396484375	-2.99072265625	9.829394915771484	0.17477672119140625	-0.031124621582031248	3.696441650390625	-4.581451416015625	-2.521514892578125	
288	1.1520000000000001	0.0	0.0	0.0	0.0	0.006	0.003	0.006	0.003	9.8449572265625	0.04608838195800781	0.14963760375976562	-2.47955322265625	-1.117706298828125	-1.811981201171875	9.600748657226562	0.17298106994628906	0.3315969299316406	0.324249267578125	-4.8370361328125	-3.2958984375	9.7162688873291	0.004189852905273437	0.06464344482421874	3.76129150390625	-4.7454833984375	-2.216339111328125	
289	1.156	0.0	0.0	0.0	0.0	0.003	0.006	0.003	0.006	9.824007962036132	0.11013327636718749	0.09038111267089843	-1.09100341796875	-1.483917236328125	-1.83868408203125	9.77492682800293	0.10354922180175781	0.21966800231933592	0.408172607421875	-4.695892333984375	-3.345489501953125	9.885060104370117	0.06344634399414062	0.06404489440917968	3.650665283203125	-4.52423095703125	-2.3345947265625	
290	1.16	0.0	0.0	0.0	0.0	0.003	0.003	0.003	0.003	10.057442623901366	0.34835634155273437	-0.05327098693847656	3.57818603515625	-3.963470458984375	-1.453399658203125	9.76774422302246	0.09217676391601562	0.18136077575683593	0.518798828125	-4.909515380859375	-3.040313720703125	9.884461553955077	-0.09576806640624999	-0.014963760375976562	3.490447998046875	-4.695892333984375	-2.269744873046875	
291	1.164	0.0	0.0	0.0	0.0	0.0	0.003	0.003	0.003	9.784503634643555	-0.05985504150390625	0.19033903198242186	1.94549560546875	-2.803802490234375	-1.68609619140625	9.658808047485351	0.2507926239013672	0.24001871643066405	0.225067138671875	-4.70733642578125	-2.872467041015625	9.865307940673828	0.06823474731445311	-0.16280571289062498	3.6773681640625	-4.016876220703125	-2.246856689453125	
292	1.168	0.0	0.0	0.0	0.0	0.003	0.003	0.006	0.006	10.063428128051758	-0.546476528930664	-0.11851298217773437	0.4119873046875	-2.74658203125	-0.896453857421875	9.70968483276367	0.13826514587402344	0.21966800231933592	0.23651123046875	-5.0506591796875	-2.98309326171875	9.80605144958496	-0.02154781494140625	0.059256491088867186	3.74603271484375	-4.718780517578125	-2.117156982421875	
293	1.172	0.0	0.0	0.0	0.0	0.003	0.006	0.003	0.003	10.053252770996092	0.5746083984375	-0.07900865478515624	5.51605224609375	-4.81414794921875	0.652313232421875	9.891045608520507	0.16280571289062498	0.1370680450439453	0.423431396484375	-4.50897216796875	-2.635955810546875	10.073603485107421	-0.11252747802734374	-0.17836802368164062	3.8604736328125	-4.375457763671875	-2.368927001953125	
294	1.176	0.0	0.0	0.0	0.0	0.003	0.003	0.006	0.006	10.12507882080078	0.6649895111083984	-0.2693476867675781	5.550384521484375	-5.374908447265625	0.148773193359375	9.644442837524414	0.20051438903808594	0.10594342346191406	0.34332275390625	-4.764556884765625	-2.605438232421875	10.019733947753906	0.15263035583496093	-0.10893617553710937	3.59344482421875	-4.528045654296875	-1.96075439453125	
295	1.18	0.0	0.0	0.0	0.0	0.006	0.006	0.003	0.003	9.657610946655273	0.05327098693847656	0.1897404815673828	5.94329833984375	-4.962921142578125	-0.43487548828125	9.756371765136718	0.32022447204589843	0.1879448303222656	0.60272216796875	-4.82177734375	-2.780914306640625	9.938331091308592	0.03531447448730469	-0.19812018737792966	3.879547119140625	-4.405975341796875	-2.254486083984375	
296	1.184	0.0	0.0	0.0	0.0	0.009000000000000001	0.003	0.003	0.006	9.877877499389648	-0.40402153015136716	-0.08858546142578125	-0.1220703125	-1.979827880859375	-1.255035400390625	9.886257205200195	0.1562216583251953	0.3429693878173828	0.072479248046875	-4.81414794921875	-2.593994140625	10.211868630981444	0.09217676391601562	-0.19033903198242186	3.787994384765625	-4.5928955078125	-1.918792724609375	
297	1.188	0.0	0.0	0.0	0.0	0.0	0.003	0.003	0.006	9.763554370117188	-0.5686228942871093	0.08678981018066406	-1.132965087890625	-1.285552978515625	-1.922607421875	9.83897172241211	0.2920926025390625	0.11432312927246092	0.080108642578125	-4.45556640625	-3.055572509765625	10.082581741333007	-0.08559270935058594	-0.26396073303222656	3.53240966796875	-4.367828369140625	-2.445220947265625	
298	1.192	0.0	0.0	0.0	0.0	0.006	0.003	0.003	0.006	9.773729727172851	0.7428010650634765	0.5386953735351562	2.056121826171875	-3.08990478515625	-0.64849853515625	9.743203656005859	0.23702596435546874	0.38247371520996093	0.1678466796875	-5.084991455078125	-2.780914306640625	9.935936889648437	0.22086510314941404	-0.07781155395507812	3.5552978515625	-4.8980712890625	-1.88446044921875	
299	1.196	0.0	0.0	0.0	0.0	0.006	0.003	0.003	0.003	9.943718045043944	0.13587094421386717	-0.09935936889648436	1.24359130859375	-3.10516357421875	-1.25885009765625	9.92217023010254	0.37229835815429685	-0.034715924072265626	0.8697509765625	-4.70733642578125	-2.521514892578125	10.153809240722655	-0.11731588134765625	-0.39803602600097654	3.742218017578125	-4.5166015625	-1.89971923828125	
300	1.2	0.0	0.0	0.0	0.0	0.006	0.006	0.006	0.006	9.807847100830077	0.3321954803466797	0.48123453369140623	5.16510009765625	-4.69970703125	-0.034332275390625	9.906009368896484	0.0143652099609375	0.2885013000488281	0.041961669921875	-5.046844482421875	-2.89154052734375	10.178349807739258	0.06703764648437499	-0.239420166015625	3.631591796875	-4.64630126953125	-2.170562744140625	
301	1.204	0.0	0.0	0.0	0.0	0.006	0.003	0.006	0.006	9.827000714111328	0.297479556274414	0.21009119567871093	0.8544921875	-2.6397705078125	-1.552581787109375	9.892242709350585	0.5410895751953124	-0.04369418029785156	1.041412353515625	-4.73785400390625	-2.681732177734375	10.159794744873047	-0.02633621826171875	-0.4267664459228515	3.5552978515625	-4.6234130859375	-2.12860107421875	
302	1.208	0.0	0.0	0.0	0.0	0.009000000000000001	0.003	0.003	0.003	9.527725506591796	0.584185205078125	0.7308300567626953	3.5247802734375	-4.077911376953125	-0.4730224609375	9.585186346435547	0.26216508178710934	0.526125814819336	-0.148773193359375	-4.57000732421875	-2.66265869140625	9.909600671386718	0.24899697265624998	-0.017357962036132813	3.48663330078125	-4.558563232421875	-2.239227294921875	
303	1.212	0.0	0.0	0.0	0.0	0.003	0.003	0.003	0.006	9.840767373657226	0.19812018737792966	0.2723404388427734	-0.40435791015625	-1.91497802734375	-2.407073974609375	10.027515103149414	0.4070142822265625	-0.14784195251464843	0.9307861328125	-4.52423095703125	-2.63214111328125	10.380061297607421	-0.1274912384033203	-0.536899722290039	3.513336181640625	-4.33349609375	-2.017974853515625	
304	1.216	0.0	0.0	0.0	0.0	0.009000000000000001	0.003	0.003	0.006	9.558251577758789	0.37289690856933594	0.6817489227294922	1.834869384765625	-2.95257568359375	-1.560211181640625	9.628281976318359	0.2328361114501953	0.4896142395019531	-0.324249267578125	-4.749298095703125	-3.0670166015625	10.020931048583984	0.12988544006347655	-0.20649989318847656	3.76129150390625	-4.604339599609375	-2.521514892578125	
