	time	dac1	dac2	dac3	dac4	adc1.3	adc2.3	adc3.3	adc4.3	imu1accx	imu1accy	imu1accz	imu1gyrox	imu1gyroy	imu1gyroz	imu2accx	imu2accy	imu2accz	imu2gyrox	imu2gyroy	imu2gyroz	imu3accx	imu3accy	imu3accz	imu3gyrox	imu3gyroy	imu3gyroz	log
0	0.0	0.0	0.0	0.0	0.0	4.605	4.632	4.647	4.596	9.884461553955077	0.06284779357910156	0.07302315063476562	2.58636474609375	-3.509521484375	-0.75531005859375	9.78629928588867	0.2328361114501953	0.17357962036132812	0.0	-5.06591796875	-3.017425537109375	10.004770187377929	0.028131869506835935	-0.2328361114501953	3.5858154296875	-4.543304443359375	-1.9989013671875	Estabilizou em 10s, 2135 rpm
1	0.004	0.0	0.0	0.0	0.0	4.602	4.647	4.644	4.599	9.88386300354004	0.05746083984375	0.07841010437011718	2.689361572265625	-3.753662109375	-0.751495361328125	9.787496386718749	0.23044190979003906	0.16998831787109375	0.2899169921875	-4.901885986328125	-2.841949462890625	10.014945544433592	0.028131869506835935	-0.23582886352539062	3.787994384765625	-4.63104248046875	-2.231597900390625	Started
2	0.008	0.0	0.0	0.0	0.0	4.596	4.644	4.644	4.605	9.888651406860351	0.0652419952392578	0.08020575561523437	2.6397705078125	-3.60870361328125	-0.701904296875	9.785102185058593	0.2280477081298828	0.15442600708007811	0.29754638671875	-4.70733642578125	-2.765655517578125	10.007164389038085	0.034715924072265626	-0.24361001892089842	3.597259521484375	-4.627227783203125	-2.201080322265625	IMU1|LSM6DS3|0x6A|I2C-1|±2g (±19,6m/s²)|±125º/s|400Hz
3	0.012	0.0	0.0	0.0	0.0	4.605	4.644	4.635	4.599	9.893439810180663	0.06763619689941405	0.08559270935058594	2.70843505859375	-3.57818603515625	-0.91552734375	9.787496386718749	0.22505495605468748	0.1640028137207031	0.40435791015625	-5.0048828125	-2.643585205078125	10.001777435302733	0.029927520751953124	-0.2501940734863281	3.551483154296875	-4.665374755859375	-2.040863037109375	IMU2|LSM6DS3|0x6B|I2C-1|±2g (±19,6m/s²)|±125º/s|400Hz
4	0.016	0.0	0.0	0.0	0.0	4.6080000000000005	4.644	4.65	4.5840000000000005	9.888052856445311	0.062249243164062495	0.07062894897460938	2.64739990234375	-3.570556640625	-0.873565673828125	9.787496386718749	0.229843359375	0.14784195251464843	0.408172607421875	-4.932403564453125	-2.796173095703125	10.002974536132811	0.025139117431640625	-0.24001871643066405	3.59344482421875	-4.711151123046875	-2.285003662109375	IMU3|LSM6DS3|0x6B|I2C-2|±2g (±19,6m/s²)|±125º/s|400Hz
5	0.02	0.0	0.0	0.0	0.0	4.611	4.644	4.647	4.581	9.893439810180663	0.06464344482421874	0.06284779357910156	2.742767333984375	-3.513336181640625	-0.78582763671875	9.785102185058593	0.23822306518554687	0.14305354919433594	0.034332275390625	-4.886627197265625	-2.635955810546875	10.00417163696289	0.031124621582031248	-0.23822306518554687	3.620147705078125	-4.474639892578125	-2.101898193359375	ADC|ADS1015|0|0|1|0|±6,144 V|2400 SPS
6	0.024	0.0	0.0	0.0	0.0	4.6080000000000005	4.638	4.644	4.59	9.879074600219726	0.06823474731445311	0.07601590270996093	2.735137939453125	-3.772735595703125	-0.72479248046875	9.787496386718749	0.229843359375	0.15382745666503905	0.31280517578125	-4.93621826171875	-2.7313232421875	10.007164389038085	0.032920272827148434	-0.2454056701660156	3.82232666015625	-4.734039306640625	-2.28118896484375	Gen1|Disabled
7	0.028	0.0	0.0	0.0	0.0	4.599	4.647	4.647	4.596	9.880271701049804	0.06344634399414062	0.06643909606933593	2.60162353515625	-3.54766845703125	-0.81634521484375	9.785102185058593	0.22685060729980466	0.16460136413574217	-0.00762939453125	-4.99725341796875	-2.811431884765625	10.005368737792969	0.023942016601562498	-0.23702596435546874	3.902435302734375	-4.8675537109375	-2.23541259765625	Gen2|Enabled|Noise|0.0|10.0|1668
8	0.032	0.0	0.0	0.0	0.0	4.605	4.647	4.644	4.605	9.885658654785155	0.06763619689941405	0.06584054565429687	2.429962158203125	-3.662109375	-0.640869140625	9.788693487548828	0.2424129180908203	0.15322890625	0.3509521484375	-4.817962646484375	-2.696990966796875	10.004770187377929	0.022744915771484374	-0.24061726684570311	3.765106201171875	-4.451751708984375	-1.9683837890625	Gen3|Enabled|Noise|0.0|10.0|128
9	0.036000000000000004	0.0	0.0	0.0	0.0	4.593	4.644	4.641	4.605	9.889848507690429	0.06584054565429687	0.06763619689941405	2.582550048828125	-3.505706787109375	-0.70953369140625	9.785102185058593	0.23702596435546874	0.1580173095703125	0.335693359375	-4.749298095703125	-2.902984619140625	10.005368737792969	0.030526071166992186	-0.2549824768066406	3.612518310546875	-4.486083984375	-2.197265625	Gen4|Enabled|Noise|0.0|10.0|128
10	0.04	0.0	0.0	0.0	0.0	4.605	4.644	4.647	4.593	9.897629663085937	0.07422025146484375	0.06763619689941405	2.643585205078125	-3.60107421875	-0.60272216796875	9.78629928588867	0.24061726684570311	0.15382745666503905	0.377655029296875	-5.02777099609375	-2.84576416015625	10.005368737792969	0.023942016601562498	-0.25258827514648435	3.448486328125	-4.703521728515625	-2.140045166015625	Ctrl|Disabled
11	0.044	0.0	0.0	0.0	0.0	4.605	4.644	4.647	4.5840000000000005	9.880870251464843	0.061650692749023434	0.06344634399414062	2.368927001953125	-3.37982177734375	-0.80108642578125	9.776722479248047	0.24181436767578124	0.15263035583496093	0.20599365234375	-4.924774169921875	-2.529144287109375	10.008361489868163	0.028730419921875	-0.25438392639160157	3.864288330078125	-4.4708251953125	-2.162933349609375	
12	0.048	0.0	0.0	0.0	0.0	4.6080000000000005	4.641	4.644	4.578	9.883264453125	0.06284779357910156	0.06763619689941405	2.750396728515625	-3.570556640625	-0.713348388671875	9.788693487548828	0.2376245147705078	0.15023615417480468	0.213623046875	-4.69970703125	-2.651214599609375	10.01733974609375	0.037708676147460936	-0.2507926239013672	3.60870361328125	-4.840850830078125	-2.132415771484375	
13	0.052000000000000005	0.0	0.0	0.0	0.0	4.6080000000000005	4.638	4.644	4.593	9.885658654785155	0.06464344482421874	0.06344634399414062	2.567291259765625	-3.6163330078125	-0.67138671875	9.788693487548828	0.23523031311035156	0.14784195251464843	0.19073486328125	-4.76837158203125	-2.658843994140625	9.999383233642577	0.03232172241210937	-0.2537853759765625	3.795623779296875	-4.474639892578125	-2.178192138671875	
14	0.056	0.0	0.0	0.0	0.0	4.602	4.647	4.647	4.599	9.880870251464843	0.07302315063476562	0.06404489440917968	2.593994140625	-3.650665283203125	-0.682830810546875	9.790489138793944	0.23104046020507812	0.14006079711914063	0.29754638671875	-4.650115966796875	-2.532958984375	10.004770187377929	0.029328970336914062	-0.2519897247314453	3.68499755859375	-4.543304443359375	-2.246856689453125	
15	0.06	0.0	0.0	0.0	0.0	4.605	4.647	4.647	4.599	9.88386300354004	0.06584054565429687	0.07362170104980469	2.44140625	-3.6163330078125	-0.713348388671875	9.785102185058593	0.23223756103515625	0.14305354919433594	0.308990478515625	-4.913330078125	-2.89154052734375	9.998784683227539	0.027533319091796873	-0.25139117431640623	3.56292724609375	-4.63104248046875	-2.201080322265625	
16	0.064	0.0	0.0	0.0	0.0	4.593	4.644	4.641	4.6080000000000005	9.888052856445311	0.06703764648437499	0.07721300354003906	2.72369384765625	-3.53240966796875	-0.72479248046875	9.78629928588867	0.23822306518554687	0.12868833923339842	0.1983642578125	-4.955291748046875	-2.796173095703125	10.008361489868163	0.031124621582031248	-0.2442085693359375	3.620147705078125	-4.57000732421875	-2.269744873046875	
17	0.068	0.0	0.0	0.0	0.0	4.6080000000000005	4.644	4.65	4.59	9.883264453125	0.06643909606933593	0.06943184814453125	2.521514892578125	-3.6163330078125	-0.736236572265625	9.791087689208984	0.2424129180908203	0.15682020874023436	0.06866455078125	-4.878997802734375	-2.76947021484375	10.004770187377929	0.03172317199707031	-0.2597708801269531	3.73077392578125	-4.779815673828125	-2.239227294921875	
18	0.07200000000000001	0.0	0.0	0.0	0.0	4.6080000000000005	4.644	4.647	4.581	9.885658654785155	0.07302315063476562	0.06464344482421874	2.742767333984375	-3.71551513671875	-0.8697509765625	9.78629928588867	0.23642741394042968	0.1466448516845703	0.579833984375	-5.08880615234375	-2.979278564453125	10.002375985717773	0.03651157531738281	-0.25139117431640623	3.780364990234375	-4.8065185546875	-2.13623046875	
19	0.076	0.0	0.0	0.0	0.0	4.6080000000000005	4.644	4.647	4.581	9.887454306030273	0.06105214233398437	0.06643909606933593	2.513885498046875	-3.742218017578125	-0.6866455078125	9.78629928588867	0.23523031311035156	0.1514332550048828	0.171661376953125	-4.8065185546875	-2.8533935546875	10.005368737792969	0.033518823242187495	-0.25139117431640623	3.505706787109375	-4.60052490234375	-2.040863037109375	
20	0.08	0.0	0.0	0.0	0.0	4.6080000000000005	4.638	4.647	4.599	9.885658654785155	0.06344634399414062	0.076614453125	2.74658203125	-3.265380859375	-0.84686279296875	9.788094937133788	0.2424129180908203	0.14604630126953125	0.164031982421875	-5.001068115234375	-3.01361083984375	10.002974536132811	0.03411737365722656	-0.23223756103515625	3.726959228515625	-4.57000732421875	-2.31170654296875	
21	0.084	0.0	0.0	0.0	0.0	4.605	4.647	4.644	4.605	9.874286196899414	0.06643909606933593	0.07122749938964844	2.5634765625	-3.5400390625	-0.728607177734375	9.78629928588867	0.2280477081298828	0.16639701538085935	0.29754638671875	-4.78363037109375	-2.758026123046875	10.013748443603514	0.03411737365722656	-0.2346317626953125	3.7689208984375	-4.772186279296875	-2.1209716796875	
22	0.088	0.0	0.0	0.0	0.0	4.605	4.647	4.644	4.599	9.87668039855957	0.07062894897460938	0.06584054565429687	2.574920654296875	-3.8299560546875	-0.78582763671875	9.787496386718749	0.2292448089599609	0.16280571289062498	0.301361083984375	-4.852294921875	-2.79998779296875	10.01015714111328	0.029328970336914062	-0.24181436767578124	3.993988037109375	-4.741668701171875	-2.3345947265625	
23	0.092	0.0	0.0	0.0	0.0	4.596	4.644	4.638	4.605	9.890447058105469	0.06943184814453125	0.0796072052001953	2.62451171875	-3.543853759765625	-0.8544921875	9.789292037963866	0.2316390106201172	0.1610100616455078	0.408172607421875	-4.99725341796875	-2.899169921875	10.013748443603514	0.037708676147460936	-0.23343466186523437	3.79180908203125	-4.734039306640625	-2.017974853515625	
24	0.096	0.0	0.0	0.0	0.0	4.605	4.644	4.647	4.587	9.88386300354004	0.06763619689941405	0.09756371765136718	2.544403076171875	-3.60870361328125	-0.8087158203125	9.794678991699218	0.24001871643066405	0.16340426330566404	0.461578369140625	-4.741668701171875	-2.79998779296875	9.996390481567381	0.029927520751953124	-0.23523031311035156	3.765106201171875	-4.638671875	-2.05230712890625	
25	0.1	0.0	0.0	0.0	0.0	4.605	4.644	4.647	4.575	9.880271701049804	0.059256491088867186	0.09277531433105468	2.788543701171875	-3.79180908203125	-0.74005126953125	9.791686239624022	0.23343466186523437	0.17178396911621094	0.400543212890625	-5.153656005859375	-2.758026123046875	10.001178884887695	0.016759411621093748	-0.22026655273437498	3.673553466796875	-4.673004150390625	-2.0904541015625	
26	0.10400000000000001	0.0	0.0	0.0	0.0	4.605	4.641	4.644	4.5840000000000005	9.891045608520507	0.05746083984375	0.09457096557617187	2.651214599609375	-3.72314453125	-0.667572021484375	9.788094937133788	0.24121581726074218	0.1771709228515625	0.19073486328125	-4.79888916015625	-2.84576416015625	10.014945544433592	0.02154781494140625	-0.22505495605468748	3.7841796875	-4.695892333984375	-2.185821533203125	
27	0.108	0.0	0.0	0.0	0.0	4.6080000000000005	4.635	4.644	4.596	9.888052856445311	0.05985504150390625	0.08798691101074219	2.69317626953125	-3.559112548828125	-0.63323974609375	9.785102185058593	0.2316390106201172	0.17178396911621094	0.335693359375	-4.7454833984375	-2.685546875	10.01015714111328	0.023343466186523436	-0.2166752502441406	3.70025634765625	-4.558563232421875	-2.227783203125	
28	0.112	0.0	0.0	0.0	0.0	4.605	4.647	4.644	4.599	9.879673150634765	0.047884033203124995	0.08738836059570312	2.521514892578125	-3.56292724609375	-0.96893310546875	9.785102185058593	0.22026655273437498	0.17238251953125	0.48065185546875	-4.66156005859375	-2.689361572265625	10.00417163696289	0.022146365356445312	-0.2166752502441406	3.66973876953125	-4.886627197265625	-2.506256103515625	
29	0.116	0.0	0.0	0.0	0.0	4.599	4.644	4.641	4.602	9.881468801879882	0.05386953735351562	0.08678981018066406	2.55584716796875	-3.444671630859375	-0.782012939453125	9.788693487548828	0.22385785522460935	0.16998831787109375	0.38909912109375	-4.703521728515625	-3.0364990234375	10.01075569152832	0.02633621826171875	-0.22206220397949217	3.810882568359375	-4.5166015625	-2.178192138671875	
30	0.12	0.0	0.0	0.0	0.0	4.596	4.644	4.638	4.6080000000000005	9.873687646484374	0.05746083984375	0.09277531433105468	2.704620361328125	-3.620147705078125	-0.61798095703125	9.788693487548828	0.22505495605468748	0.18435352783203124	0.514984130859375	-4.909515380859375	-2.7008056640625	10.011354241943359	0.022146365356445312	-0.2088940948486328	3.5400390625	-4.741668701171875	-2.048492431640625	
31	0.124	0.0	0.0	0.0	0.0	4.6080000000000005	4.644	4.65	4.587	9.87727894897461	0.058657940673828124	0.09457096557617187	2.64739990234375	-3.59344482421875	-0.797271728515625	9.782707983398437	0.2292448089599609	0.17776947326660156	0.457763671875	-4.87518310546875	-2.758026123046875	10.007762939453125	0.017956512451171875	-0.21188684692382811	3.91387939453125	-4.8065185546875	-2.349853515625	
32	0.128	0.0	0.0	0.0	0.0	4.6080000000000005	4.647	4.647	4.578	9.888052856445311	0.06404489440917968	0.08439560852050781	2.689361572265625	-3.45611572265625	-0.873565673828125	9.78629928588867	0.23343466186523437	0.1640028137207031	0.396728515625	-4.772186279296875	-2.63214111328125	10.008361489868163	0.03651157531738281	-0.22565350646972654	3.60870361328125	-4.730224609375	-2.2735595703125	
33	0.132	0.0	0.0	0.0	0.0	4.599	4.641	4.644	4.5840000000000005	9.886257205200195	0.07242460021972656	0.0796072052001953	2.597808837890625	-3.688812255859375	-0.659942626953125	9.781510882568359	0.24779987182617186	0.17597382202148437	0.270843505859375	-4.57763671875	-2.735137939453125	10.01075569152832	0.0383072265625	-0.21966800231933592	3.83758544921875	-4.718780517578125	-2.22015380859375	
34	0.136	0.0	0.0	0.0	0.0	4.602	4.632	4.647	4.596	9.880870251464843	0.08499415893554688	0.059256491088867186	2.414703369140625	-3.51715087890625	-0.8544921875	9.78031378173828	0.2567781280517578	0.16160861206054686	0.17547607421875	-4.7760009765625	-2.849578857421875	9.994594830322265	0.04668693237304687	-0.22864625854492185	3.719329833984375	-4.772186279296875	-2.14385986328125	
35	0.14	0.0	0.0	0.0	0.0	4.605	4.647	4.644	4.599	9.909600671386718	0.06464344482421874	0.08020575561523437	2.5787353515625	-3.47900390625	-0.759124755859375	9.811438403320311	0.24899697265624998	0.15083470458984374	0.3814697265625	-4.8065185546875	-2.880096435546875	10.01733974609375	0.04967968444824218	-0.2615665313720703	3.54766845703125	-4.764556884765625	-2.246856689453125	
36	0.14400000000000002	0.0	0.0	0.0	0.0	4.596	4.644	4.644	4.602	9.91498762512207	0.03950432739257812	0.11252747802734374	2.49481201171875	-3.650665283203125	-0.530242919921875	9.814431155395507	0.23104046020507812	0.20829554443359374	0.48065185546875	-4.82177734375	-2.777099609375	10.035894808959961	0.002992752075195312	-0.19812018737792966	3.780364990234375	-4.61578369140625	-2.300262451171875	
37	0.148	0.0	0.0	0.0	0.0	4.602	4.644	4.638	4.605	9.890447058105469	0.018555062866210937	0.08259995727539061	2.5634765625	-3.505706787109375	-0.766754150390625	9.804854348754882	0.21607669982910155	0.1592144104003906	0.16021728515625	-4.852294921875	-2.78472900390625	10.027515103149414	-0.011971008300781249	-0.23822306518554687	3.85284423828125	-4.680633544921875	-2.391815185546875	
38	0.152	0.0	0.0	0.0	0.0	4.605	4.644	4.65	4.581	9.90122096557617	0.05985504150390625	0.0430956298828125	2.5634765625	-3.742218017578125	-0.7171630859375	9.785102185058593	0.2549824768066406	0.1466448516845703	0.415802001953125	-4.840850830078125	-2.8076171875	9.993996279907225	0.022146365356445312	-0.24121581726074218	3.704071044921875	-4.535675048828125	-2.23541259765625	
39	0.156	0.0	0.0	0.0	0.0	4.605	4.644	4.647	4.575	9.843760125732421	-0.004189852905273437	0.1322796417236328	2.51007080078125	-3.459930419921875	-0.553131103515625	9.758167416381836	0.21966800231933592	0.22864625854492185	0.3509521484375	-5.16510009765625	-2.750396728515625	9.988609326171874	0.002992752075195312	-0.19931728820800781	3.719329833984375	-4.787445068359375	-2.08282470703125	
40	0.16	0.0	0.0	0.0	0.0	4.605	4.641	4.647	4.593	9.834781869506836	-0.023942016601562498	0.09457096557617187	2.559661865234375	-3.597259521484375	-0.79345703125	9.765948571777344	0.1406593475341797	0.1867477294921875	0.35858154296875	-4.901885986328125	-3.021240234375	9.989806427001952	-0.08020575561523437	-0.21428104858398436	3.692626953125	-4.61578369140625	-2.170562744140625	
41	0.164	0.0	0.0	0.0	0.0	4.605	4.647	4.647	4.596	9.906009368896484	0.05985504150390625	0.03890577697753906	2.61688232421875	-3.551483154296875	-0.904083251953125	9.80066449584961	0.26695348510742184	0.14425065002441406	0.339508056640625	-4.848480224609375	-2.933502197265625	10.002375985717773	0.010175357055664061	-0.27293898925781246	3.376007080078125	-4.2266845703125	-2.13623046875	
42	0.168	0.0	0.0	0.0	0.0	4.605	4.647	4.647	4.599	9.892242709350585	0.11192892761230468	0.09038111267089843	2.750396728515625	-3.662109375	-0.7476806640625	9.797671743774414	0.2813186950683594	0.19991583862304688	0.179290771484375	-4.802703857421875	-2.685546875	10.032902056884765	0.08678981018066406	-0.23104046020507812	3.60107421875	-4.627227783203125	-2.079010009765625	
43	0.17200000000000001	0.0	0.0	0.0	0.0	4.596	4.644	4.641	4.605	9.884461553955077	0.011372457885742187	0.08918401184082031	2.681732177734375	-3.72314453125	-0.690460205078125	9.791087689208984	0.14006079711914063	0.16160861206054686	0.2288818359375	-5.001068115234375	-2.712249755859375	10.008960040283203	-0.09277531433105468	-0.23223756103515625	3.490447998046875	-4.512786865234375	-2.1514892578125	
44	0.176	0.0	0.0	0.0	0.0	4.605	4.644	4.635	4.596	9.907206469726562	0.1149216796875	0.005985504150390624	3.078460693359375	-3.635406494140625	-0.87738037109375	9.803657247924804	0.3010708587646484	0.10714052429199218	0.156402587890625	-5.06591796875	-2.8533935546875	10.001777435302733	0.03591302490234375	-0.31064766540527344	3.71551513671875	-4.6234130859375	-2.44140625	
45	0.18	0.0	0.0	0.0	0.0	4.605	4.644	4.647	4.578	9.868899243164062	0.11192892761230468	0.05327098693847656	2.864837646484375	-3.520965576171875	-0.732421875	9.782109432983399	0.3447650390625	0.15322890625	0.18310546875	-4.76837158203125	-2.712249755859375	10.002974536132811	0.15502455749511718	-0.28012159423828126	3.833770751953125	-4.5166015625	-2.208709716796875	
46	0.184	0.0	0.0	0.0	0.0	4.6080000000000005	4.641	4.644	4.578	9.883264453125	0.018555062866210937	0.05686228942871093	2.74658203125	-3.89862060546875	-0.7781982421875	9.783306533813477	0.17657237243652343	0.14425065002441406	0.3509521484375	-4.970550537109375	-2.8228759765625	9.986215124511718	-0.05566518859863281	-0.25438392639160157	3.696441650390625	-4.703521728515625	-2.23541259765625	
47	0.188	0.0	0.0	0.0	0.0	4.602	4.641	4.644	4.599	9.924564431762695	0.09516951599121093	-0.012569558715820313	2.803802490234375	-3.498077392578125	-0.9002685546875	9.83777462158203	0.32561142578124996	0.09277531433105468	0.35858154296875	-4.970550537109375	-2.81524658203125	10.038887561035155	0.05566518859863281	-0.3094505645751953	3.51715087890625	-4.467010498046875	-2.132415771484375	
48	0.192	0.0	0.0	0.0	0.0	4.605	4.647	4.644	4.599	9.892841259765625	0.1610100616455078	0.0047884033203125	2.6092529296875	-3.604888916015625	-0.659942626953125	9.804255798339844	0.3687070556640625	0.11671733093261719	0.179290771484375	-4.817962646484375	-2.735137939453125	10.043675964355469	0.17776947326660156	-0.29448680419921874	3.643035888671875	-4.619598388671875	-1.97601318359375	
49	0.196	0.0	0.0	0.0	0.0	4.605	4.647	4.647	4.599	9.833584768676758	0.034715924072265626	0.06284779357910156	2.6702880859375	-3.21197509765625	-0.732421875	9.746794958496093	0.1849520782470703	0.15263035583496093	0.438690185546875	-4.779815673828125	-2.92205810546875	9.96586441040039	-0.03950432739257812	-0.24779987182617186	3.734588623046875	-4.573822021484375	-2.162933349609375	
50	0.2	0.0	0.0	0.0	0.0	4.596	4.644	4.641	4.605	9.86291373901367	0.10235212097167969	0.017956512451171875	2.712249755859375	-3.5400390625	-0.812530517578125	9.783905084228515	0.316034619140625	0.09576806640624999	0.370025634765625	-4.665374755859375	-2.948760986328125	9.988010775756836	0.05087678527832031	-0.29089550170898437	3.814697265625	-4.78363037109375	-2.315521240234375	
51	0.20400000000000001	0.0	0.0	0.0	0.0	4.605	4.644	4.647	4.593	9.880870251464843	0.11731588134765625	0.018555062866210937	2.5787353515625	-3.4332275390625	-0.637054443359375	9.795876092529296	0.3591302490234375	0.10773907470703124	0.3662109375	-5.1116943359375	-2.78472900390625	10.01733974609375	0.11911153259277343	-0.277727392578125	3.704071044921875	-4.608154296875	-2.05230712890625	
52	0.20800000000000002	0.0	0.0	0.0	0.0	4.602	4.644	4.65	4.578	9.880870251464843	0.04249707946777344	0.047285482788085934	2.475738525390625	-3.7078857421875	-0.736236572265625	9.783905084228515	0.19812018737792966	0.13587094421386717	0.339508056640625	-4.70733642578125	-2.69317626953125	9.991003527832031	-0.030526071166992186	-0.26216508178710934	3.704071044921875	-4.38690185546875	-2.185821533203125	
53	0.212	0.0	0.0	0.0	0.0	4.605	4.644	4.647	4.578	9.913191973876952	0.14305354919433594	0.032920272827148434	2.63214111328125	-3.635406494140625	-0.823974609375	9.80006594543457	0.34237083740234375	0.1197100830078125	0.270843505859375	-5.054473876953125	-3.032684326171875	10.013149893188476	0.08678981018066406	-0.2705447875976562	3.818511962890625	-4.688262939453125	-2.216339111328125	
54	0.216	0.0	0.0	0.0	0.0	4.6080000000000005	4.638	4.644	4.596	9.898228213500976	0.1352723937988281	0.020350714111328123	2.76947021484375	-3.509521484375	-0.732421875	9.805452899169921	0.34057518615722654	0.11013327636718749	0.171661376953125	-4.863739013671875	-2.89154052734375	10.022128149414062	0.12150573425292968	-0.29089550170898437	3.742218017578125	-4.64630126953125	-1.922607421875	
55	0.22	0.0	0.0	0.0	0.0	4.605	4.647	4.647	4.602	9.871293444824218	0.08858546142578125	0.07302315063476562	2.742767333984375	-3.44085693359375	-0.640869140625	9.763554370117188	0.22685060729980466	0.16460136413574217	0.32806396484375	-4.82177734375	-2.704620361328125	9.964667309570311	-0.0017956512451171875	-0.27293898925781246	3.894805908203125	-4.5318603515625	-2.101898193359375	
56	0.224	0.0	0.0	0.0	0.0	4.605	4.647	4.641	4.599	9.884461553955077	0.17238251953125	0.076614453125	2.6702880859375	-3.692626953125	-0.87738037109375	9.785102185058593	0.3585316986083984	0.1592144104003906	0.34332275390625	-4.650115966796875	-3.055572509765625	9.983222372436522	0.1083376251220703	-0.25258827514648435	3.6468505859375	-4.34112548828125	-2.300262451171875	
57	0.228	0.0	0.0	0.0	0.0	4.59	4.644	4.641	4.6080000000000005	9.92217023010254	0.14245499877929688	0.06643909606933593	2.735137939453125	-3.543853759765625	-0.675201416015625	9.81862100830078	0.3321954803466797	0.13467384338378904	0.244140625	-4.909515380859375	-2.838134765625	10.029310754394531	0.11611878051757812	-0.28012159423828126	3.6773681640625	-4.726409912109375	-2.1514892578125	
58	0.232	0.0	0.0	0.0	0.0	4.6080000000000005	4.644	4.65	4.596	9.91438907470703	0.06344634399414062	0.0987608184814453	2.31170654296875	-3.437042236328125	-0.762939453125	9.80665	0.20470424194335937	0.17896657409667968	0.202178955078125	-4.756927490234375	-2.83050537109375	10.024522351074218	-0.007781155395507812	-0.24001871643066405	3.509521484375	-4.49371337890625	-2.117156982421875	
59	0.23600000000000002	0.0	0.0	0.0	0.0	4.6080000000000005	4.644	4.647	4.581	9.881468801879882	0.11851298217773437	0.15083470458984374	2.471923828125	-3.63922119140625	-0.690460205078125	9.783306533813477	0.2932897033691406	0.21966800231933592	0.32806396484375	-5.0201416015625	-2.89154052734375	10.00417163696289	0.07062894897460938	-0.18555062866210936	3.692626953125	-4.6539306640625	-2.300262451171875	
60	0.24	0.0	0.0	0.0	0.0	4.6080000000000005	4.641	4.647	4.5840000000000005	9.87727894897461	0.07481880187988281	0.11671733093261719	2.582550048828125	-3.4637451171875	-0.652313232421875	9.784503634643555	0.2501940734863281	0.20649989318847656	0.263214111328125	-4.924774169921875	-2.986907958984375	10.00417163696289	0.034715924072265626	-0.19033903198242186	3.719329833984375	-4.70733642578125	-2.01416015625	
61	0.244	0.0	0.0	0.0	0.0	4.6080000000000005	4.635	4.644	4.596	9.871293444824218	0.0047884033203125	0.1227028350830078	2.54058837890625	-3.643035888671875	-0.888824462890625	9.771335525512695	0.15203180541992187	0.24001871643066405	-0.11444091796875	-4.825592041015625	-2.933502197265625	9.984419473266602	-0.058657940673828124	-0.16699556579589842	3.5247802734375	-4.45556640625	-2.277374267578125	
62	0.248	0.0	0.0	0.0	0.0	4.602	4.647	4.647	4.602	9.865307940673828	0.028131869506835935	0.17657237243652343	2.674102783203125	-3.71551513671875	-0.81634521484375	9.77492682800293	0.2154781494140625	0.2711433380126953	0.278472900390625	-4.703521728515625	-2.777099609375	10.004770187377929	0.006584054565429687	-0.11432312927246092	3.658294677734375	-4.711151123046875	-2.2125244140625	
63	0.252	0.0	0.0	0.0	0.0	4.602	4.647	4.647	4.602	9.896432562255859	0.010773907470703125	0.1514332550048828	2.468109130859375	-3.635406494140625	-0.9002685546875	9.797073193359374	0.19572598571777342	0.24121581726074218	0.331878662109375	-4.573822021484375	-2.651214599609375	10.008361489868163	-0.01915361328125	-0.1388636962890625	3.688812255859375	-4.82940673828125	-2.124786376953125	
64	0.256	0.0	0.0	0.0	0.0	4.593	4.644	4.638	4.611	9.896432562255859	-0.017956512451171875	0.1562216583251953	2.64739990234375	-3.31878662109375	-0.583648681640625	9.80066449584961	0.1514332550048828	0.2555810272216797	0.38909912109375	-4.924774169921875	-2.89154052734375	10.014945544433592	-0.051475335693359374	-0.13407529296874998	3.62396240234375	-4.669189453125	-2.25830078125	
65	0.26	0.0	0.0	0.0	0.0	4.611	4.647	4.65	4.59	9.864709390258788	-0.011971008300781249	0.18076222534179687	2.58636474609375	-3.810882568359375	-0.759124755859375	9.776123928833007	0.17357962036132812	0.2753331909179687	0.087738037109375	-4.66156005859375	-2.918243408203125	10.007164389038085	-0.028730419921875	-0.10953472595214843	3.70025634765625	-4.726409912109375	-2.20489501953125	
66	0.264	0.0	0.0	0.0	0.0	4.602	4.644	4.644	4.578	9.867702142333984	-0.015562310791015624	0.1640028137207031	2.67791748046875	-3.73077392578125	-0.782012939453125	9.770736975097655	0.14125789794921875	0.24839842224121092	0.392913818359375	-4.81414794921875	-2.696990966796875	9.987412225341796	-0.05566518859863281	-0.13168109130859373	3.72314453125	-4.7149658203125	-2.17437744140625	
67	0.268	0.0	0.0	0.0	0.0	4.611	4.641	4.647	4.5840000000000005	9.888052856445311	-0.002992752075195312	0.1352723937988281	2.651214599609375	-3.65447998046875	-0.9765625	9.804255798339844	0.1693897674560547	0.22505495605468748	0.0762939453125	-4.863739013671875	-2.849578857421875	10.019733947753906	-0.03950432739257812	-0.16460136413574217	3.7841796875	-4.611968994140625	-2.40325927734375	
68	0.272	0.0	0.0	0.0	0.0	4.6080000000000005	4.635	4.647	4.599	9.884461553955077	0.0	0.15682020874023436	2.353668212890625	-3.73077392578125	-0.782012939453125	9.805452899169921	0.16699556579589842	0.24899697265624998	0.46539306640625	-5.19561767578125	-2.696990966796875	10.039486111450195	-0.0383072265625	-0.143652099609375	3.780364990234375	-4.680633544921875	-2.1514892578125	
69	0.276	0.0	0.0	0.0	0.0	4.602	4.647	4.647	4.602	9.885060104370117	-0.03232172241210937	0.12629413757324218	2.590179443359375	-3.631591796875	-0.8087158203125	9.788693487548828	0.11611878051757812	0.2346317626953125	0.362396240234375	-5.229949951171875	-2.895355224609375	10.01015714111328	-0.08918401184082031	-0.15382745666503905	3.70025634765625	-4.730224609375	-2.071380615234375	
70	0.28	0.0	0.0	0.0	0.0	4.596	4.647	4.644	4.602	9.874286196899414	0.010175357055664061	0.09756371765136718	2.9296875	-3.627777099609375	-0.885009765625	9.78629928588867	0.181959326171875	0.19093758239746092	0.1983642578125	-4.94384765625	-2.79998779296875	9.989806427001952	-0.03651157531738281	-0.19991583862304688	3.810882568359375	-4.6539306640625	-2.285003662109375	
71	0.28400000000000003	0.0	0.0	0.0	0.0	4.593	4.644	4.635	4.605	9.872490545654296	0.006584054565429687	0.105344873046875	2.72369384765625	-3.444671630859375	-0.87738037109375	9.783905084228515	0.18076222534179687	0.1975216369628906	0.659942626953125	-5.02777099609375	-2.819061279296875	10.001178884887695	-0.02154781494140625	-0.19572598571777342	3.5858154296875	-4.43267822265625	-2.262115478515625	
72	0.28800000000000003	0.0	0.0	0.0	0.0	4.605	4.647	4.647	4.587	9.868300692749022	-0.03172317199707031	0.0939724151611328	2.490997314453125	-3.459930419921875	-0.49591064453125	9.782707983398437	0.11911153259277343	0.18315642700195311	0.35858154296875	-4.76837158203125	-2.75421142578125	9.993397729492187	-0.086191259765625	-0.20470424194335937	3.9215087890625	-4.886627197265625	-2.18963623046875	
73	0.292	0.0	0.0	0.0	0.0	4.611	4.641	4.644	4.575	9.900622415161132	0.03591302490234375	0.05746083984375	2.811431884765625	-3.60107421875	-0.934600830078125	9.788693487548828	0.22744915771484372	0.13108254089355467	0.492095947265625	-4.9285888671875	-2.6702880859375	10.00955859069824	0.13168109130859373	-0.24899697265624998	3.56292724609375	-4.60052490234375	-2.216339111328125	
74	0.296	0.0	0.0	0.0	0.0	4.6080000000000005	4.641	4.644	4.59	9.904812268066406	0.06344634399414062	0.06045359191894531	2.597808837890625	-3.53240966796875	-0.782012939453125	9.798270294189452	0.2555810272216797	0.13646949462890623	0.530242919921875	-4.9591064453125	-2.7008056640625	10.024522351074218	0.03890577697753906	-0.25917232971191406	3.589630126953125	-4.611968994140625	-1.9989013671875	
75	0.3	0.0	0.0	0.0	0.0	4.6080000000000005	4.647	4.647	4.599	9.87727894897461	0.013168109130859374	0.05566518859863281	2.5787353515625	-3.543853759765625	-0.84686279296875	9.785102185058593	0.16998831787109375	0.12150573425292968	0.339508056640625	-5.16510009765625	-3.0364990234375	10.014346994018554	-0.0430956298828125	-0.2603694305419922	3.780364990234375	-4.596710205078125	-2.468109130859375	
76	0.304	0.0	0.0	0.0	0.0	4.605	4.647	4.647	4.602	9.891045608520507	0.0909796630859375	0.016160861206054686	2.544403076171875	-3.299713134765625	-0.701904296875	9.785700735473633	0.2663549346923828	0.09157821350097656	0.26702880859375	-4.856109619140625	-2.971649169921875	10.002974536132811	0.05087678527832031	-0.31663316955566406	3.841400146484375	-4.5623779296875	-2.162933349609375	
77	0.308	0.0	0.0	0.0	0.0	4.596	4.644	4.644	4.605	9.888651406860351	0.10893617553710937	0.010175357055664061	2.742767333984375	-3.582000732421875	-0.67901611328125	9.78629928588867	0.29568390502929687	0.09277531433105468	0.591278076171875	-4.779815673828125	-2.735137939453125	10.011354241943359	0.08259995727539061	-0.2998737579345703	3.77655029296875	-4.608154296875	-2.1820068359375	
78	0.312	0.0	0.0	0.0	0.0	4.605	4.644	4.635	4.605	9.883264453125	0.05746083984375	0.010773907470703125	2.532958984375	-3.658294677734375	-0.8544921875	9.783905084228515	0.2059013427734375	0.10235212097167969	0.3204345703125	-4.917144775390625	-3.0975341796875	10.014945544433592	0.002992752075195312	-0.2914940521240234	3.60870361328125	-4.638671875	-2.227783203125	
79	0.316	0.0	0.0	0.0	0.0	4.605	4.647	4.65	4.5840000000000005	9.898228213500976	0.09995791931152344	-0.02693476867675781	2.674102783203125	-3.849029541015625	-0.89263916015625	9.801263046264648	0.28969840087890625	0.0652419952392578	0.308990478515625	-4.886627197265625	-2.712249755859375	10.022128149414062	0.08439560852050781	-0.3274070770263672	3.7841796875	-4.61578369140625	-2.25067138671875	
80	0.32	0.0	0.0	0.0	0.0	4.6080000000000005	4.644	4.647	4.575	9.899425314331054	0.1388636962890625	-0.0430956298828125	2.788543701171875	-3.696441650390625	-0.91552734375	9.787496386718749	0.3315969299316406	0.05626373901367187	0.263214111328125	-4.802703857421875	-2.86865234375	10.01733974609375	0.11911153259277343	-0.33399113159179683	3.749847412109375	-4.7454833984375	-2.216339111328125	
81	0.324	0.0	0.0	0.0	0.0	4.605	4.638	4.641	4.59	9.87009634399414	0.10893617553710937	-0.025139117431640625	2.4566650390625	-3.60870361328125	-0.827789306640625	9.77432827758789	0.25737667846679685	0.0718260498046875	0.08392333984375	-4.741668701171875	-2.796173095703125	9.987412225341796	0.03411737365722656	-0.31184476623535157	3.688812255859375	-4.573822021484375	-2.0599365234375	
82	0.328	0.0	0.0	0.0	0.0	4.605	4.647	4.647	4.596	9.87069489440918	0.14425065002441406	-0.03591302490234375	2.567291259765625	-3.448486328125	-0.8392333984375	9.783905084228515	0.3178302703857422	0.06284779357910156	0.583648681640625	-4.974365234375	-2.716064453125	10.005967288208007	0.0909796630859375	-0.3327940307617187	3.833770751953125	-4.8675537109375	-2.437591552734375	
83	0.332	0.0	0.0	0.0	0.0	4.605	4.647	4.644	4.602	9.887454306030273	0.16460136413574217	-0.052073886108398436	2.63214111328125	-3.4637451171875	-0.820159912109375	9.79946739501953	0.3591302490234375	0.054468087768554684	0.667572021484375	-5.039215087890625	-2.964019775390625	10.022726699829102	0.15203180541992187	-0.34835634155273437	3.570556640625	-4.405975341796875	-1.9683837890625	
84	0.336	0.0	0.0	0.0	0.0	4.596	4.644	4.644	4.6080000000000005	9.896432562255859	0.14544775085449219	-0.022146365356445312	2.719879150390625	-3.4332275390625	-0.64849853515625	9.79348189086914	0.3076549133300781	0.06045359191894531	0.202178955078125	-5.04302978515625	-2.918243408203125	10.017938296508788	0.10953472595214843	-0.3345896820068359	3.620147705078125	-4.52423095703125	-2.056121826171875	
85	0.34	0.0	0.0	0.0	0.0	4.6080000000000005	4.644	4.647	4.593	9.89463691101074	0.17118541870117188	-0.020949264526367185	2.643585205078125	-3.56292724609375	-0.911712646484375	9.798270294189452	0.34177228698730466	0.06823474731445311	0.244140625	-4.802703857421875	-2.750396728515625	10.025719451904296	0.12389993591308593	-0.32501287536621093	3.73077392578125	-4.6234130859375	-2.197265625	
86	0.34400000000000003	0.0	0.0	0.0	0.0	4.605	4.647	4.65	4.581	9.888651406860351	0.17956512451171874	-0.01975216369628906	2.58636474609375	-3.509521484375	-0.667572021484375	9.79408044128418	0.3591302490234375	0.06643909606933593	0.396728515625	-4.833221435546875	-2.910614013671875	10.014945544433592	0.14185644836425781	-0.33578678283691404	3.810882568359375	-4.650115966796875	-2.239227294921875	
87	0.34800000000000003	0.0	0.0	0.0	0.0	4.6080000000000005	4.641	4.647	4.578	9.877877499389648	0.15023615417480468	-0.009576806640625	2.52532958984375	-3.4637451171875	-0.80108642578125	9.783306533813477	0.3142389678955078	0.0939724151611328	0.331878662109375	-4.730224609375	-2.803802490234375	9.98501802368164	0.11013327636718749	-0.3094505645751953	3.7689208984375	-4.444122314453125	-2.040863037109375	
88	0.352	0.0	0.0	0.0	0.0	4.605	4.638	4.641	4.596	9.88386300354004	0.15382745666503905	0.020350714111328123	2.452850341796875	-3.33404541015625	-0.850677490234375	9.782707983398437	0.32501287536621093	0.11133037719726561	0.240325927734375	-4.726409912109375	-2.864837646484375	10.004770187377929	0.11073182678222655	-0.31184476623535157	3.734588623046875	-4.6539306640625	-2.262115478515625	
89	0.356	0.0	0.0	0.0	0.0	4.611	4.647	4.644	4.599	9.890447058105469	0.1514332550048828	0.023343466186523436	2.51007080078125	-3.631591796875	-0.782012939453125	9.801263046264648	0.33758243408203126	0.1005564697265625	0.4425048828125	-4.53948974609375	-2.880096435546875	10.013149893188476	0.1227028350830078	-0.31004911499023435	3.566741943359375	-4.444122314453125	-2.109527587890625	
90	0.36	0.0	0.0	0.0	0.0	4.605	4.647	4.644	4.599	9.898228213500976	0.1388636962890625	0.05566518859863281	2.651214599609375	-3.391265869140625	-0.64849853515625	9.787496386718749	0.30346506042480464	0.13646949462890623	0.003814697265625	-4.852294921875	-2.9449462890625	10.008960040283203	0.08918401184082031	-0.2759317413330078	3.60107421875	-4.787445068359375	-2.0904541015625	
91	0.364	0.0	0.0	0.0	0.0	4.593	4.644	4.641	4.6080000000000005	9.886257205200195	0.1292868896484375	0.0909796630859375	2.60162353515625	-3.482818603515625	-0.698089599609375	9.783905084228515	0.3016694091796875	0.16220716247558592	0.209808349609375	-4.72259521484375	-2.933502197265625	10.005368737792969	0.08319850769042968	-0.2442085693359375	3.597259521484375	-4.53948974609375	-1.9378662109375	
92	0.368	0.0	0.0	0.0	0.0	4.6080000000000005	4.644	4.65	4.593	9.879074600219726	0.11851298217773437	0.08259995727539061	2.582550048828125	-3.269195556640625	-0.865936279296875	9.787496386718749	0.28730419921875	0.16340426330566404	0.453948974609375	-4.924774169921875	-2.9296875	10.006565838623047	0.08379705810546874	-0.22864625854492185	3.482818603515625	-4.817962646484375	-2.1820068359375	
93	0.372	0.0	0.0	0.0	0.0	4.605	4.644	4.647	4.581	9.88266590270996	0.08080430603027343	0.09157821350097656	2.54058837890625	-3.6773681640625	-0.675201416015625	9.794678991699218	0.2501940734863281	0.18255787658691405	0.423431396484375	-4.924774169921875	-2.73895263671875	10.011354241943359	0.040701428222656245	-0.2088940948486328	3.787994384765625	-4.79888916015625	-2.246856689453125	
94	0.376	0.0	0.0	0.0	0.0	4.6080000000000005	4.644	4.644	4.5840000000000005	9.888052856445311	0.06703764648437499	0.12509703674316405	2.628326416015625	-3.627777099609375	-0.701904296875	9.78629928588867	0.23702596435546874	0.22266075439453123	-0.0457763671875	-5.008697509765625	-2.826690673828125	10.005967288208007	0.023343466186523436	-0.17597382202148437	3.692626953125	-4.657745361328125	-2.201080322265625	
95	0.38	0.0	0.0	0.0	0.0	4.605	4.635	4.644	4.596	9.891644158935547	0.047285482788085934	0.1466448516845703	2.788543701171875	-3.643035888671875	-0.698089599609375	9.789890588378906	0.21906945190429686	0.229843359375	0.072479248046875	-4.726409912109375	-2.95257568359375	10.01075569152832	0.013168109130859374	-0.15203180541992187	3.498077392578125	-4.695892333984375	-2.216339111328125	
96	0.384	0.0	0.0	0.0	0.0	4.6080000000000005	4.647	4.647	4.599	9.882067352294921	0.02693476867675781	0.15502455749511718	2.605438232421875	-3.662109375	-0.640869140625	9.785102185058593	0.18914193115234373	0.2507926239013672	0.316619873046875	-4.833221435546875	-2.7618408203125	10.007762939453125	-0.007781155395507812	-0.13467384338378904	3.620147705078125	-4.497528076171875	-2.048492431640625	
97	0.388	0.0	0.0	0.0	0.0	4.602	4.647	4.644	4.602	9.860519537353515	0.0053869537353515625	0.1771709228515625	2.620697021484375	-3.665924072265625	-0.823974609375	9.77492682800293	0.17357962036132812	0.277727392578125	0.301361083984375	-4.840850830078125	-2.895355224609375	9.986813674926758	-0.031124621582031248	-0.10654197387695312	3.692626953125	-4.665374755859375	-2.20489501953125	
98	0.392	0.0	0.0	0.0	0.0	4.596	4.644	4.641	4.6080000000000005	9.868899243164062	-0.0143652099609375	0.18555062866210936	2.353668212890625	-3.4637451171875	-0.888824462890625	9.782707983398437	0.15442600708007811	0.2885013000488281	0.423431396484375	-4.787445068359375	-2.819061279296875	9.995791931152343	-0.04848258361816406	-0.105344873046875	3.520965576171875	-4.53948974609375	-2.086639404296875	
99	0.396	0.0	0.0	0.0	0.0	4.6080000000000005	4.644	4.65	4.59	9.882067352294921	-0.023942016601562498	0.18435352783203124	2.54058837890625	-3.643035888671875	-0.81634521484375	9.789292037963866	0.15322890625	0.2753331909179687	0.263214111328125	-4.913330078125	-2.6702880859375	10.013748443603514	-0.06045359191894531	-0.11611878051757812	3.89862060546875	-4.886627197265625	-2.197265625	
100	0.4	0.0	0.0	0.0	0.0	4.605	4.644	4.65	4.578	9.89583401184082	-0.028730419921875	0.19632453613281248	2.655029296875	-3.662109375	-0.797271728515625	9.78689783630371	0.13168109130859373	0.27892449340820313	0.5950927734375	-5.13458251953125	-2.895355224609375	10.01075569152832	-0.05985504150390625	-0.10235212097167969	3.543853759765625	-4.718780517578125	-2.368927001953125	
101	0.404	0.0	0.0	0.0	0.0	4.6080000000000005	4.641	4.647	4.5840000000000005	9.89463691101074	-0.05626373901367187	0.1975216369628906	2.521514892578125	-3.528594970703125	-0.621795654296875	9.79946739501953	0.11731588134765625	0.277727392578125	0.324249267578125	-4.787445068359375	-2.8839111328125	10.004770187377929	-0.0796072052001953	-0.1083376251220703	3.70025634765625	-4.360198974609375	-2.040863037109375	
102	0.40800000000000003	0.0	0.0	0.0	0.0	4.611	4.638	4.647	4.599	9.891045608520507	-0.04129997863769531	0.19033903198242186	2.727508544921875	-3.673553466796875	-0.946044921875	9.787496386718749	0.12330138549804687	0.2657563842773437	0.339508056640625	-4.67681884765625	-2.73895263671875	10.004770187377929	-0.07841010437011718	-0.1197100830078125	3.65447998046875	-4.7149658203125	-2.12860107421875	
103	0.41200000000000003	0.0	0.0	0.0	0.0	4.605	4.647	4.647	4.605	9.879074600219726	-0.047285482788085934	0.19033903198242186	2.696990966796875	-3.7994384765625	-0.6561279296875	9.785102185058593	0.1149216796875	0.2567781280517578	0.35858154296875	-4.718780517578125	-2.704620361328125	10.001777435302733	-0.08080430603027343	-0.12449848632812499	3.76129150390625	-4.634857177734375	-2.197265625	
104	0.41600000000000004	0.0	0.0	0.0	0.0	4.602	4.647	4.641	4.599	9.873687646484374	-0.04967968444824218	0.17836802368164062	2.635955810546875	-3.509521484375	-0.843048095703125	9.78629928588867	0.10773907470703124	0.24779987182617186	0.186920166015625	-4.955291748046875	-2.7618408203125	10.007762939453125	-0.09457096557617187	-0.13108254089355467	3.692626953125	-4.764556884765625	-2.155303955078125	
105	0.42	0.0	0.0	0.0	0.0	4.59	4.644	4.638	4.6080000000000005	9.88386300354004	-0.051475335693359374	0.13826514587402344	2.63214111328125	-3.597259521484375	-0.759124755859375	9.788094937133788	0.1388636962890625	0.2346317626953125	0.286102294921875	-4.962921142578125	-2.75421142578125	10.012551342773437	-0.07242460021972656	-0.16041151123046873	3.60107421875	-4.451751708984375	-2.14385986328125	
106	0.424	0.0	0.0	0.0	0.0	4.6080000000000005	4.644	4.647	4.587	9.89463691101074	-0.03591302490234375	0.1322796417236328	2.689361572265625	-3.45611572265625	-0.751495361328125	9.795876092529296	0.14245499877929688	0.2166752502441406	0.5035400390625	-4.87518310546875	-2.8839111328125	10.008361489868163	-0.05985504150390625	-0.18734627990722655	3.765106201171875	-4.69207763671875	-2.010345458984375	
107	0.428	0.0	0.0	0.0	0.0	4.6080000000000005	4.644	4.647	4.578	9.878476049804688	-0.040701428222656245	0.12689268798828124	2.468109130859375	-3.871917724609375	-0.934600830078125	9.78629928588867	0.13467384338378904	0.20470424194335937	0.125885009765625	-4.8370361328125	-2.643585205078125	10.005368737792969	-0.06284779357910156	-0.19812018737792966	3.6773681640625	-4.817962646484375	-2.22015380859375	
108	0.432	0.0	0.0	0.0	0.0	4.605	4.644	4.644	4.587	9.873089096069336	-0.0143652099609375	0.09696516723632811	2.735137939453125	-3.498077392578125	-0.820159912109375	9.785102185058593	0.15682020874023436	0.17896657409667968	0.26702880859375	-5.031585693359375	-2.925872802734375	9.986813674926758	-0.05087678527832031	-0.21906945190429686	3.875732421875	-4.726409912109375	-2.086639404296875	
109	0.436	0.0	0.0	0.0	0.0	4.6080000000000005	4.635	4.644	4.596	9.879673150634765	0.010773907470703125	0.07362170104980469	2.52532958984375	-3.559112548828125	-0.713348388671875	9.788693487548828	0.181959326171875	0.1562216583251953	0.301361083984375	-4.92095947265625	-2.910614013671875	10.002375985717773	-0.025737667846679687	-0.24779987182617186	3.72314453125	-5.054473876953125	-2.285003662109375	
110	0.44	0.0	0.0	0.0	0.0	4.6080000000000005	4.647	4.647	4.602	9.889249957275391	0.023343466186523436	0.051475335693359374	2.803802490234375	-3.429412841796875	-0.629425048828125	9.787496386718749	0.17298106994628906	0.13946224670410157	0.514984130859375	-4.90570068359375	-2.95257568359375	10.013748443603514	-0.023343466186523436	-0.2519897247314453	3.7078857421875	-4.6539306640625	-2.01416015625	
111	0.444	0.0	0.0	0.0	0.0	4.599	4.644	4.641	4.605	9.889249957275391	0.03531447448730469	0.04967968444824218	2.4566650390625	-3.70025634765625	-0.858306884765625	9.79408044128418	0.20829554443359374	0.12808978881835936	0.370025634765625	-4.82940673828125	-2.96783447265625	10.019135397338866	-0.001197100830078125	-0.2693476867675781	3.814697265625	-4.787445068359375	-2.1514892578125	
112	0.448	0.0	0.0	0.0	0.0	4.593	4.644	4.638	4.6080000000000005	9.890447058105469	0.06763619689941405	0.02454056701660156	2.6092529296875	-3.444671630859375	-0.6866455078125	9.789292037963866	0.239420166015625	0.10354922180175781	0.179290771484375	-5.046844482421875	-2.7618408203125	10.01015714111328	0.02633621826171875	-0.28730419921875	3.902435302734375	-4.7454833984375	-2.201080322265625	
113	0.452	0.0	0.0	0.0	0.0	4.6080000000000005	4.647	4.647	4.5840000000000005	9.889249957275391	0.07541735229492187	0.018555062866210937	2.597808837890625	-3.582000732421875	-0.858306884765625	9.785102185058593	0.24361001892089842	0.09995791931152344	0.331878662109375	-4.833221435546875	-3.009796142578125	10.008960040283203	0.03890577697753906	-0.30526071166992186	3.54766845703125	-4.57000732421875	-2.25067138671875	
114	0.456	0.0	0.0	0.0	0.0	4.611	4.644	4.65	4.581	9.881468801879882	0.08499415893554688	-0.007781155395507812	2.44140625	-3.414154052734375	-0.61798095703125	9.788693487548828	0.2615665313720703	0.07601590270996093	0.240325927734375	-4.8370361328125	-2.78472900390625	10.002974536132811	0.03950432739257812	-0.3136404174804687	3.6163330078125	-4.81414794921875	-2.285003662109375	
115	0.46	0.0	0.0	0.0	0.0	4.605	4.641	4.647	4.59	9.889249957275391	0.11192892761230468	-0.028131869506835935	2.43377685546875	-3.47137451171875	-0.865936279296875	9.787496386718749	0.27892449340820313	0.06404489440917968	0.20599365234375	-5.035400390625	-2.887725830078125	10.011952792358398	0.07841010437011718	-0.3274070770263672	3.719329833984375	-4.543304443359375	-2.384185791015625	
116	0.464	0.0	0.0	0.0	0.0	4.605	4.647	4.647	4.599	9.888052856445311	0.12449848632812499	-0.03950432739257812	2.64739990234375	-3.65447998046875	-0.7171630859375	9.78629928588867	0.3022679595947265	0.05686228942871093	0.194549560546875	-5.01251220703125	-2.89154052734375	10.013748443603514	0.10235212097167969	-0.34117373657226563	3.772735595703125	-4.573822021484375	-2.300262451171875	
117	0.468	0.0	0.0	0.0	0.0	4.605	4.647	4.647	4.605	9.888651406860351	0.1388636962890625	-0.03591302490234375	2.64739990234375	-3.475189208984375	-0.652313232421875	9.791087689208984	0.3076549133300781	0.052073886108398436	0.3814697265625	-4.901885986328125	-2.811431884765625	10.014945544433592	0.11073182678222655	-0.34656069030761716	3.513336181640625	-4.512786865234375	-2.231597900390625	
118	0.47200000000000003	0.0	0.0	0.0	0.0	4.599	4.644	4.641	4.602	9.884461553955077	0.15682020874023436	-0.03531447448730469	2.61688232421875	-3.66973876953125	-0.79345703125	9.789890588378906	0.33758243408203126	0.05027823486328125	0.31280517578125	-5.04302978515625	-2.803802490234375	9.996989031982421	0.1352723937988281	-0.34715924072265625	3.662109375	-4.688262939453125	-1.9989013671875	
119	0.47600000000000003	0.0	0.0	0.0	0.0	4.602	4.647	4.632	4.599	9.890447058105469	0.1801636749267578	-0.030526071166992186	2.628326416015625	-3.6163330078125	-0.652313232421875	9.783905084228515	0.3507505432128906	0.04548983154296875	0.6103515625	-4.528045654296875	-2.704620361328125	9.996989031982421	0.15083470458984374	-0.3495534423828125	3.635406494140625	-4.734039306640625	-2.15911865234375	
120	0.48	0.0	0.0	0.0	0.0	4.6080000000000005	4.647	4.65	4.5840000000000005	9.886257205200195	0.17058686828613281	-0.027533319091796873	2.422332763671875	-3.59344482421875	-0.751495361328125	9.787496386718749	0.35194764404296874	0.05087678527832031	0.46539306640625	-4.810333251953125	-2.773284912109375	10.007762939453125	0.14245499877929688	-0.3363853332519531	3.72314453125	-4.558563232421875	-2.288818359375	
121	0.484	0.0	0.0	0.0	0.0	4.6080000000000005	4.644	4.647	4.578	9.889249957275391	0.18854338073730467	-0.022744915771484374	2.559661865234375	-3.582000732421875	-0.84686279296875	9.788094937133788	0.35613749694824215	0.05626373901367187	0.3204345703125	-4.940032958984375	-2.86865234375	10.00955859069824	0.15203180541992187	-0.34715924072265625	3.76129150390625	-4.642486572265625	-2.25830078125	
122	0.488	0.0	0.0	0.0	0.0	4.605	4.641	4.644	4.596	9.896432562255859	0.18914193115234373	-0.01975216369628906	2.7008056640625	-3.53240966796875	-0.885009765625	9.78629928588867	0.3573345977783203	0.061650692749023434	0.43487548828125	-4.924774169921875	-2.849578857421875	10.012551342773437	0.15562310791015624	-0.3315969299316406	3.8299560546875	-4.650115966796875	-2.124786376953125	
123	0.492	0.0	0.0	0.0	0.0	4.605	4.647	4.647	4.599	9.888052856445311	0.17776947326660156	0.007781155395507812	2.597808837890625	-3.566741943359375	-0.762939453125	9.785102185058593	0.3585316986083984	0.07900865478515624	0.080108642578125	-4.917144775390625	-2.803802490234375	10.001178884887695	0.14544775085449219	-0.3184288208007812	3.490447998046875	-4.49371337890625	-2.06756591796875	
124	0.496	0.0	0.0	0.0	0.0	4.605	4.647	4.644	4.605	9.879074600219726	0.1753752716064453	0.020949264526367185	2.658843994140625	-3.643035888671875	-0.759124755859375	9.79348189086914	0.34177228698730466	0.10354922180175781	0.377655029296875	-4.756927490234375	-2.9449462890625	10.004770187377929	0.1406593475341797	-0.2932897033691406	3.582000732421875	-4.627227783203125	-2.254486083984375	
125	0.5	0.0	0.0	0.0	0.0	4.593	4.644	4.644	4.605	9.87668039855957	0.17298106994628906	0.025737667846679687	2.735137939453125	-3.60870361328125	-0.732421875	9.787496386718749	0.33698388366699217	0.11611878051757812	0.041961669921875	-4.82177734375	-2.58636474609375	10.00417163696289	0.13407529296874998	-0.2867056488037109	3.650665283203125	-4.467010498046875	-2.155303955078125	
126	0.504	0.0	0.0	0.0	0.0	4.605	4.644	4.641	4.599	9.886855755615233	0.1562216583251953	0.047285482788085934	2.6092529296875	-3.34930419921875	-0.675201416015625	9.791686239624022	0.3268085266113281	0.12868833923339842	0.293731689453125	-4.718780517578125	-3.078460693359375	10.011952792358398	0.11731588134765625	-0.258573779296875	3.79180908203125	-4.5623779296875	-2.353668212890625	
127	0.508	0.0	0.0	0.0	0.0	4.605	4.647	4.65	4.581	9.889249957275391	0.14484920043945312	0.062249243164062495	2.422332763671875	-3.383636474609375	-0.629425048828125	9.78629928588867	0.297479556274414	0.16160861206054686	0.278472900390625	-4.87518310546875	-2.803802490234375	10.008960040283203	0.09756371765136718	-0.2454056701660156	3.849029541015625	-4.6234130859375	-2.071380615234375	
128	0.512	0.0	0.0	0.0	0.0	4.611	4.644	4.644	4.578	9.892841259765625	0.12569558715820311	0.0909796630859375	2.513885498046875	-3.5858154296875	-0.667572021484375	9.788094937133788	0.2914940521240234	0.16639701538085935	0.274658203125	-4.817962646484375	-2.57110595703125	10.01674119567871	0.09038111267089843	-0.21487959899902342	3.543853759765625	-4.627227783203125	-2.155303955078125	
129	0.516	0.0	0.0	0.0	0.0	4.6080000000000005	4.641	4.647	4.599	9.874884747314452	0.09696516723632811	0.10354922180175781	2.597808837890625	-3.429412841796875	-0.72479248046875	9.779116680908203	0.27174188842773433	0.18914193115234373	-0.133514404296875	-4.886627197265625	-2.899169921875	9.995791931152343	0.06344634399414062	-0.19931728820800781	3.559112548828125	-4.64630126953125	-2.277374267578125	
130	0.52	0.0	0.0	0.0	0.0	4.605	4.647	4.647	4.599	9.866505041503906	0.0796072052001953	0.12629413757324218	2.57110595703125	-3.620147705078125	-0.820159912109375	9.781510882568359	0.24480711975097655	0.2166752502441406	0.438690185546875	-4.69207763671875	-2.910614013671875	9.9981861328125	0.044292730712890624	-0.16699556579589842	3.719329833984375	-4.703521728515625	-2.0751953125	
131	0.524	0.0	0.0	0.0	0.0	4.605	4.647	4.647	4.599	9.880271701049804	0.06703764648437499	0.14903905334472656	2.475738525390625	-3.60870361328125	-1.02996826171875	9.78629928588867	0.2280477081298828	0.23044190979003906	0.324249267578125	-4.8370361328125	-2.716064453125	9.992799179077148	0.015562310791015624	-0.15562310791015624	3.692626953125	-4.550933837890625	-2.3345947265625	
132	0.528	0.0	0.0	0.0	0.0	4.596	4.644	4.641	4.6080000000000005	9.880870251464843	0.028131869506835935	0.15562310791015624	2.490997314453125	-3.429412841796875	-0.67138671875	9.789890588378906	0.20290859069824219	0.24480711975097655	0.29754638671875	-4.947662353515625	-2.674102783203125	10.005967288208007	-0.0053869537353515625	-0.13646949462890623	3.88336181640625	-4.795074462890625	-2.105712890625	
133	0.532	0.0	0.0	0.0	0.0	4.6080000000000005	4.644	4.641	4.59	9.883264453125	0.0143652099609375	0.15502455749511718	2.674102783203125	-3.7078857421875	-0.87738037109375	9.788693487548828	0.17956512451171874	0.2567781280517578	-0.030517578125	-4.932403564453125	-2.635955810546875	10.001777435302733	-0.02154781494140625	-0.1274912384033203	3.60107421875	-4.703521728515625	-2.338409423828125	
134	0.536	0.0	0.0	0.0	0.0	4.605	4.644	4.647	4.578	9.884461553955077	-0.011971008300781249	0.16041151123046873	2.689361572265625	-3.42559814453125	-0.75531005859375	9.789890588378906	0.16819266662597654	0.2651578338623047	0.293731689453125	-4.962921142578125	-2.773284912109375	10.008960040283203	-0.040102877807617184	-0.12808978881835936	3.711700439453125	-4.57000732421875	-2.02178955078125	
135	0.54	0.0	0.0	0.0	0.0	4.6080000000000005	4.644	4.644	4.578	9.883264453125	-0.020949264526367185	0.17298106994628906	2.7313232421875	-3.66973876953125	-0.804901123046875	9.783905084228515	0.15322890625	0.26336218261718747	0.354766845703125	-4.764556884765625	-2.864837646484375	10.005368737792969	-0.044891281127929686	-0.11611878051757812	3.82232666015625	-4.650115966796875	-2.117156982421875	
136	0.544	0.0	0.0	0.0	0.0	4.6080000000000005	4.638	4.644	4.596	9.890447058105469	-0.03232172241210937	0.16819266662597654	2.532958984375	-3.4637451171875	-0.713348388671875	9.783905084228515	0.1370680450439453	0.2651578338623047	0.4119873046875	-4.810333251953125	-2.765655517578125	10.01015714111328	-0.062249243164062495	-0.11192892761230468	3.498077392578125	-4.673004150390625	-2.22015380859375	
137	0.548	0.0	0.0	0.0	0.0	4.602	4.647	4.647	4.602	9.882067352294921	-0.04967968444824218	0.18136077575683593	2.64739990234375	-3.498077392578125	-0.690460205078125	9.787496386718749	0.12449848632812499	0.2699462371826172	0.354766845703125	-5.092620849609375	-2.796173095703125	10.005368737792969	-0.07003039855957031	-0.1304839904785156	3.696441650390625	-4.486083984375	-2.105712890625	
138	0.552	0.0	0.0	0.0	0.0	4.602	4.647	4.647	4.602	9.888651406860351	-0.04848258361816406	0.18375497741699218	2.506256103515625	-3.83758544921875	-1.094818115234375	9.787496386718749	0.11552023010253906	0.24600422058105467	0.274658203125	-5.016326904296875	-2.95257568359375	10.00417163696289	-0.08200140686035155	-0.13946224670410157	3.7078857421875	-4.52423095703125	-2.3040771484375	
139	0.556	0.0	0.0	0.0	0.0	4.593	4.644	4.641	4.6080000000000005	9.881468801879882	-0.04548983154296875	0.1693897674560547	2.704620361328125	-3.742218017578125	-0.81634521484375	9.785102185058593	0.11252747802734374	0.24301146850585936	0.31280517578125	-4.993438720703125	-2.8228759765625	10.015544094848632	-0.08559270935058594	-0.15023615417480468	3.66973876953125	-4.69207763671875	-2.32696533203125	
140	0.56	0.0	0.0	0.0	0.0	4.6080000000000005	4.644	4.644	4.59	9.888052856445311	-0.05746083984375	0.1514332550048828	2.64739990234375	-3.665924072265625	-0.70953369140625	9.784503634643555	0.11252747802734374	0.24181436767578124	0.30517578125	-5.0201416015625	-2.7008056640625	10.001777435302733	-0.09516951599121093	-0.15682020874023436	3.772735595703125	-4.638671875	-2.132415771484375	
141	0.5640000000000001	0.0	0.0	0.0	0.0	4.6080000000000005	4.644	4.647	4.578	9.882067352294921	-0.044891281127929686	0.13587094421386717	2.582550048828125	-3.7689208984375	-1.125335693359375	9.791087689208984	0.1227028350830078	0.2136824981689453	0.118255615234375	-4.9285888671875	-2.60162353515625	10.005967288208007	-0.08738836059570312	-0.17238251953125	3.582000732421875	-4.688262939453125	-2.147674560546875	
142	0.5680000000000001	0.0	0.0	0.0	0.0	4.6080000000000005	4.644	4.644	4.581	9.87668039855957	-0.0526724365234375	0.1304839904785156	2.635955810546875	-3.6163330078125	-0.8392333984375	9.789890588378906	0.12988544006347655	0.2041056915283203	0.431060791015625	-4.82940673828125	-2.635955810546875	9.9981861328125	-0.08020575561523437	-0.1771709228515625	3.79180908203125	-4.8065185546875	-2.254486083984375	
143	0.5720000000000001	0.0	0.0	0.0	0.0	4.6080000000000005	4.638	4.644	4.599	9.874884747314452	-0.033518823242187495	0.13287819213867186	2.620697021484375	-3.41796875	-0.79345703125	9.79348189086914	0.1322796417236328	0.20231004028320312	0.40435791015625	-4.917144775390625	-2.8228759765625	10.005967288208007	-0.0796072052001953	-0.19213468322753904	3.490447998046875	-4.428863525390625	-2.155303955078125	
144	0.5760000000000001	0.0	0.0	0.0	0.0	4.605	4.647	4.647	4.602	9.874884747314452	-0.023343466186523436	0.1005564697265625	2.838134765625	-3.711700439453125	-0.823974609375	9.79408044128418	0.1484405029296875	0.17357962036132812	0.400543212890625	-4.85992431640625	-2.6702880859375	10.000580334472655	-0.059256491088867186	-0.21248539733886718	3.597259521484375	-4.627227783203125	-2.185821533203125	
145	0.58	0.0	0.0	0.0	0.0	4.602	4.644	4.644	4.602	9.879074600219726	-0.0143652099609375	0.07362170104980469	2.63214111328125	-3.77655029296875	-0.6103515625	9.783905084228515	0.1580173095703125	0.14784195251464843	0.423431396484375	-4.8370361328125	-2.948760986328125	10.00417163696289	-0.04249707946777344	-0.23403321228027343	3.543853759765625	-4.695892333984375	-2.117156982421875	
146	0.584	0.0	0.0	0.0	0.0	4.593	4.644	4.638	4.6080000000000005	9.884461553955077	-0.009576806640625	0.05985504150390625	2.574920654296875	-3.83758544921875	-0.91552734375	9.78031378173828	0.1693897674560547	0.13826514587402344	0.0762939453125	-4.749298095703125	-2.811431884765625	10.005368737792969	-0.030526071166992186	-0.25318682556152344	3.719329833984375	-4.8980712890625	-2.32696533203125	
147	0.588	0.0	0.0	0.0	0.0	4.6080000000000005	4.647	4.65	4.587	9.897031112670899	0.022146365356445312	0.037110125732421874	2.44140625	-3.72314453125	-0.8392333984375	9.78629928588867	0.1867477294921875	0.1322796417236328	0.213623046875	-4.99725341796875	-2.7923583984375	10.01075569152832	-0.02154781494140625	-0.26815058593749996	3.688812255859375	-4.558563232421875	-2.223968505859375	
148	0.592	0.0	0.0	0.0	0.0	4.6080000000000005	4.647	4.65	4.578	9.897031112670899	0.047285482788085934	0.03531447448730469	2.38037109375	-3.57818603515625	-0.6866455078125	9.78629928588867	0.2059013427734375	0.11432312927246092	0.194549560546875	-4.825592041015625	-2.93731689453125	10.008960040283203	-0.004189852905273437	-0.2825157958984375	3.97491455078125	-4.642486572265625	-2.01416015625	
149	0.596	0.0	0.0	0.0	0.0	4.605	4.641	4.647	4.587	9.888052856445311	0.058657940673828124	0.01975216369628906	2.655029296875	-3.63922119140625	-0.858306884765625	9.788693487548828	0.2232593048095703	0.1005564697265625	0.2899169921875	-4.878997802734375	-2.90679931640625	10.007762939453125	0.016160861206054686	-0.2867056488037109	3.948211669921875	-4.573822021484375	-2.155303955078125	
150	0.6	0.0	0.0	0.0	0.0	4.605	4.635	4.644	4.596	9.888651406860351	0.07601590270996093	0.001197100830078125	2.69317626953125	-3.673553466796875	-0.8087158203125	9.782109432983399	0.2537853759765625	0.08858546142578125	0.518798828125	-5.023956298828125	-2.70843505859375	10.011952792358398	0.03591302490234375	-0.29867665710449215	3.696441650390625	-4.589080810546875	-2.254486083984375	
151	0.604	0.0	0.0	0.0	0.0	4.602	4.647	4.647	4.605	9.882067352294921	0.09038111267089843	-0.001197100830078125	2.44140625	-3.662109375	-0.7171630859375	9.785102185058593	0.2723404388427734	0.07721300354003906	0.19073486328125	-4.8065185546875	-2.780914306640625	10.000580334472655	0.05686228942871093	-0.31962592163085934	3.41796875	-4.863739013671875	-2.0294189453125	
152	0.608	0.0	0.0	0.0	0.0	4.596	4.644	4.644	4.6080000000000005	9.882067352294921	0.11192892761230468	0.001197100830078125	2.910614013671875	-3.66973876953125	-0.865936279296875	9.78629928588867	0.2902969512939453	0.07601590270996093	0.469207763671875	-4.985809326171875	-3.082275390625	9.994594830322265	0.07302315063476562	-0.3220201232910156	3.681182861328125	-4.57000732421875	-2.2430419921875	
153	0.612	0.0	0.0	0.0	0.0	4.593	4.644	4.638	4.605	9.884461553955077	0.14125789794921875	-0.008978256225585938	2.655029296875	-3.772735595703125	-0.7781982421875	9.7928833404541	0.31184476623535157	0.0718260498046875	0.31280517578125	-4.810333251953125	-2.8228759765625	10.002974536132811	0.08738836059570312	-0.33578678283691404	3.536224365234375	-4.61578369140625	-2.101898193359375	
154	0.616	0.0	0.0	0.0	0.0	4.605	4.647	4.65	4.5840000000000005	9.885060104370117	0.14305354919433594	-0.013766659545898436	2.727508544921875	-3.780364990234375	-0.774383544921875	9.788693487548828	0.32620997619628905	0.076614453125	0.362396240234375	-4.79888916015625	-2.93731689453125	10.00955859069824	0.10474632263183593	-0.33698388366699217	3.665924072265625	-4.61578369140625	-2.09808349609375	
155	0.62	0.0	0.0	0.0	0.0	4.6080000000000005	4.641	4.644	4.578	9.898826763916015	0.15083470458984374	-0.018555062866210937	2.490997314453125	-3.398895263671875	-0.640869140625	9.784503634643555	0.33039982910156246	0.07062894897460938	0.3662109375	-4.84466552734375	-2.925872802734375	10.014346994018554	0.13287819213867186	-0.3345896820068359	3.631591796875	-4.608154296875	-2.11334228515625	
156	0.624	0.0	0.0	0.0	0.0	4.611	4.641	4.644	4.593	9.888052856445311	0.16460136413574217	-0.008379705810546874	2.307891845703125	-3.482818603515625	-0.8392333984375	9.784503634643555	0.3459621398925781	0.07062894897460938	0.164031982421875	-4.99725341796875	-2.948760986328125	10.00417163696289	0.1292868896484375	-0.3226186737060547	3.63922119140625	-4.6844482421875	-2.3651123046875	
157	0.628	0.0	0.0	0.0	0.0	4.6080000000000005	4.647	4.647	4.596	9.88386300354004	0.16998831787109375	-0.011971008300781249	2.643585205078125	-3.566741943359375	-0.881195068359375	9.784503634643555	0.34715924072265625	0.08080430603027343	0.415802001953125	-4.8980712890625	-2.872467041015625	10.002974536132811	0.13168109130859373	-0.3142389678955078	3.520965576171875	-4.467010498046875	-2.147674560546875	
158	0.632	0.0	0.0	0.0	0.0	4.605	4.647	4.647	4.596	9.883264453125	0.16759411621093748	0.002992752075195312	2.64739990234375	-3.673553466796875	-0.736236572265625	9.788094937133788	0.3495534423828125	0.08080430603027343	0.3662109375	-4.856109619140625	-2.788543701171875	10.001777435302733	0.1352723937988281	-0.31962592163085934	3.63922119140625	-4.669189453125	-2.0751953125	
159	0.636	0.0	0.0	0.0	0.0	4.596	4.644	4.644	4.605	9.890447058105469	0.14484920043945312	-0.010773907470703125	2.54058837890625	-3.513336181640625	-1.049041748046875	9.785700735473633	0.32441432495117184	0.10654197387695312	-0.019073486328125	-4.8065185546875	-2.819061279296875	9.988609326171874	0.09337386474609374	-0.2711433380126953	3.5858154296875	-4.44793701171875	-2.048492431640625	
160	0.64	0.0	0.0	0.0	0.0	4.605	4.644	4.635	4.599	9.880870251464843	0.22385785522460935	0.04967968444824218	2.5787353515625	-3.5247802734375	-0.858306884765625	9.787496386718749	0.42018239135742186	0.1083376251220703	0.049591064453125	-4.61578369140625	-2.765655517578125	9.988609326171874	0.20350714111328125	-0.2663549346923828	3.658294677734375	-4.932403564453125	-2.2735595703125	
161	0.644	0.0	0.0	0.0	0.0	4.605	4.647	4.65	4.5840000000000005	9.88386300354004	0.10773907470703124	0.017357962036132813	2.490997314453125	-3.612518310546875	-0.743865966796875	9.78031378173828	0.2442085693359375	0.1227028350830078	0.354766845703125	-4.974365234375	-2.7313232421875	9.981426721191406	0.1304839904785156	-0.24839842224121092	3.673553466796875	-4.7760009765625	-2.08282470703125	
162	0.648	0.0	0.0	0.0	0.0	4.611	4.644	4.647	4.578	9.871293444824218	0.11192892761230468	0.06045359191894531	2.5787353515625	-3.6468505859375	-0.888824462890625	9.78629928588867	0.34057518615722654	0.16879121704101563	0.186920166015625	-4.791259765625	-2.9296875	9.977236868286132	0.09576806640624999	-0.21428104858398436	3.753662109375	-4.535675048828125	-2.216339111328125	
163	0.652	0.0	0.0	0.0	0.0	4.6080000000000005	4.641	4.647	4.596	9.891644158935547	0.12808978881835936	0.03232172241210937	2.410888671875	-3.635406494140625	-0.904083251953125	9.788094937133788	0.40880993347167965	0.17417817077636719	0.064849853515625	-4.87518310546875	-2.83050537109375	10.002974536132811	0.23104046020507812	-0.22385785522460935	3.47900390625	-4.45556640625	-2.094268798828125	
164	0.656	0.0	0.0	0.0	0.0	4.602	4.647	4.647	4.599	9.861716638183593	0.06464344482421874	0.0718260498046875	2.37274169921875	-3.50189208984375	-0.759124755859375	9.776722479248047	0.2567781280517578	0.1897404815673828	0.3814697265625	-4.650115966796875	-2.7923583984375	9.962273107910155	0.001197100830078125	-0.2885013000488281	3.780364990234375	-4.46319580078125	-2.201080322265625	
165	0.66	0.0	0.0	0.0	0.0	4.605	4.647	4.647	4.599	9.859322436523437	0.15023615417480468	0.21308394775390624	2.4871826171875	-3.4637451171875	-0.70953369140625	9.787496386718749	0.27293898925781246	0.22026655273437498	0.263214111328125	-4.852294921875	-2.941131591796875	10.001777435302733	0.08858546142578125	-0.17956512451171874	3.551483154296875	-4.428863525390625	-2.109527587890625	
166	0.664	0.0	0.0	0.0	0.0	4.596	4.644	4.644	4.605	9.860519537353515	0.11013327636718749	0.0987608184814453	2.50244140625	-3.31878662109375	-0.766754150390625	9.82460651245117	0.2699462371826172	0.14305354919433594	0.362396240234375	-5.04302978515625	-2.899169921875	10.081983190917969	0.03890577697753906	-0.2855085479736328	3.631591796875	-4.6234130859375	-2.223968505859375	
167	0.668	0.0	0.0	0.0	0.0	4.605	4.644	4.647	4.596	9.859322436523437	0.18315642700195311	0.24779987182617186	2.712249755859375	-3.612518310546875	-0.629425048828125	9.781510882568359	0.24181436767578124	0.21906945190429686	0.3509521484375	-4.833221435546875	-2.7313232421875	9.96047745666504	0.06284779357910156	-0.1484405029296875	3.520965576171875	-4.547119140625	-2.13623046875	
168	0.672	0.0	0.0	0.0	0.0	4.605	4.647	4.65	4.5840000000000005	9.855731134033203	0.015562310791015624	0.11611878051757812	2.6092529296875	-3.6468505859375	-1.0223388671875	9.811438403320311	0.11791443176269531	0.17477672119140625	0.179290771484375	-4.7149658203125	-3.025054931640625	10.078391888427733	-0.13646949462890623	-0.2561795776367187	3.7384033203125	-4.5318603515625	-2.11334228515625	
169	0.676	0.0	0.0	0.0	0.0	4.611	4.641	4.647	4.581	9.868899243164062	0.18555062866210936	0.28012159423828126	2.74658203125	-3.559112548828125	-0.67138671875	9.78031378173828	0.32022447204589843	0.297479556274414	0.415802001953125	-4.9591064453125	-2.8228759765625	10.074202035522461	0.1975216369628906	-0.16879121704101563	3.704071044921875	-4.7454833984375	-2.29644775390625	
170	0.68	0.0	0.0	0.0	0.0	4.6080000000000005	4.638	4.647	4.599	9.913191973876952	-0.0796072052001953	0.10893617553710937	2.34222412109375	-3.574371337890625	-0.965118408203125	9.817423907470703	0.12629413757324218	0.14963760375976562	0.213623046875	-4.901885986328125	-2.8839111328125	10.077793338012695	-0.14185644836425781	-0.2855085479736328	3.574371337890625	-4.7149658203125	-2.3040771484375	
171	0.684	0.0	0.0	0.0	0.0	4.602	4.647	4.647	4.599	9.846752877807617	0.1801636749267578	0.3094505645751953	2.758026123046875	-3.5247802734375	-0.48828125	9.745597857666015	0.28431144714355466	0.31962592163085934	0.22125244140625	-4.66156005859375	-2.605438232421875	10.046070166015625	0.15203180541992187	-0.13646949462890623	3.795623779296875	-4.75311279296875	-2.185821533203125	
172	0.6880000000000001	0.0	0.0	0.0	0.0	4.605	4.647	4.644	4.599	9.90840357055664	-0.16519991455078123	0.11552023010253906	2.391815185546875	-3.44085693359375	-0.728607177734375	9.852139831542969	-0.06105214233398437	0.18076222534179687	0.09918212890625	-4.72259521484375	-2.666473388671875	10.066420880126952	-0.18076222534179687	-0.2651578338623047	3.833770751953125	-4.78363037109375	-2.170562744140625	
173	0.6920000000000001	0.0	0.0	0.0	0.0	4.587	4.644	4.641	4.6080000000000005	9.835978970336914	0.1610100616455078	0.29927520751953124	2.887725830078125	-3.635406494140625	-0.6256103515625	9.756970315551758	0.26276363220214843	0.32142157287597656	0.377655029296875	-5.0048828125	-2.826690673828125	10.041281762695311	0.13946224670410157	-0.14305354919433594	3.662109375	-4.53948974609375	-2.140045166015625	
174	0.6960000000000001	0.0	0.0	0.0	0.0	4.6080000000000005	4.644	4.647	4.596	9.912593423461914	-0.1693897674560547	0.12629413757324218	2.03704833984375	-3.173828125	-0.720977783203125	9.8311905670166	-0.02693476867675781	0.19393033447265623	0.247955322265625	-4.863739013671875	-2.788543701171875	10.047267266845703	-0.1657984649658203	-0.2597708801269531	3.673553466796875	-4.772186279296875	-1.99127197265625	
175	0.7000000000000001	0.0	0.0	0.0	0.0	4.605	4.647	4.65	4.578	9.937133990478515	0.030526071166992186	0.09038111267089843	2.712249755859375	-3.612518310546875	-0.8697509765625	9.798868844604492	0.26336218261718747	0.22026655273437498	0.7171630859375	-4.9896240234375	-3.07464599609375	9.950302099609374	0.06763619689941405	-0.14245499877929688	3.875732421875	-4.550933837890625	-2.13623046875	
176	0.704	0.0	0.0	0.0	0.0	4.6080000000000005	4.641	4.641	4.5840000000000005	9.92217023010254	-0.24301146850585936	0.09337386474609374	1.99127197265625	-3.215789794921875	-0.96893310546875	9.858723886108399	-0.14903905334472656	0.15203180541992187	0.16021728515625	-5.035400390625	-2.86865234375	10.073004934692381	-0.2663549346923828	-0.2885013000488281	3.719329833984375	-4.985809326171875	-2.2125244140625	
177	0.708	0.0	0.0	0.0	0.0	4.6080000000000005	4.638	4.647	4.599	9.931747036743163	0.07122749938964844	0.06284779357910156	2.513885498046875	-3.509521484375	-0.8697509765625	9.781510882568359	0.32022447204589843	0.20290859069824219	0.469207763671875	-4.852294921875	-2.73895263671875	9.94671079711914	0.12330138549804687	-0.15263035583496093	3.643035888671875	-4.73785400390625	-2.239227294921875	
178	0.712	0.0	0.0	0.0	0.0	4.602	4.647	4.647	4.605	9.89463691101074	0.0526724365234375	0.09756371765136718	2.81524658203125	-4.001617431640625	-0.457763671875	9.868899243164062	-0.1801636749267578	0.1352723937988281	0.324249267578125	-4.932403564453125	-2.5634765625	10.05504842224121	-0.2549824768066406	-0.2998737579345703	3.73077392578125	-4.901885986328125	-2.079010009765625	
179	0.716	0.0	0.0	0.0	0.0	4.602	4.647	4.644	4.602	9.93952819213867	0.028131869506835935	0.02693476867675781	2.593994140625	-3.56292724609375	-0.965118408203125	9.79946739501953	0.2507926239013672	0.17776947326660156	0.583648681640625	-4.730224609375	-2.979278564453125	9.956287603759765	0.06703764648437499	-0.18136077575683593	3.505706787109375	-4.505157470703125	-2.29644775390625	
180	0.72	0.0	0.0	0.0	0.0	4.596	4.644	4.641	4.6080000000000005	9.907206469726562	0.086191259765625	0.05566518859863281	2.773284912109375	-3.726959228515625	-0.354766845703125	9.79348189086914	0.08080430603027343	0.1149216796875	0.42724609375	-5.0048828125	-2.62451171875	9.9461122467041	-0.09516951599121093	-0.1610100616455078	3.6163330078125	-4.779815673828125	-1.895904541015625	
181	0.724	0.0	0.0	0.0	0.0	4.6080000000000005	4.644	4.647	4.59	9.909600671386718	0.076614453125	0.020350714111328123	2.76947021484375	-3.68499755859375	-0.873565673828125	9.76175871887207	0.31962592163085934	0.16220716247558592	0.26702880859375	-4.985809326171875	-2.910614013671875	9.91438907470703	0.13826514587402344	-0.1753752716064453	3.4942626953125	-4.5623779296875	-2.2735595703125	
182	0.728	0.0	0.0	0.0	0.0	4.6080000000000005	4.644	4.65	4.578	9.900622415161132	0.08439560852050781	0.03172317199707031	2.758026123046875	-3.643035888671875	-0.293731689453125	9.79408044128418	0.0383072265625	0.09217676391601562	0.354766845703125	-4.878997802734375	-2.6397705078125	9.929951385498047	-0.1083376251220703	-0.14604630126953125	3.643035888671875	-4.57000732421875	-2.00653076171875	
183	0.732	0.0	0.0	0.0	0.0	4.614	4.638	4.641	4.5840000000000005	9.907206469726562	-0.08858546142578125	0.08918401184082031	3.276824951171875	-4.062652587890625	-0.782012939453125	9.725845693969726	0.3028665100097656	0.1945288848876953	0.34332275390625	-4.82177734375	-3.31878662109375	9.93414123840332	-0.0718260498046875	-0.2059013427734375	3.795623779296875	-4.49371337890625	-2.60162353515625	
184	0.736	0.0	0.0	0.0	0.0	4.6080000000000005	4.635	4.644	4.605	9.913191973876952	0.15023615417480468	0.01915361328125	2.902984619140625	-3.757476806640625	-0.423431396484375	9.791087689208984	0.06404489440917968	0.08020575561523437	0.522613525390625	-4.89044189453125	-2.70843505859375	9.909600671386718	-0.07302315063476562	-0.17178396911621094	3.4637451171875	-4.8980712890625	-1.979827880859375	
185	0.74	0.0	0.0	0.0	0.0	4.602	4.647	4.647	4.599	9.892242709350585	-0.04848258361816406	0.07900865478515624	3.261566162109375	-3.97491455078125	-0.537872314453125	9.69831237487793	0.3585316986083984	0.19093758239746092	0.560760498046875	-4.863739013671875	-3.215789794921875	9.892841259765625	-0.03232172241210937	-0.22206220397949217	3.887176513671875	-4.5166015625	-2.43377685546875	
186	0.744	0.0	0.0	0.0	0.0	4.599	4.644	4.644	4.602	9.928754284667969	0.18854338073730467	-0.0143652099609375	2.3956298828125	-3.73077392578125	-0.438690185546875	9.771335525512695	0.3956418243408203	0.1406593475341797	-0.0152587890625	-5.0506591796875	-2.445220947265625	9.969455712890625	0.15682020874023436	-0.1292868896484375	3.72314453125	-4.596710205078125	-1.8157958984375	
187	0.748	0.0	0.0	0.0	0.0	4.593	4.644	4.638	4.6080000000000005	9.905410818481444	-0.010175357055664061	0.06823474731445311	3.452301025390625	-3.90625	-0.66375732421875	9.692925421142577	0.39923312683105466	0.18136077575683593	0.5340576171875	-4.6234130859375	-3.345489501953125	9.912593423461914	-0.016759411621093748	-0.24600422058105467	3.688812255859375	-4.558563232421875	-2.483367919921875	
188	0.752	0.0	0.0	0.0	0.0	4.6080000000000005	4.647	4.647	4.587	9.931747036743163	0.12030863342285156	0.03950432739257812	2.62451171875	-3.543853759765625	-0.698089599609375	9.753379013061522	0.4465186096191406	0.12868833923339842	0.568389892578125	-4.8980712890625	-2.819061279296875	9.94671079711914	0.201112939453125	-0.11911153259277343	3.810882568359375	-4.75311279296875	-1.83868408203125	
189	0.756	0.0	0.0	0.0	0.0	4.6080000000000005	4.644	4.65	4.575	9.920973129272461	0.05746083984375	0.0383072265625	3.875732421875	-4.08172607421875	-0.583648681640625	9.834781869506836	0.2059013427734375	0.047285482788085934	0.05340576171875	-4.634857177734375	-3.330230712890625	9.90900212097168	0.009576806640625	-0.2645592834472656	3.631591796875	-4.619598388671875	-2.685546875	
190	0.76	0.0	0.0	0.0	0.0	4.602	4.644	4.647	4.587	9.944316595458984	0.15682020874023436	0.023343466186523436	2.70843505859375	-3.704071044921875	-0.782012939453125	9.77432827758789	0.46208092041015625	0.09995791931152344	0.02288818359375	-4.669189453125	-2.593994140625	9.948506448364258	0.2262520568847656	-0.13108254089355467	3.765106201171875	-4.489898681640625	-1.9683837890625	
191	0.764	0.0	0.0	0.0	0.0	4.602	4.632	4.644	4.596	9.861716638183593	0.0047884033203125	0.07242460021972656	2.7618408203125	-3.66973876953125	-1.102447509765625	9.816226806640625	0.24361001892089842	0.051475335693359374	-0.0152587890625	-4.581451416015625	-3.246307373046875	10.190919366455077	-0.19093758239746092	-0.546476528930664	3.7078857421875	-4.573822021484375	-2.071380615234375	
192	0.768	0.0	0.0	0.0	0.0	4.602	4.647	4.647	4.602	9.932345587158203	0.22445640563964842	0.0430956298828125	3.223419189453125	-3.76129150390625	-0.4730224609375	9.779116680908203	0.4471171600341797	0.23822306518554687	-0.049591064453125	-4.909515380859375	-2.5482177734375	9.947907897949218	0.28909985046386716	-0.13646949462890623	3.7994384765625	-4.573822021484375	-1.922607421875	
193	0.772	0.0	0.0	0.0	0.0	4.596	4.644	4.644	4.605	9.85632968444824	-0.06284779357910156	-0.105344873046875	2.6397705078125	-3.37982177734375	-0.812530517578125	9.821015209960937	0.22385785522460935	0.040102877807617184	0.06866455078125	-4.749298095703125	-3.017425537109375	10.220846887207031	-0.20530279235839843	-0.5764040496826172	3.780364990234375	-4.47845458984375	-2.197265625	
194	0.776	0.0	0.0	0.0	0.0	4.605	4.644	4.638	4.605	9.923367330932617	0.21906945190429686	0.08319850769042968	3.60870361328125	-3.978729248046875	-0.370025634765625	9.78629928588867	0.4375403533935547	0.24301146850585936	0.118255615234375	-4.985809326171875	-2.506256103515625	10.105326657104492	0.39444472351074217	-0.3597287994384765	3.475189208984375	-4.634857177734375	-2.105712890625	
195	0.78	0.0	0.0	0.0	0.0	4.605	4.647	4.65	4.587	9.840168823242188	-0.11013327636718749	-0.10474632263183593	2.23541259765625	-3.33404541015625	-1.140594482421875	9.945513696289062	-0.13766659545898435	-0.09217676391601562	0.30517578125	-4.802703857421875	-2.773284912109375	10.217255584716796	-0.15382745666503905	-0.55545478515625	3.757476806640625	-4.657745361328125	-2.29644775390625	
196	0.784	0.0	0.0	0.0	0.0	4.611	4.644	4.647	4.575	9.700108026123047	0.12449848632812499	0.10953472595214843	1.7852783203125	-3.032684326171875	-1.262664794921875	9.78031378173828	0.42975919799804685	0.24361001892089842	0.030517578125	-4.81414794921875	-2.34222412109375	10.089165795898436	0.43993455505371093	-0.3393780853271484	3.566741943359375	-4.932403564453125	-2.056121826171875	
197	0.788	0.0	0.0	0.0	0.0	4.605	4.641	4.647	4.59	9.841365924072266	-0.239420166015625	-0.10714052429199218	1.560211181640625	-2.7923583984375	-1.148223876953125	9.949104998779296	-0.23403321228027343	-0.09337386474609374	0.415802001953125	-5.092620849609375	-2.841949462890625	10.115502014160155	-0.22206220397949217	-0.39923312683105466	3.841400146484375	-5.077362060546875	-2.06756591796875	
198	0.792	0.0	0.0	0.0	0.0	4.605	4.644	4.644	4.593	9.690531219482422	0.07900865478515624	0.1292868896484375	1.50299072265625	-3.086090087890625	-1.491546630859375	9.783905084228515	0.4590881683349609	0.2765302917480469	0.77056884765625	-4.9591064453125	-3.021240234375	10.082581741333007	0.4632780212402344	-0.296881005859375	3.7841796875	-4.73785400390625	-2.105712890625	
199	0.796	0.0	0.0	0.0	0.0	4.605	4.647	4.647	4.602	9.839570272827148	-0.30346506042480464	-0.1227028350830078	0.743865966796875	-2.8228759765625	-1.361846923828125	9.941922393798828	-0.18315642700195311	-0.07781155395507812	0.537872314453125	-4.650115966796875	-2.89154052734375	10.098742602539062	-0.18614917907714842	-0.37289690856933594	3.48663330078125	-4.61578369140625	-1.91497802734375	
200	0.8	0.0	0.0	0.0	0.0	4.596	4.644	4.647	4.605	9.699509475708007	0.047285482788085934	0.12509703674316405	1.056671142578125	-2.277374267578125	-1.4801025390625	9.740809454345703	0.546476528930664	0.22266075439453123	0.74005126953125	-5.214691162109375	-2.96783447265625	10.095749850463866	0.41060558471679687	-0.28012159423828126	3.692626953125	-4.69207763671875	-2.437591552734375	
201	0.804	0.0	0.0	0.0	0.0	4.605	4.647	4.635	4.599	9.97244846496582	-0.08319850769042968	0.15023615417480468	1.041412353515625	-2.925872802734375	-0.888824462890625	9.968258612060547	-0.2555810272216797	-0.07242460021972656	0.61798095703125	-4.886627197265625	-2.918243408203125	10.126874472045898	-0.2645592834472656	-0.3489548919677734	3.692626953125	-4.57763671875	-2.269744873046875	
202	0.808	0.0	0.0	0.0	0.0	4.605	4.647	4.65	4.5840000000000005	9.719860189819336	0.06464344482421874	0.13587094421386717	0.766754150390625	-2.4871826171875	-1.453399658203125	9.724050042724608	0.5973533142089843	0.2519897247314453	0.6866455078125	-4.703521728515625	-2.655029296875	9.884461553955077	0.32142157287597656	-0.0796072052001953	3.70025634765625	-4.718780517578125	-2.552032470703125	
203	0.812	0.0	0.0	0.0	0.0	4.611	4.644	4.647	4.575	9.976638317871092	-0.010175357055664061	0.1867477294921875	1.750946044921875	-3.009796142578125	-0.60272216796875	9.796474642944336	0.025737667846679687	0.20769699401855468	0.362396240234375	-4.573822021484375	-2.685546875	10.111312161254883	-0.2693476867675781	-0.31962592163085934	3.681182861328125	-4.932403564453125	-1.949310302734375	
204	0.8160000000000001	0.0	0.0	0.0	0.0	4.6080000000000005	4.641	4.647	4.599	9.747393508911133	0.027533319091796873	0.1005564697265625	4.016876220703125	-4.291534423828125	-0.4425048828125	9.734225399780273	0.4961982940673828	0.2819172454833984	0.591278076171875	-4.82940673828125	-2.7618408203125	9.880870251464843	0.2136824981689453	-0.05386953735351562	3.536224365234375	-4.69207763671875	-2.471923828125	
205	0.8200000000000001	0.0	0.0	0.0	0.0	4.6080000000000005	4.647	4.647	4.602	9.989806427001952	-0.007781155395507812	0.20709844360351562	1.861572265625	-3.185272216796875	-0.667572021484375	9.805452899169921	-0.033518823242187495	0.23044190979003906	0.370025634765625	-4.90570068359375	-2.651214599609375	9.930549935913085	-0.08858546142578125	-0.0939724151611328	3.574371337890625	-4.47845458984375	-2.017974853515625	
206	0.8240000000000001	0.0	0.0	0.0	0.0	4.605	4.647	4.644	4.602	9.911994873046874	0.2693476867675781	0.11073182678222655	4.222869873046875	-3.993988037109375	-0.286102294921875	9.663596450805663	0.6434416961669921	0.29089550170898437	0.476837158203125	-4.764556884765625	-3.59344482421875	9.8694977935791	0.2885013000488281	-0.0526724365234375	3.9215087890625	-4.650115966796875	-2.368927001953125	
207	0.8280000000000001	0.0	0.0	0.0	0.0	4.593	4.644	4.644	4.6080000000000005	9.993996279907225	0.025139117431640625	0.24061726684570311	1.97601318359375	-3.35693359375	-0.331878662109375	9.791087689208984	-0.058657940673828124	0.26216508178710934	0.156402587890625	-4.680633544921875	-2.78472900390625	9.904812268066406	-0.08738836059570312	-0.07841010437011718	3.742218017578125	-4.7454833984375	-1.857757568359375	
208	0.8320000000000001	0.0	0.0	0.0	0.0	4.6080000000000005	4.647	4.647	4.596	9.920374578857421	0.1801636749267578	0.10414777221679687	4.566192626953125	-4.520416259765625	0.026702880859375	9.68454571533203	0.5787982513427734	0.29568390502929687	0.873565673828125	-4.8065185546875	-3.63922119140625	9.865906491088866	-0.09277531433105468	-0.11192892761230468	3.65447998046875	-4.20379638671875	-2.655029296875	
209	0.836	0.0	0.0	0.0	0.0	4.602	4.647	4.65	4.5840000000000005	9.9461122467041	0.34117373657226563	-0.05087678527832031	4.772186279296875	-4.7454833984375	-0.148773193359375	9.727641345214844	0.412401235961914	0.21009119567871093	0.408172607421875	-5.153656005859375	-2.353668212890625	9.923965881347655	-0.07900865478515624	-0.09516951599121093	3.631591796875	-4.70733642578125	-1.85394287109375	
210	0.84	0.0	0.0	0.0	0.0	4.611	4.644	4.647	4.578	9.925761532592773	0.17357962036132812	0.10115502014160156	4.79888916015625	-4.6539306640625	-0.041961669921875	9.67197615661621	0.5997475158691405	0.30346506042480464	0.823974609375	-4.711151123046875	-3.387451171875	9.840168823242188	-0.07481880187988281	-0.08439560852050781	3.787994384765625	-4.413604736328125	-2.590179443359375	
211	0.844	0.0	0.0	0.0	0.0	4.611	4.641	4.647	4.602	9.93294413757324	0.26276363220214843	-0.037110125732421874	4.78363037109375	-4.993438720703125	0.072479248046875	9.740210903930663	0.32561142578124996	0.23642741394042968	0.133514404296875	-5.039215087890625	-2.532958984375	9.97843396911621	-0.15741875915527342	-0.21308394775390624	3.74603271484375	-4.573822021484375	-1.834869384765625	
212	0.848	0.0	0.0	0.0	0.0	4.605	4.647	4.647	4.602	9.952696301269532	0.20829554443359374	0.052073886108398436	4.96673583984375	-4.909515380859375	-0.1068115234375	9.855731134033203	0.13287819213867186	0.15263035583496093	0.476837158203125	-4.90570068359375	-3.45611572265625	9.878476049804688	-0.014963760375976562	-0.17896657409667968	3.68499755859375	-4.306793212890625	-2.735137939453125	
213	0.852	0.0	0.0	0.0	0.0	4.605	4.647	4.644	4.599	9.9078050201416	0.23523031311035156	-0.051475335693359374	4.52423095703125	-4.6539306640625	-0.030517578125	9.697115274047851	0.3489548919677734	0.25737667846679685	0.019073486328125	-4.840850830078125	-2.254486083984375	9.853336932373047	0.31064766540527344	0.10654197387695312	3.688812255859375	-4.764556884765625	-1.47247314453125	
214	0.856	0.0	0.0	0.0	0.0	4.596	4.644	4.641	4.605	9.760561618041992	-0.14006079711914063	0.18914193115234373	3.879547119140625	-4.15802001953125	-0.591278076171875	9.835978970336914	0.06643909606933593	0.16041151123046873	-0.00762939453125	-4.894256591796875	-3.41796875	9.8449572265625	0.05327098693847656	-0.15322890625	3.742218017578125	-4.665374755859375	-2.75421142578125	
215	0.86	0.0	0.0	0.0	0.0	4.605	4.644	4.647	0.003	9.898228213500976	0.14963760375976562	-0.05985504150390625	4.459381103515625	-4.650115966796875	-0.244140625	9.83178911743164	0.3172317199707031	0.19812018737792966	0.06866455078125	-5.382537841796875	-2.38800048828125	9.868300692749022	0.35793314819335936	0.13347674255371092	3.59344482421875	-4.604339599609375	-1.834869384765625	
216	0.864	0.0	0.0	0.0	0.0	0.006	0.003	0.006	0.006	9.763554370117188	-0.1897404815673828	0.13168109130859373	3.231048583984375	-3.7841796875	-0.4730224609375	9.811438403320311	0.1304839904785156	0.16460136413574217	0.3662109375	-4.84466552734375	-3.368377685546875	10.277110626220702	-0.39743747558593745	-0.5740098480224609	4.009246826171875	-4.543304443359375	-2.490997314453125	
217	0.868	0.0	0.0	0.0	0.0	0.003	0.003	0.003	0.003	9.85692823486328	-0.3220201232910156	-0.0383072265625	-0.12969970703125	-2.15911865234375	-0.949859619140625	9.846154327392577	0.21727380065917967	0.13108254089355467	0.06866455078125	-5.062103271484375	-2.3345947265625	9.847351428222655	0.2454056701660156	0.11133037719726561	3.56292724609375	-4.6234130859375	-2.0751953125	
218	0.872	0.0	0.0	0.0	0.0	0.0	0.003	0.003	0.006	9.813832604980469	-0.15442600708007811	0.09277531433105468	2.628326416015625	-3.528594970703125	-0.583648681640625	9.795876092529296	0.22385785522460935	0.2693476867675781	0.690460205078125	-5.115509033203125	-3.07464599609375	10.28489178161621	-0.31543606872558594	-0.5686228942871093	3.66973876953125	-4.741668701171875	-3.009796142578125	
219	0.876	0.0	0.0	0.0	0.0	0.003	0.003	0.003	0.006	9.766547122192382	-0.06883329772949218	0.3495534423828125	1.651763916015625	-2.918243408203125	-0.804901123046875	9.853336932373047	0.2807201446533203	0.09756371765136718	0.05340576171875	-4.95147705078125	-2.2735595703125	10.135852728271484	0.20051438903808594	-0.2914940521240234	3.711700439453125	-4.711151123046875	-2.05230712890625	
220	0.88	0.0	0.0	0.0	0.0	0.006	0.006	0.003	0.003	9.853935482788085	0.032920272827148434	0.06464344482421874	3.658294677734375	-3.89862060546875	0.0457763671875	9.935936889648437	-0.26336218261718747	-0.030526071166992186	0.46539306640625	-4.833221435546875	-2.841949462890625	10.284293231201172	-0.32561142578124996	-0.6314706878662109	3.9520263671875	-4.8980712890625	-2.5482177734375	
221	0.884	0.0	0.0	0.0	0.0	0.003	0.003	0.003	0.006	9.725247143554688	0.06943184814453125	0.3716998077392578	2.3193359375	-3.4332275390625	-0.9307861328125	9.890447058105469	0.27892449340820313	0.015562310791015624	0.5035400390625	-4.787445068359375	-2.44903564453125	10.171167202758788	0.2442085693359375	-0.2998737579345703	3.753662109375	-4.878997802734375	-1.949310302734375	
222	0.888	0.0	0.0	0.0	0.0	0.006	0.003	0.006	0.006	9.929951385498047	-0.0909796630859375	-0.15023615417480468	0.347137451171875	-2.532958984375	-2.18963623046875	9.973645565795898	-0.2280477081298828	-0.1274912384033203	0.19073486328125	-4.848480224609375	-2.597808837890625	10.32319900817871	-0.48183308410644526	-0.6751648681640625	3.84521484375	-4.8065185546875	-1.888275146484375	
223	0.892	0.0	0.0	0.0	0.0	0.003	0.003	0.003	0.003	9.660603698730467	-0.09756371765136718	0.3489548919677734	1.010894775390625	-2.674102783203125	-1.47247314453125	9.685742816162108	0.5129577056884765	0.31543606872558594	0.499725341796875	-4.96673583984375	-2.5787353515625	10.159794744873047	0.1580173095703125	-0.4112041351318359	3.65447998046875	-4.73785400390625	-2.06756591796875	
224	0.896	0.0	0.0	0.0	0.0	0.006	0.003	0.003	0.003	9.905410818481444	-0.033518823242187495	-0.105344873046875	-0.911712646484375	-2.132415771484375	-2.147674560546875	9.964068759155273	-0.25737667846679685	-0.1849520782470703	0.522613525390625	-5.069732666015625	-2.6092529296875	10.168174450683592	-0.32022447204589843	-0.43574470214843747	3.570556640625	-4.64630126953125	-1.53350830078125	
225	0.9	0.0	0.0	0.0	0.0	0.009000000000000001	0.003	0.003	0.006	9.655216744995117	0.0053869537353515625	0.36691140441894526	1.64031982421875	-2.899169921875	-1.03759765625	9.664195001220703	0.489015689086914	0.2855085479736328	0.51116943359375	-4.695892333984375	-2.54058837890625	10.120290417480469	0.33578678283691404	-0.3585316986083984	3.551483154296875	-4.63104248046875	-1.995086669921875	
226	0.904	0.0	0.0	0.0	0.0	0.006	0.003	0.003	0.009000000000000001	9.894038360595703	0.105344873046875	-0.09157821350097656	0.1983642578125	-2.407073974609375	-1.93023681640625	9.8449572265625	-0.05626373901367187	0.10414777221679687	0.141143798828125	-4.924774169921875	-2.834320068359375	10.150816488647461	-0.13467384338378904	-0.43514615173339843	3.711700439453125	-4.69970703125	-1.800537109375	
227	0.908	0.0	0.0	0.0	0.0	0.003	0.003	0.003	0.006	9.968857162475585	0.1975216369628906	0.03411737365722656	1.739501953125	-2.902984619140625	-1.316070556640625	9.658808047485351	0.70868369140625	0.28730419921875	0.461578369140625	-4.9285888671875	-2.5177001953125	9.889249957275391	0.17477672119140625	-0.11671733093261719	3.452301025390625	-4.669189453125	-2.23541259765625	
228	0.912	0.0	0.0	0.0	0.0	0.009000000000000001	0.003	0.003	0.003	9.878476049804688	0.05087678527832031	-0.05566518859863281	-0.347137451171875	-2.246856689453125	-2.208709716796875	9.874884747314452	-0.09636661682128905	0.017357962036132813	0.400543212890625	-4.833221435546875	-3.08990478515625	10.13824692993164	-0.21308394775390624	-0.4477157104492187	3.467559814453125	-4.413604736328125	-1.941680908203125	
229	0.916	0.0	0.0	0.0	0.0	0.003	0.003	0.006	0.006	9.962273107910155	0.20290859069824219	-0.0047884033203125	0.67138671875	-2.437591552734375	-1.51824951171875	9.73602105102539	0.642244595336914	0.15562310791015624	0.61798095703125	-4.6234130859375	-3.12042236328125	9.892841259765625	0.25139117431640623	-0.14963760375976562	3.650665283203125	-4.467010498046875	-2.31170654296875	
230	0.92	0.0	0.0	0.0	0.0	0.006	0.003	0.003	0.003	9.889249957275391	0.18375497741699218	0.02693476867675781	3.841400146484375	-4.5623779296875	-0.026702880859375	9.85632968444824	0.0430956298828125	0.10175357055664062	0.244140625	-4.89044189453125	-3.139495849609375	9.918578927612304	0.03591302490234375	-0.27952304382324217	3.60870361328125	-4.535675048828125	-2.048492431640625	
231	0.924	0.0	0.0	0.0	0.0	0.003	0.006	0.003	0.006	9.996989031982421	0.2346317626953125	0.016759411621093748	1.384735107421875	-2.84576416015625	-1.5106201171875	9.751583361816406	0.5123591552734374	0.19213468322753904	0.652313232421875	-4.749298095703125	-3.025054931640625	9.916184725952148	0.16998831787109375	-0.16759411621093748	3.7841796875	-4.638671875	-2.38037109375	
232	0.928	0.0	0.0	0.0	0.0	0.003	0.003	0.003	0.006	10.056844073486328	0.3058592620849609	-0.047884033203124995	4.11224365234375	-4.2572021484375	0.05340576171875	9.73063409729004	0.07601590270996093	0.1927332336425781	-0.23651123046875	-4.596710205078125	-2.8076171875	9.94671079711914	0.105344873046875	-0.3022679595947265	3.4942626953125	-4.726409912109375	-1.987457275390625	
233	0.932	0.0	0.0	0.0	0.0	0.006	0.003	0.003	0.003	10.000580334472655	0.1370680450439453	0.01915361328125	0.762939453125	-2.529144287109375	-1.491546630859375	9.741408004760741	0.43035774841308594	0.22445640563964842	0.34332275390625	-4.627227783203125	-2.92205810546875	9.910199221801758	0.07541735229492187	-0.1406593475341797	3.72314453125	-4.37164306640625	-2.483367919921875	
234	0.936	0.0	0.0	0.0	0.0	0.003	0.003	0.006	0.006	10.071209283447265	0.48722003784179685	-0.06584054565429687	4.932403564453125	-4.749298095703125	0.28228759765625	9.719860189819336	0.09576806640624999	0.1897404815673828	0.209808349609375	-5.092620849609375	-2.735137939453125	9.942520944213866	0.14245499877929688	-0.30047230834960936	3.47900390625	-4.474639892578125	-1.888275146484375	
235	0.9400000000000001	0.0	0.0	0.0	0.0	0.006	0.003	0.003	0.003	9.981426721191406	0.10714052429199218	0.054468087768554684	6.000518798828125	-5.405426025390625	0.6103515625	9.751583361816406	0.2741360900878906	0.08259995727539061	0.2593994140625	-4.650115966796875	-2.841949462890625	9.85692823486328	-0.12629413757324218	-0.1657984649658203	3.719329833984375	-4.505157470703125	-2.410888671875	
236	0.9440000000000001	0.0	0.0	0.0	0.0	0.003	0.003	0.006	0.003	10.044274514770507	0.35613749694824215	-0.052073886108398436	5.83648681640625	-5.18035888671875	0.35858154296875	9.72285294189453	0.09217676391601562	0.19991583862304688	-0.087738037109375	-5.023956298828125	-2.849578857421875	9.941922393798828	0.15322890625	-0.30047230834960936	3.520965576171875	-4.9285888671875	-2.025604248046875	
237	0.9480000000000001	0.0	0.0	0.0	0.0	0.006	0.003	0.003	0.003	9.950302099609374	-0.044292730712890624	0.08259995727539061	5.397796630859375	-5.207061767578125	0.57220458984375	9.742605105590819	0.28730419921875	0.09995791931152344	0.20599365234375	-4.6844482421875	-3.047943115234375	9.847351428222655	-0.12808978881835936	-0.14903905334472656	3.665924072265625	-4.39453125	-2.47955322265625	
238	0.9520000000000001	0.0	0.0	0.0	0.0	0.006	0.003	0.003	0.003	10.033500607299803	0.33758243408203126	-0.06943184814453125	5.229949951171875	-5.001068115234375	0.614166259765625	9.795876092529296	0.1514332550048828	0.14125789794921875	0.48828125	-4.8828125	-2.47955322265625	9.883264453125	0.18614917907714842	0.010773907470703125	3.467559814453125	-4.75311279296875	-1.995086669921875	
239	0.9560000000000001	0.0	0.0	0.0	0.0	0.003	0.003	0.003	0.003	9.980229620361328	0.09038111267089843	0.06823474731445311	5.645751953125	-4.970550537109375	0.6256103515625	9.742605105590819	0.26695348510742184	0.12090718383789062	0.4425048828125	-4.66156005859375	-3.139495849609375	9.849745629882811	-0.1149216796875	-0.11671733093261719	3.7078857421875	-4.383087158203125	-2.3193359375	
240	0.96	0.0	0.0	0.0	0.0	0.006	0.003	0.006	0.006	9.830592016601562	-0.3315969299316406	0.12389993591308593	3.849029541015625	-4.222869873046875	-0.514984130859375	9.79946739501953	0.13766659545898435	0.14604630126953125	0.14495849609375	-4.955291748046875	-2.727508544921875	9.925162982177733	0.14125789794921875	0.006584054565429687	3.681182861328125	-4.711151123046875	-2.063751220703125	
241	0.964	0.0	0.0	0.0	0.0	0.006	0.003	0.006	0.003	9.955090502929687	-0.017956512451171875	0.061650692749023434	5.48553466796875	-4.9896240234375	0.736236572265625	9.74200655517578	0.2914940521240234	0.1227028350830078	0.69427490234375	-4.985809326171875	-2.719879150390625	10.230423693847655	-0.06464344482421874	-0.46806642456054687	3.92913818359375	-4.810333251953125	-2.12860107421875	
242	0.968	0.0	0.0	0.0	0.0	0.003	0.003	0.003	0.006	9.794678991699218	-0.36152445068359373	0.16519991455078123	3.116607666015625	-4.23431396484375	-0.72479248046875	9.785102185058593	0.14425065002441406	0.14963760375976562	0.087738037109375	-4.817962646484375	-2.376556396484375	9.94730934753418	0.12030863342285156	-0.052073886108398436	3.711700439453125	-4.833221435546875	-2.201080322265625	
243	0.972	0.0	0.0	0.0	0.0	0.003	0.003	0.006	0.003	9.926360083007811	-0.03950432739257812	0.04967968444824218	-0.354766845703125	-2.1209716796875	-2.17437744140625	9.913790524291992	0.2507926239013672	0.010175357055664061	0.583648681640625	-4.7149658203125	-2.666473388671875	10.216058483886718	-0.055066638183593745	-0.41958384094238277	3.871917724609375	-4.543304443359375	-2.1820068359375	
244	0.976	0.0	0.0	0.0	0.0	0.006	0.003	0.003	0.003	9.776123928833007	-0.40880993347167965	0.1849520782470703	2.872467041015625	-3.887176513671875	-1.232147216796875	9.79946739501953	0.1562216583251953	0.11851298217773437	0.16021728515625	-4.96673583984375	-2.67791748046875	9.969455712890625	0.08200140686035155	-0.12449848632812499	3.757476806640625	-4.5928955078125	-2.01416015625	
245	0.98	0.0	0.0	0.0	0.0	0.003	0.003	0.003	0.006	9.77432827758789	-0.23822306518554687	-0.03531447448730469	-1.071929931640625	-1.5716552734375	-2.300262451171875	9.932345587158203	0.22266075439453123	-0.03232172241210937	0.637054443359375	-4.856109619140625	-2.613067626953125	10.256759912109374	-0.022744915771484374	-0.44053310546874996	3.795623779296875	-4.34112548828125	-2.124786376953125	
246	0.984	0.0	0.0	0.0	0.0	0.003	0.003	0.003	0.006	9.76235726928711	-0.5482721801757812	0.19991583862304688	1.781463623046875	-3.314971923828125	-1.262664794921875	9.782109432983399	0.3268085266113281	0.36750995483398435	0.46539306640625	-4.810333251953125	-2.86102294921875	10.083180291748047	0.044891281127929686	-0.020350714111328123	3.566741943359375	-4.7149658203125	-2.22015380859375	
247	0.988	0.0	0.0	0.0	0.0	0.006	0.006	0.003	0.003	9.789890588378906	-0.21727380065917967	0.00239420166015625	-1.3885498046875	-1.331329345703125	-2.471923828125	9.917381826782226	0.18854338073730467	-0.00718260498046875	0.79345703125	-5.035400390625	-2.719879150390625	10.232817895507813	-0.0017956512451171875	-0.47105917663574215	3.787994384765625	-4.550933837890625	-2.03704833984375	
248	0.992	0.0	0.0	0.0	0.0	0.006	0.003	0.006	0.003	9.647435589599608	0.30526071166992186	0.5243301635742187	0.0457763671875	-2.26593017578125	-2.044677734375	9.810241302490233	0.3573345977783203	0.3651157531738281	0.396728515625	-4.67681884765625	-2.635955810546875	10.117896215820313	0.037708676147460936	-0.0383072265625	3.742218017578125	-4.5623779296875	-2.079010009765625	
249	0.996	0.0	0.0	0.0	0.0	0.003	0.003	0.006	0.003	9.78689783630371	-0.181959326171875	0.034715924072265626	-1.3580322265625	-1.354217529296875	-2.52532958984375	9.866505041503906	0.14305354919433594	0.23343466186523437	0.22125244140625	-4.665374755859375	-2.899169921875	10.177751257324218	-0.031124621582031248	-0.38187516479492184	3.627777099609375	-4.8980712890625	-2.22015380859375	
250	1.0	0.0	0.0	0.0	0.0	0.006	0.003	0.003	0.006	9.670180505371093	0.411802685546875	0.5255272644042969	0.034332275390625	-2.15911865234375	-2.0904541015625	9.788094937133788	0.4010287780761719	0.33039982910156246	0.49591064453125	-5.100250244140625	-2.899169921875	10.083180291748047	0.034715924072265626	-0.04548983154296875	3.627777099609375	-4.67681884765625	-2.208709716796875	
251	1.004	0.0	0.0	0.0	0.0	0.003	0.006	0.003	0.003	9.807847100830077	-0.20470424194335937	0.09516951599121093	-1.613616943359375	-1.46484375	-2.498626708984375	9.892841259765625	0.12629413757324218	0.17417817077636719	0.766754150390625	-4.985809326171875	-2.98309326171875	10.180744009399413	-0.06883329772949218	-0.41898529052734373	3.692626953125	-4.932403564453125	-2.31170654296875	
252	1.008	0.0	0.0	0.0	0.0	0.003	0.006	0.006	0.003	9.749787710571288	0.5153519073486328	0.4542997650146484	0.244140625	-2.315521240234375	-1.590728759765625	9.762955819702148	0.4327519500732422	0.30466216125488277	0.400543212890625	-4.779815673828125	-3.387451171875	9.897629663085937	0.12330138549804687	0.058657940673828124	3.65447998046875	-4.581451416015625	-1.964569091796875	
253	1.012	0.0	0.0	0.0	0.0	0.006	0.003	0.003	0.006	10.129268673706054	0.48722003784179685	-0.017357962036132813	3.559112548828125	-4.0130615234375	-0.286102294921875	9.858723886108399	0.11731588134765625	0.18315642700195311	0.339508056640625	-5.035400390625	-3.1890869140625	10.16338604736328	-0.1149216796875	-0.4375403533935547	3.76129150390625	-4.8828125	-2.208709716796875	
254	1.016	0.0	0.0	0.0	0.0	0.003	0.006	0.003	0.006	9.801861596679688	0.6081272216796875	0.4207809417724609	1.4801025390625	-2.70843505859375	-1.407623291015625	9.713276135253906	0.48123453369140623	0.34057518615722654	0.331878662109375	-4.718780517578125	-2.811431884765625	9.82520506286621	0.16041151123046873	0.061650692749023434	3.757476806640625	-4.642486572265625	-2.1209716796875	
255	1.02	0.0	0.0	0.0	0.0	0.0	0.006	0.006	0.006	10.155006341552733	0.48123453369140623	-0.08439560852050781	4.38690185546875	-4.6539306640625	-0.00762939453125	9.777919580078125	0.020350714111328123	0.24121581726074218	-0.0762939453125	-5.138397216796875	-2.704620361328125	10.257957012939453	-0.08020575561523437	-0.5829881042480468	3.734588623046875	-4.5623779296875	-2.262115478515625	
256	1.024	0.0	0.0	0.0	0.0	0.006	0.003	0.003	0.009000000000000001	9.879074600219726	0.507570751953125	0.30705636291503907	6.21795654296875	-5.33294677734375	1.079559326171875	9.749787710571288	0.3896563201904297	0.32501287536621093	0.095367431640625	-4.688262939453125	-3.017425537109375	9.896432562255859	0.15023615417480468	-0.028730419921875	3.570556640625	-4.711151123046875	-2.185821533203125	
257	1.028	0.0	0.0	0.0	0.0	0.003	0.006	0.003	0.006	10.10053825378418	0.5871779571533203	-0.15322890625	5.435943603515625	-5.035400390625	0.46539306640625	9.707290631103515	0.0939724151611328	0.20051438903808594	-0.125885009765625	-5.016326904296875	-2.803802490234375	9.785700735473633	-0.08200140686035155	-0.24001871643066405	3.60107421875	-4.848480224609375	-2.079010009765625	
258	1.032	0.0	0.0	0.0	0.0	0.006	0.003	0.006	0.003	9.904812268066406	-0.0909796630859375	-0.105344873046875	6.351470947265625	-5.588531494140625	1.04522705078125	9.718064538574218	0.2424129180908203	0.012569558715820313	0.202178955078125	-5.04302978515625	-2.696990966796875	9.882067352294921	0.17956512451171874	-0.033518823242187495	3.780364990234375	-4.669189453125	-1.987457275390625	
259	1.036	0.0	0.0	0.0	0.0	0.009000000000000001	0.006	0.003	0.003	10.122684619140625	0.45010991210937495	-0.2609679809570312	6.526947021484375	-5.5999755859375	0.843048095703125	9.785102185058593	0.09157821350097656	0.13587094421386717	-0.31280517578125	-4.573822021484375	-2.81524658203125	9.878476049804688	-0.17357962036132812	-0.2262520568847656	3.513336181640625	-4.730224609375	-2.056121826171875	
260	1.04	0.0	0.0	0.0	0.0	0.003	0.006	0.003	0.003	9.777919580078125	-0.008978256225585938	-0.0652419952392578	5.86700439453125	-5.43975830078125	0.48065185546875	9.72285294189453	0.16340426330566404	-0.0718260498046875	0.110626220703125	-4.76837158203125	-2.90679931640625	9.86411083984375	0.1352723937988281	-0.2759317413330078	3.818511962890625	-4.40216064453125	-2.391815185546875	
261	1.044	0.0	0.0	0.0	0.0	0.003	0.003	0.003	0.006	9.654618194580078	-1.0462661254882812	-0.04548983154296875	-0.29754638671875	-2.3651123046875	-1.3885498046875	9.746196408081055	0.16160861206054686	0.10594342346191406	0.400543212890625	-4.856109619140625	-2.685546875	9.784503634643555	-0.044891281127929686	-0.2962824554443359	4.0130615234375	-4.9591064453125	-2.223968505859375	
262	1.048	0.0	0.0	0.0	0.0	0.003	0.006	0.003	0.009000000000000001	9.753977563476562	-0.32501287536621093	0.009576806640625	3.314971923828125	-4.20379638671875	0.05340576171875	9.770736975097655	0.13946224670410157	0.00239420166015625	-0.152587890625	-4.94384765625	-3.01361083984375	9.949104998779296	0.06584054565429687	-0.22505495605468748	3.765106201171875	-4.344940185546875	-2.170562744140625	
263	1.052	0.0	0.0	0.0	0.0	0.009000000000000001	0.003	0.006	0.006	9.74200655517578	-0.6183025787353515	0.022146365356445312	-0.3509521484375	-2.445220947265625	-2.29644775390625	9.75517466430664	0.09935936889648436	0.008379705810546874	0.598907470703125	-5.126953125	-2.9296875	10.022128149414062	-0.12389993591308593	-0.11372457885742186	3.559112548828125	-4.7149658203125	-2.010345458984375	
264	1.056	0.0	0.0	0.0	0.0	0.003	0.006	0.006	0.006	9.683348614501952	-0.6039373687744141	0.055066638183593745	2.15911865234375	-3.3721923828125	-0.476837158203125	9.636661682128906	0.36930560607910157	0.013766659545898436	0.3509521484375	-4.9285888671875	-2.712249755859375	9.809044201660155	0.21487959899902342	-0.22864625854492185	3.92913818359375	-4.41741943359375	-2.1209716796875	
265	1.06	0.0	0.0	0.0	0.0	0.003	0.006	0.003	0.006	9.727042794799804	-0.2232593048095703	0.08439560852050781	-0.6103515625	-2.05230712890625	-1.9683837890625	9.739612353515625	0.017357962036132813	0.06404489440917968	0.514984130859375	-4.8828125	-2.86102294921875	9.96586441040039	-0.0652419952392578	0.013766659545898436	3.83758544921875	-4.67681884765625	-1.85394287109375	
266	1.064	0.0	0.0	0.0	0.0	0.003	0.003	0.003	0.003	9.897629663085937	-0.06344634399414062	0.05087678527832031	0.286102294921875	-2.2125244140625	-2.323150634765625	9.898228213500976	0.3286041778564453	0.1484405029296875	1.209259033203125	-5.01251220703125	-3.0975341796875	10.06163247680664	-0.12389993591308593	-0.5003881469726562	3.887176513671875	-4.486083984375	-2.3040771484375	
267	1.068	0.0	0.0	0.0	0.0	0.003	0.006	0.003	0.003	9.756371765136718	-0.5662286926269531	0.05686228942871093	-2.223968505859375	-1.57928466796875	-3.0364990234375	9.639055883789062	0.14604630126953125	0.13946224670410157	0.7781982421875	-4.852294921875	-3.025054931640625	9.86291373901367	0.055066638183593745	0.011971008300781249	3.528594970703125	-4.650115966796875	-1.861572265625	
268	1.072	0.0	0.0	0.0	0.0	0.006	0.003	0.003	0.003	9.937732540893554	0.5021837982177734	0.08379705810546874	0.23651123046875	-1.903533935546875	-1.377105712890625	9.78689783630371	0.40222587890625	0.25737667846679685	1.132965087890625	-4.749298095703125	-2.83050537109375	10.227430941772461	-0.029927520751953124	-0.5183446594238281	3.7384033203125	-4.673004150390625	-2.086639404296875	
269	1.076	0.0	0.0	0.0	0.0	0.003	0.003	0.006	0.006	9.907206469726562	0.10414777221679687	0.10654197387695312	6.282806396484375	-5.13458251953125	0.51116943359375	9.859322436523437	-0.008379705810546874	0.4584896179199218	0.20599365234375	-4.8828125	-2.83050537109375	10.040084661865233	-0.10235212097167969	0.052073886108398436	3.6163330078125	-4.69207763671875	-1.834869384765625	
270	1.08	0.0	0.0	0.0	0.0	0.006	0.003	0.006	0.003	10.03050785522461	0.2819172454833984	0.004189852905273437	2.956390380859375	-3.482818603515625	-1.15966796875	9.814431155395507	0.3459621398925781	0.17477672119140625	0.61798095703125	-4.57763671875	-2.78472900390625	10.273519323730468	-0.07302315063476562	-0.6602011077880859	3.749847412109375	-4.45556640625	-2.26593017578125	
271	1.084	0.0	0.0	0.0	0.0	0.003	0.003	0.003	0.0	9.90122096557617	0.6889315277099609	0.3489548919677734	5.985260009765625	-5.184173583984375	1.3275146484375	9.712079034423828	0.1945288848876953	0.479438882446289	-0.0762939453125	-4.67681884765625	-2.742767333984375	10.041281762695311	0.2855085479736328	-0.27832594299316404	3.620147705078125	-4.53948974609375	-1.96075439453125	
272	1.088	0.0	0.0	0.0	0.0	0.003	0.003	0.003	0.003	10.101136804199218	0.6955155822753906	-0.06943184814453125	4.4403076171875	-4.398345947265625	0.217437744140625	9.975441217041014	0.30885201416015623	-0.12030863342285156	0.3509521484375	-5.157470703125	-2.216339111328125	10.396820709228516	-0.17118541870117188	-0.6925228302001952	3.734588623046875	-4.611968994140625	-2.170562744140625	
273	1.092	0.0	0.0	0.0	0.0	0.003	0.006	0.003	0.003	9.81862100830078	0.40880993347167965	0.3172317199707031	7.57598876953125	-6.099700927734375	0.52642822265625	9.861716638183593	0.19931728820800781	0.28012159423828126	-0.087738037109375	-5.023956298828125	-2.712249755859375	10.216657034301758	0.15682020874023436	-0.33578678283691404	3.734588623046875	-4.802703857421875	-2.071380615234375	
274	1.096	0.0	0.0	0.0	0.0	0.003	0.003	0.003	0.006	9.809642752075195	-0.4261678955078125	-0.017357962036132813	-0.02288818359375	-2.285003662109375	-1.53350830078125	9.81862100830078	0.3603273498535156	0.008379705810546874	0.37384033203125	-4.871368408203125	-2.67791748046875	9.950302099609374	-0.03651157531738281	-0.3651157531738281	3.620147705078125	-4.5318603515625	-2.1209716796875	
275	1.1	0.0	0.0	0.0	0.0	0.003	0.006	0.003	0.006	9.701305126953125	0.10893617553710937	0.47105917663574215	3.37982177734375	-4.009246826171875	0.034332275390625	9.704896429443359	0.36391865234375	0.258573779296875	0.003814697265625	-4.7760009765625	-2.83050537109375	10.168773001098632	0.22266075439453123	-0.3082534637451172	3.559112548828125	-4.741668701171875	-2.002716064453125	
276	1.104	0.0	0.0	0.0	0.0	0.006	0.003	0.003	0.003	9.89523546142578	0.43933600463867184	0.044891281127929686	1.44195556640625	-2.727508544921875	-1.77764892578125	9.989207876586914	0.2747346405029297	-0.09756371765136718	0.79345703125	-4.852294921875	-2.735137939453125	10.190919366455077	-0.1484405029296875	-0.4207809417724609	3.826141357421875	-4.703521728515625	-2.079010009765625	
277	1.108	0.0	0.0	0.0	0.0	0.006	0.003	0.003	0.003	9.62109937133789	0.7272387542724609	0.5009866973876953	5.199432373046875	-4.734039306640625	-0.621795654296875	9.654618194580078	0.354940396118164	0.3441664886474609	-0.026702880859375	-4.833221435546875	-2.925872802734375	9.916184725952148	0.11073182678222655	-0.15562310791015624	3.459930419921875	-4.695892333984375	-2.498626708984375	
278	1.112	0.0	0.0	0.0	0.0	0.003	0.006	0.003	0.006	9.788693487548828	-0.4465186096191406	0.2507926239013672	-1.617431640625	-1.247406005859375	-2.155303955078125	9.767145672607422	0.28490999755859375	0.058657940673828124	0.03814697265625	-4.871368408203125	-3.017425537109375	10.013748443603514	0.005985504150390624	-0.3842693664550781	3.56292724609375	-4.894256591796875	-2.00653076171875	
279	1.116	0.0	0.0	0.0	0.0	0.0	0.003	0.003	0.003	10.111910711669921	0.11851298217773437	-0.11073182678222655	0.52642822265625	-2.719879150390625	-0.86212158203125	9.76235726928711	0.15502455749511718	0.33578678283691404	-0.6103515625	-4.810333251953125	-2.788543701171875	9.941323843383788	-0.013766659545898436	-0.025737667846679687	3.7384033203125	-4.63104248046875	-2.22015380859375	
280	1.12	0.0	0.0	0.0	0.0	0.006	0.003	0.003	0.003	10.114903463745117	0.7104793426513671	-0.005985504150390624	0.606536865234375	-2.43377685546875	-1.056671142578125	9.879673150634765	0.21787235107421873	-0.059256491088867186	0.1983642578125	-4.871368408203125	-2.689361572265625	10.117896215820313	-0.030526071166992186	-0.5446808776855468	3.665924072265625	-4.78363037109375	-2.201080322265625	
281	1.124	0.0	0.0	0.0	0.0	0.006	0.003	0.003	0.003	9.938929641723632	0.40761283264160153	0.017357962036132813	5.741119384765625	-5.107879638671875	-0.537872314453125	9.602544308471678	0.2753331909179687	0.4836287353515625	0.2288818359375	-4.405975341796875	-2.765655517578125	9.789890588378906	0.10594342346191406	-0.06404489440917968	3.70025634765625	-4.726409912109375	-2.28118896484375	
282	1.1280000000000001	0.0	0.0	0.0	0.0	0.0	0.003	0.006	0.003	9.891644158935547	0.24061726684570311	0.1945288848876953	1.312255859375	-3.078460693359375	-0.629425048828125	9.847351428222655	0.30346506042480464	0.040701428222656245	0.29754638671875	-4.940032958984375	-2.98309326171875	9.916184725952148	0.1322796417236328	-0.12808978881835936	3.7841796875	-4.94384765625	-1.93023681640625	
283	1.1320000000000001	0.0	0.0	0.0	0.0	0.003	0.003	0.006	0.006	9.90122096557617	-0.6949170318603515	0.044292730712890624	0.759124755859375	-2.460479736328125	-1.129150390625	9.776123928833007	0.13287819213867186	0.21068974609375	0.23651123046875	-4.75311279296875	-2.948760986328125	10.002974536132811	-0.06284779357910156	-0.16639701538085935	3.475189208984375	-4.673004150390625	-2.31170654296875	
284	1.1360000000000001	0.0	0.0	0.0	0.0	0.003	0.003	0.003	0.003	10.025719451904296	0.517746109008789	-0.13168109130859373	2.29644775390625	-3.330230712890625	-0.20599365234375	9.776722479248047	0.37708676147460934	0.07541735229492187	0.78582763671875	-4.81414794921875	-2.986907958984375	9.846154327392577	0.16998831787109375	-0.20709844360351562	3.650665283203125	-4.730224609375	-2.23541259765625	
285	1.1400000000000001	0.0	0.0	0.0	0.0	0.003	0.006	0.003	0.003	10.017938296508788	0.6344634399414062	0.02154781494140625	3.9215087890625	-4.344940185546875	-0.20599365234375	9.62109937133789	0.20171148986816406	0.3441664886474609	0.164031982421875	-4.547119140625	-2.90679931640625	9.750386260986328	-0.025737667846679687	0.04249707946777344	3.68499755859375	-4.589080810546875	-2.32696533203125	
286	1.1440000000000001	0.0	0.0	0.0	0.0	0.003	0.006	0.006	0.0	10.011952792358398	0.2442085693359375	-0.1131260284423828	6.771087646484375	-5.794525146484375	0.2593994140625	9.81263550415039	0.1370680450439453	0.04908113403320312	0.5035400390625	-5.18798828125	-2.742767333984375	10.029310754394531	0.0909796630859375	-0.22505495605468748	3.76129150390625	-4.917144775390625	-2.227783203125	
287	1.1480000000000001	0.0	0.0	0.0	0.0	0.0	0.006	0.003	0.006	9.817423907470703	-0.5506663818359374	0.10594342346191406	2.62451171875	-3.696441650390625	-0.637054443359375	9.655815295410155	0.2651578338623047	0.2753331909179687	0.141143798828125	-4.619598388671875	-3.204345703125	9.900023864746093	-0.10654197387695312	-0.06045359191894531	3.80706787109375	-4.34112548828125	-2.407073974609375	
288	1.1520000000000001	0.0	0.0	0.0	0.0	-0.003	0.003	0.003	0.003	9.746794958496093	-0.07003039855957031	0.10953472595214843	2.384185791015625	-3.91387939453125	-0.48828125	9.672574707031249	0.22445640563964842	0.07781155395507812	0.34332275390625	-5.092620849609375	-2.74658203125	9.804255798339844	0.22086510314941404	0.14425065002441406	3.490447998046875	-4.512786865234375	-2.12860107421875	
289	1.156	0.0	0.0	0.0	0.0	0.003	0.003	0.006	0.003	9.878476049804688	-0.21487959899902342	0.04908113403320312	1.705169677734375	-2.956390380859375	-1.10626220703125	9.886855755615233	0.28730419921875	0.12808978881835936	0.29754638671875	-4.756927490234375	-2.72369384765625	9.93354268798828	-0.10175357055664062	-0.062249243164062495	3.810882568359375	-4.46319580078125	-2.063751220703125	
290	1.16	0.0	0.0	0.0	0.0	0.003	0.003	0.003	0.006	9.965265859985351	-0.010773907470703125	-0.12389993591308593	2.330780029296875	-3.528594970703125	-0.823974609375	9.827599264526366	0.14903905334472656	-0.05027823486328125	0.553131103515625	-5.21087646484375	-3.08990478515625	10.062829577636718	0.05626373901367187	-0.018555062866210937	3.63922119140625	-4.69207763671875	-2.132415771484375	
291	1.164	0.0	0.0	0.0	0.0	0.003	0.006	0.006	0.003	9.964667309570311	-0.25258827514648435	-0.06823474731445311	3.13568115234375	-3.84521484375	-0.3814697265625	9.775525378417969	0.31184476623535157	0.12150573425292968	0.209808349609375	-4.6539306640625	-2.880096435546875	9.745597857666015	-0.020949264526367185	-0.0718260498046875	3.7841796875	-4.558563232421875	-2.105712890625	
292	1.168	0.0	0.0	0.0	0.0	0.003	0.003	0.003	0.006	9.859322436523437	0.023942016601562498	0.34656069030761716	3.96728515625	-4.352569580078125	0.30517578125	9.776722479248047	0.1867477294921875	0.4004302276611328	0.00762939453125	-5.36346435546875	-2.574920654296875	9.900622415161132	0.16041151123046873	0.029927520751953124	3.76129150390625	-4.9591064453125	-1.76239013671875	
293	1.172	0.0	0.0	0.0	0.0	0.012	0.003	0.006	0.003	10.005967288208007	-0.18375497741699218	-0.18435352783203124	5.19561767578125	-4.878997802734375	0.3662109375	9.911396322631836	0.1580173095703125	0.04967968444824218	0.476837158203125	-4.673004150390625	-2.857208251953125	10.325593209838866	-0.14604630126953125	-0.39923312683105466	3.864288330078125	-4.497528076171875	-2.02178955078125	
294	1.176	0.0	0.0	0.0	0.0	0.006	0.003	4.632	4.596	9.735422500610351	0.11073182678222655	0.47165772705078124	4.26483154296875	-4.241943359375	-0.614166259765625	9.818022457885741	0.1640028137207031	0.33578678283691404	0.278472900390625	-5.207061767578125	-2.727508544921875	9.929352835083007	0.15203180541992187	-0.020949264526367185	3.749847412109375	-4.871368408203125	-2.193450927734375	
295	1.18	0.0	0.0	0.0	0.0	4.596	4.644	4.641	4.605	9.75517466430664	-0.1514332550048828	-0.0017956512451171875	-1.239776611328125	-1.384735107421875	-0.858306884765625	9.882067352294921	0.44113165588378905	-0.06883329772949218	0.736236572265625	-4.558563232421875	-2.5634765625	10.150217938232421	-0.008379705810546874	-0.3333925811767578	3.665924072265625	-4.566192626953125	-1.804351806640625	
296	1.184	0.0	0.0	0.0	0.0	4.59	4.644	4.638	4.605	9.721655841064452	-0.10414777221679687	0.3968389251708984	1.567840576171875	-2.780914306640625	-1.220703125	9.9078050201416	0.1897404815673828	0.24480711975097655	0.156402587890625	-5.02777099609375	-2.567291259765625	10.137648379516602	0.05985504150390625	-0.1945288848876953	3.631591796875	-4.528045654296875	-2.12860107421875	
297	1.188	0.0	0.0	0.0	0.0	4.605	4.644	4.647	4.587	9.90241806640625	0.16819266662597654	0.02633621826171875	-1.09100341796875	-1.415252685546875	-2.22015380859375	9.99160207824707	0.26815058593749996	-0.13168109130859373	1.079559326171875	-4.901885986328125	-3.124237060546875	10.296264239501953	-0.1322796417236328	-0.4800374328613281	3.7078857421875	-4.53948974609375	-1.89971923828125	
298	1.192	0.0	0.0	0.0	0.0	4.6080000000000005	4.644	4.65	4.578	9.710881933593749	0.26695348510742184	0.43634325256347656	1.71661376953125	-3.002166748046875	-1.262664794921875	9.575609539794922	0.4542997650146484	0.4291606475830078	-0.2899169921875	-5.0048828125	-2.76947021484375	9.999383233642577	0.14963760375976562	-0.19692308654785154	3.53240966796875	-4.7454833984375	-2.1209716796875	
299	1.196	0.0	0.0	0.0	0.0	4.6080000000000005	4.641	4.647	4.5840000000000005	9.860519537353515	0.016759411621093748	0.1292868896484375	-0.762939453125	-1.697540283203125	-2.017974853515625	9.984419473266602	0.2346317626953125	-0.1149216796875	1.026153564453125	-4.90570068359375	-2.872467041015625	10.095151300048828	0.08200140686035155	-0.4082113830566406	3.711700439453125	-4.833221435546875	-1.8463134765625	
300	1.2	0.0	0.0	0.0	0.0	4.605	4.635	4.647	4.596	9.883264453125	0.028730419921875	0.0005985504150390625	1.27410888671875	-3.1585693359375	-1.155853271484375	9.727042794799804	0.3393780853271484	0.32142157287597656	0.003814697265625	-4.688262939453125	-2.735137939453125	10.184933862304687	-0.03531447448730469	-0.30466216125488277	3.6773681640625	-4.619598388671875	-2.22015380859375	
301	1.204	0.0	0.0	0.0	0.0	4.605	4.647	4.644	4.605	9.935936889648437	0.011372457885742187	-0.058657940673828124	-0.988006591796875	-1.506805419921875	-2.06756591796875	9.896432562255859	0.2705447875976562	-0.06823474731445311	0.43487548828125	-4.688262939453125	-2.964019775390625	10.06821653137207	0.12090718383789062	-0.40880993347167965	3.803253173828125	-4.57000732421875	-2.0294189453125	
302	1.208	0.0	0.0	0.0	0.0	4.599	4.644	4.647	4.605	9.810241302490233	0.12389993591308593	0.040701428222656245	1.983642578125	-3.063201904296875	-0.972747802734375	9.606135610961914	0.4147954376220703	0.3950432739257812	0.1373291015625	-5.0048828125	-2.43377685546875	10.04906291809082	0.06464344482421874	-0.2537853759765625	3.414154052734375	-4.627227783203125	-2.28118896484375	
303	1.212	0.0	0.0	0.0	0.0	4.593	4.647	4.638	4.605	10.035296258544921	-0.0652419952392578	-0.19393033447265623	0.186920166015625	-2.2125244140625	-1.834869384765625	10.001777435302733	0.03531447448730469	-0.11252747802734374	0.484466552734375	-4.7454833984375	-2.979278564453125	10.205284576416014	0.03950432739257812	-0.4213794921875	3.814697265625	-4.688262939453125	-2.094268798828125	
304	1.216	0.0	0.0	0.0	0.0	4.605	4.644	4.647	4.587	9.822212310791015	0.0	0.031124621582031248	2.178192138671875	-3.139495849609375	-1.07574462890625	9.685742816162108	0.3286041778564453	0.22864625854492185	0.22125244140625	-5.5999755859375	-2.529144287109375	9.840767373657226	-0.17836802368164062	-0.10414777221679687	3.662109375	-4.482269287109375	-2.323150634765625	
