	time	dac1	dac2	dac3	dac4	adc1.3	adc2.3	adc3.3	adc4.3	imu1accx	imu1accy	imu1accz	imu1gyrox	imu1gyroy	imu1gyroz	imu2accx	imu2accy	imu2accz	imu2gyrox	imu2gyroy	imu2gyroz	imu3accx	imu3accy	imu3accz	imu3gyrox	imu3gyroy	imu3gyroz	log
0	0.0	0.0	0.0	0.0	0.0	0.003	0.003	0.006	0.006	9.861716638183593	-0.008379705810546874	0.08379705810546874	2.3651123046875	-3.856658935546875	-0.86212158203125	9.781510882568359	0.16759411621093748	0.1975216369628906	0.423431396484375	-5.008697509765625	-2.84576416015625	9.996989031982421	-0.04548983154296875	-0.16340426330566404	3.8604736328125	-4.5166015625	-2.3193359375	Estabilizou em 12s, 2377 rpm
1	0.004	0.0	0.0	0.0	0.0	0.006	0.006	0.003	0.003	9.843760125732421	-0.016160861206054686	0.08200140686035155	2.838134765625	-3.597259521484375	-0.762939453125	9.757568865966796	0.18614917907714842	0.1975216369628906	0.08392333984375	-4.69970703125	-2.8076171875	9.98501802368164	-0.030526071166992186	-0.15741875915527342	3.711700439453125	-4.730224609375	-2.26593017578125	Started
2	0.008	0.0	0.0	0.0	0.0	0.009000000000000001	0.003	0.003	0.003	9.866505041503906	-0.011971008300781249	0.052073886108398436	2.628326416015625	-3.589630126953125	-0.820159912109375	9.78031378173828	0.17238251953125	0.1592144104003906	0.316619873046875	-4.669189453125	-2.78472900390625	10.002974536132811	-0.037708676147460936	-0.19033903198242186	3.86810302734375	-4.650115966796875	-2.101898193359375	IMU1|LSM6DS3|0x6A|I2C-1|±2g (±19,6m/s²)|±125º/s|400Hz
3	0.012	0.0	0.0	0.0	0.0	0.003	0.003	0.003	0.006	9.90122096557617	-0.009576806640625	0.03172317199707031	2.73895263671875	-3.452301025390625	-0.823974609375	9.807847100830077	0.20231004028320312	0.15203180541992187	0.1678466796875	-4.75311279296875	-2.7313232421875	10.022726699829102	-0.01915361328125	-0.20530279235839843	3.6773681640625	-4.436492919921875	-2.197265625	IMU2|LSM6DS3|0x6B|I2C-1|±2g (±19,6m/s²)|±125º/s|400Hz
4	0.016	0.0	0.0	0.0	0.0	0.003	0.003	0.006	0.006	9.894038360595703	-0.001197100830078125	0.02154781494140625	2.47955322265625	-3.414154052734375	-0.823974609375	9.80724855041504	0.20051438903808594	0.14484920043945312	0.423431396484375	-4.99725341796875	-2.7923583984375	10.029310754394531	0.006584054565429687	-0.20231004028320312	3.80706787109375	-4.5928955078125	-2.166748046875	IMU3|LSM6DS3|0x6B|I2C-2|±2g (±19,6m/s²)|±125º/s|400Hz
5	0.02	0.0	0.0	0.0	0.0	0.006	0.003	0.003	0.006	9.889249957275391	0.01975216369628906	0.020350714111328123	2.643585205078125	-3.566741943359375	-0.736236572265625	9.791686239624022	0.2041056915283203	0.13168109130859373	0.38909912109375	-4.7607421875	-2.8076171875	10.000580334472655	-0.003591302490234375	-0.239420166015625	3.72314453125	-4.558563232421875	-2.208709716796875	ADC|ADS1015|0|0|1|0|±6,144 V|2400 SPS
6	0.024	0.0	0.0	0.0	0.0	0.003	0.003	0.006	0.003	9.886257205200195	0.040102877807617184	0.017956512451171875	2.841949462890625	-3.818511962890625	-0.8392333984375	9.782707983398437	0.23104046020507812	0.12210428466796874	0.3662109375	-4.90570068359375	-2.8228759765625	9.983222372436522	0.03172317199707031	-0.258573779296875	3.6163330078125	-4.638671875	-2.410888671875	Gen1|Disabled
7	0.028	0.0	0.0	0.0	0.0	0.006	0.003	0.003	0.003	9.881468801879882	0.06823474731445311	0.01915361328125	2.7618408203125	-3.41796875	-0.812530517578125	9.787496386718749	0.25438392639160157	0.10714052429199218	0.644683837890625	-5.06591796875	-2.87628173828125	9.995193380737303	0.05746083984375	-0.25797522888183594	3.5858154296875	-4.673004150390625	-2.338409423828125	Gen2|Enabled|Noise|0.0|10.0|1668
8	0.032	0.0	0.0	0.0	0.0	0.003	0.003	0.003	0.003	9.90900212097168	0.06763619689941405	0.011971008300781249	2.655029296875	-3.62396240234375	-0.7476806640625	9.807847100830077	0.23822306518554687	0.07841010437011718	0.278472900390625	-4.642486572265625	-2.9144287109375	10.026916552734374	0.030526071166992186	-0.2980781066894531	3.80706787109375	-4.459381103515625	-2.246856689453125	Gen3|Enabled|Noise|0.0|10.0|128
9	0.036000000000000004	0.0	0.0	0.0	0.0	0.006	0.006	0.003	0.003	9.90241806640625	0.08200140686035155	0.006584054565429687	2.61688232421875	-3.4942626953125	-0.896453857421875	9.79946739501953	0.29089550170898437	0.07781155395507812	0.091552734375	-4.913330078125	-2.712249755859375	10.03050785522461	0.06643909606933593	-0.3022679595947265	3.726959228515625	-4.650115966796875	-2.071380615234375	Gen4|Enabled|Noise|0.0|10.0|128
10	0.04	0.0	0.0	0.0	0.0	0.003	0.006	0.003	0.009000000000000001	9.867103591918944	0.08738836059570312	0.012569558715820313	2.593994140625	-3.70025634765625	-1.003265380859375	9.775525378417969	0.29269115295410153	0.076614453125	0.553131103515625	-5.023956298828125	-3.0059814453125	10.007762939453125	0.08020575561523437	-0.29927520751953124	3.757476806640625	-4.57763671875	-2.254486083984375	Ctrl|Disabled
11	0.044	0.0	0.0	0.0	0.0	0.009000000000000001	0.006	0.003	0.006	9.867103591918944	0.07900865478515624	-0.00239420166015625	2.582550048828125	-3.48663330078125	-0.66375732421875	9.776722479248047	0.2855085479736328	0.08978256225585937	0.42724609375	-4.764556884765625	-2.857208251953125	9.99220062866211	0.06763619689941405	-0.3076549133300781	3.749847412109375	-4.45556640625	-2.117156982421875	
12	0.048	0.0	0.0	0.0	0.0	0.006	0.003	0.003	0.003	9.879074600219726	0.10654197387695312	0.001197100830078125	2.834320068359375	-3.665924072265625	-0.640869140625	9.784503634643555	0.2914940521240234	0.08020575561523437	0.164031982421875	-4.8828125	-2.90679931640625	10.004770187377929	0.0939724151611328	-0.30705636291503907	3.597259521484375	-4.573822021484375	-2.35748291015625	
13	0.052000000000000005	0.0	0.0	0.0	0.0	0.006	0.006	0.006	0.003	9.907206469726562	0.11013327636718749	0.001197100830078125	2.582550048828125	-3.6163330078125	-0.7476806640625	9.789890588378906	0.30346506042480464	0.09217676391601562	0.240325927734375	-4.9896240234375	-2.899169921875	10.01733974609375	0.10594342346191406	-0.28909985046386716	3.650665283203125	-4.69207763671875	-2.079010009765625	
14	0.056	0.0	0.0	0.0	0.0	0.006	0.003	0.003	0.003	9.90840357055664	0.11013327636718749	0.012569558715820313	2.593994140625	-3.5552978515625	-0.835418701171875	9.798270294189452	0.2920926025390625	0.10474632263183593	0.385284423828125	-4.833221435546875	-2.819061279296875	10.019733947753906	0.08858546142578125	-0.29089550170898437	3.7994384765625	-4.749298095703125	-2.132415771484375	
15	0.06	0.0	0.0	0.0	0.0	0.003	0.006	0.006	0.006	9.892841259765625	0.10893617553710937	0.013766659545898436	2.620697021484375	-3.692626953125	-0.83160400390625	9.79946739501953	0.3016694091796875	0.11611878051757812	0.18310546875	-4.8675537109375	-2.895355224609375	10.014945544433592	0.10115502014160156	-0.277727392578125	3.68499755859375	-4.64630126953125	-2.338409423828125	
16	0.064	0.0	0.0	0.0	0.0	-0.003	0.003	0.003	0.006	9.87608184814453	0.09756371765136718	0.030526071166992186	2.31170654296875	-3.59344482421875	-0.881195068359375	9.78629928588867	0.2902969512939453	0.12569558715820311	0.31280517578125	-4.756927490234375	-2.9144287109375	10.006565838623047	0.07062894897460938	-0.2501940734863281	3.66973876953125	-4.528045654296875	-2.330780029296875	
17	0.068	0.0	0.0	0.0	0.0	0.0	0.003	0.006	0.003	9.87608184814453	0.09337386474609374	0.03172317199707031	2.635955810546875	-3.719329833984375	-0.87738037109375	9.778518130493163	0.28012159423828126	0.1370680450439453	0.377655029296875	-4.848480224609375	-2.95257568359375	10.005967288208007	0.059256491088867186	-0.2376245147705078	3.3721923828125	-4.688262939453125	-2.197265625	
18	0.07200000000000001	0.0	0.0	0.0	0.0	0.003	0.003	0.006	0.006	9.888052856445311	0.08978256225585937	0.04908113403320312	2.49481201171875	-3.536224365234375	-0.629425048828125	9.78629928588867	0.277727392578125	0.14245499877929688	0.091552734375	-5.016326904296875	-2.9296875	10.013149893188476	0.07362170104980469	-0.23523031311035156	3.452301025390625	-4.512786865234375	-2.262115478515625	
19	0.076	0.0	0.0	0.0	0.0	0.006	0.006	0.003	0.003	9.893439810180663	0.07481880187988281	0.04129997863769531	2.5634765625	-3.31878662109375	-0.644683837890625	9.80066449584961	0.26336218261718747	0.14125789794921875	0.152587890625	-4.619598388671875	-2.628326416015625	10.022726699829102	0.044292730712890624	-0.22086510314941404	3.559112548828125	-4.7454833984375	-2.246856689453125	
20	0.08	0.0	0.0	0.0	0.0	0.006	0.003	0.003	0.006	9.879074600219726	0.058657940673828124	0.07242460021972656	2.681732177734375	-3.6468505859375	-0.621795654296875	9.784503634643555	0.24061726684570311	0.17058686828613281	0.385284423828125	-5.06591796875	-2.895355224609375	10.012551342773437	0.03950432739257812	-0.2088940948486328	3.559112548828125	-4.528045654296875	-2.079010009765625	
21	0.084	0.0	0.0	0.0	0.0	0.003	0.006	0.006	0.006	9.867103591918944	0.062249243164062495	0.076614453125	2.655029296875	-3.631591796875	-0.743865966796875	9.783306533813477	0.24361001892089842	0.17238251953125	0.2593994140625	-4.9591064453125	-2.819061279296875	10.001777435302733	0.03890577697753906	-0.201112939453125	3.688812255859375	-4.642486572265625	-2.132415771484375	
22	0.088	0.0	0.0	0.0	0.0	0.003	0.003	0.003	0.003	9.866505041503906	0.051475335693359374	0.08978256225585937	2.5634765625	-3.719329833984375	-0.701904296875	9.779116680908203	0.2472013214111328	0.1897404815673828	0.66375732421875	-4.940032958984375	-2.84576416015625	10.005368737792969	0.029328970336914062	-0.19692308654785154	3.948211669921875	-4.634857177734375	-2.178192138671875	
23	0.092	0.0	0.0	0.0	0.0	0.003	0.003	0.003	0.003	9.879673150634765	0.044891281127929686	0.10175357055664062	2.696990966796875	-3.60107421875	-0.9002685546875	9.792284790039062	0.22565350646972654	0.19931728820800781	0.095367431640625	-4.734039306640625	-2.79998779296875	9.996390481567381	0.016759411621093748	-0.19692308654785154	3.772735595703125	-4.7454833984375	-2.31170654296875	
24	0.096	0.0	0.0	0.0	0.0	0.009000000000000001	0.006	0.003	0.006	9.886257205200195	0.0383072265625	0.10714052429199218	2.62451171875	-3.44085693359375	-0.885009765625	9.795277542114258	0.2346317626953125	0.19153613281249998	0.087738037109375	-5.115509033203125	-2.7923583984375	10.013748443603514	0.025139117431640625	-0.1945288848876953	3.437042236328125	-4.61578369140625	-1.911163330078125	
25	0.1	0.0	0.0	0.0	0.0	0.006	0.003	0.006	0.006	9.891045608520507	0.029328970336914062	0.10354922180175781	2.689361572265625	-3.18145751953125	-0.61798095703125	9.810241302490233	0.22086510314941404	0.20290859069824219	0.095367431640625	-4.878997802734375	-2.8228759765625	10.007762939453125	0.013168109130859374	-0.20350714111328125	3.92913818359375	-4.7454833984375	-2.208709716796875	
26	0.10400000000000001	0.0	0.0	0.0	0.0	0.006	0.003	0.003	0.009000000000000001	9.880870251464843	0.010773907470703125	0.12030863342285156	2.735137939453125	-3.650665283203125	-1.033782958984375	9.792284790039062	0.20350714111328125	0.2088940948486328	0.247955322265625	-4.8980712890625	-2.8228759765625	10.004770187377929	-0.001197100830078125	-0.19213468322753904	3.917694091796875	-4.451751708984375	-2.09808349609375	
27	0.108	0.0	0.0	0.0	0.0	0.012	0.003	0.006	0.003	9.867103591918944	-0.002992752075195312	0.13287819213867186	2.69317626953125	-3.749847412109375	-0.644683837890625	9.777321029663085	0.19692308654785154	0.20530279235839843	0.446319580078125	-4.63104248046875	-2.8228759765625	9.996390481567381	0.004189852905273437	-0.181959326171875	3.77655029296875	-4.6234130859375	-2.15911865234375	
28	0.112	0.0	0.0	0.0	0.0	0.006	0.003	0.003	0.006	9.87069489440918	0.014963760375976562	0.12988544006347655	2.6702880859375	-3.681182861328125	-0.885009765625	9.779116680908203	0.21607669982910155	0.20649989318847656	0.270843505859375	-4.974365234375	-2.86102294921875	9.999981784057617	0.013766659545898436	-0.19812018737792966	3.7994384765625	-4.5928955078125	-2.31170654296875	
29	0.116	0.0	0.0	0.0	0.0	0.003	0.006	0.003	0.006	9.890447058105469	0.0143652099609375	0.14245499877929688	2.471923828125	-3.681182861328125	-0.881195068359375	9.788693487548828	0.1945288848876953	0.21188684692382811	0.263214111328125	-4.730224609375	-2.895355224609375	9.996390481567381	-0.006584054565429687	-0.20051438903808594	3.307342529296875	-4.444122314453125	-2.147674560546875	
30	0.12	0.0	0.0	0.0	0.0	0.003	0.006	0.003	0.003	9.885658654785155	0.00718260498046875	0.1352723937988281	2.536773681640625	-3.48663330078125	-0.6866455078125	9.788693487548828	0.19692308654785154	0.21308394775390624	0.308990478515625	-4.894256591796875	-2.74658203125	10.013748443603514	-0.016759411621093748	-0.19812018737792966	3.51715087890625	-4.726409912109375	-2.101898193359375	
31	0.124	0.0	0.0	0.0	0.0	0.003	0.006	0.003	0.003	9.885060104370117	0.013766659545898436	0.12808978881835936	2.3651123046875	-3.513336181640625	-0.865936279296875	9.796474642944336	0.20350714111328125	0.21308394775390624	0.23651123046875	-4.8065185546875	-2.79998779296875	10.011354241943359	-0.012569558715820313	-0.1879448303222656	3.63922119140625	-4.749298095703125	-2.166748046875	
32	0.128	0.0	0.0	0.0	0.0	0.003	0.003	0.003	0.006	9.885658654785155	0.010773907470703125	0.14425065002441406	2.44140625	-3.4332275390625	-0.629425048828125	9.785102185058593	0.19333178405761717	0.21607669982910155	0.2593994140625	-4.886627197265625	-2.765655517578125	10.00417163696289	-0.02154781494140625	-0.17417817077636719	3.803253173828125	-4.604339599609375	-2.35748291015625	
33	0.132	0.0	0.0	0.0	0.0	0.006	0.003	0.003	0.006	9.891045608520507	-0.012569558715820313	0.14903905334472656	2.349853515625	-3.543853759765625	-0.701904296875	9.78629928588867	0.17118541870117188	0.21966800231933592	0.06103515625	-4.962921142578125	-2.7923583984375	10.013748443603514	-0.022146365356445312	-0.17178396911621094	3.41796875	-4.47845458984375	-1.987457275390625	
34	0.136	0.0	0.0	0.0	0.0	0.003	0.003	0.003	0.003	9.889249957275391	-0.011971008300781249	0.1149216796875	2.72369384765625	-3.7078857421875	-0.78582763671875	9.788693487548828	0.16879121704101563	0.2214636535644531	0.308990478515625	-5.02777099609375	-2.99835205078125	10.011354241943359	-0.02693476867675781	-0.1592144104003906	3.765106201171875	-4.726409912109375	-2.315521240234375	
35	0.14	0.0	0.0	0.0	0.0	0.003	0.003	0.006	0.003	9.880870251464843	-0.011971008300781249	0.12090718383789062	2.47955322265625	-3.307342529296875	-0.762939453125	9.792284790039062	0.16639701538085935	0.2184709014892578	0.0457763671875	-4.840850830078125	-2.895355224609375	10.008361489868163	-0.02154781494140625	-0.16340426330566404	3.68499755859375	-4.558563232421875	-2.315521240234375	
36	0.14400000000000002	0.0	0.0	0.0	0.0	0.003	0.003	0.003	0.006	9.873687646484374	-0.017956512451171875	0.10115502014160156	2.666473388671875	-3.467559814453125	-0.70953369140625	9.784503634643555	0.16220716247558592	0.2184709014892578	0.133514404296875	-4.978179931640625	-2.910614013671875	10.001777435302733	-0.040102877807617184	-0.15562310791015624	3.6468505859375	-4.650115966796875	-2.2125244140625	
37	0.148	0.0	0.0	0.0	0.0	0.0	0.006	0.006	0.003	9.866505041503906	-0.016759411621093748	0.09576806640624999	2.574920654296875	-3.92913818359375	-0.827789306640625	9.785102185058593	0.15861585998535155	0.20171148986816406	0.37384033203125	-4.730224609375	-2.9754638671875	9.995791931152343	-0.027533319091796873	-0.1640028137207031	3.7384033203125	-4.58526611328125	-2.0751953125	
38	0.152	0.0	0.0	0.0	0.0	0.006	0.006	0.003	0.006	9.87727894897461	0.008978256225585938	0.08918401184082031	2.54058837890625	-3.68499755859375	-0.7171630859375	9.784503634643555	0.18914193115234373	0.19632453613281248	0.545501708984375	-4.92095947265625	-2.7923583984375	10.006565838623047	-0.02154781494140625	-0.1879448303222656	3.8909912109375	-4.558563232421875	-2.0751953125	
39	0.156	0.0	0.0	0.0	0.0	0.006	0.003	0.006	0.006	9.873687646484374	0.017357962036132813	0.08439560852050781	2.716064453125	-3.597259521484375	-0.659942626953125	9.78629928588867	0.21128829650878905	0.18435352783203124	0.213623046875	-4.802703857421875	-2.960205078125	10.005368737792969	0.001197100830078125	-0.201112939453125	3.63922119140625	-4.840850830078125	-2.147674560546875	
40	0.16	0.0	0.0	0.0	0.0	0.003	0.006	0.006	0.006	9.886855755615233	0.03232172241210937	0.06105214233398437	2.574920654296875	-3.5400390625	-0.66375732421875	9.805452899169921	0.21487959899902342	0.17058686828613281	0.66375732421875	-4.840850830078125	-2.9754638671875	10.005368737792969	0.003591302490234375	-0.229843359375	3.772735595703125	-4.6539306640625	-2.1514892578125	
41	0.164	0.0	0.0	0.0	0.0	0.003	0.003	0.003	0.003	9.892841259765625	0.06404489440917968	0.04608838195800781	2.81524658203125	-3.620147705078125	-0.743865966796875	9.803657247924804	0.24480711975097655	0.14425065002441406	0.213623046875	-4.7760009765625	-2.8839111328125	10.01015714111328	0.03890577697753906	-0.2567781280517578	3.8299560546875	-4.57000732421875	-2.25067138671875	
42	0.168	0.0	0.0	0.0	0.0	0.006	0.003	0.006	0.006	9.891644158935547	0.0718260498046875	0.04908113403320312	2.7313232421875	-3.520965576171875	-0.75531005859375	9.787496386718749	0.25917232971191406	0.143652099609375	0.32806396484375	-4.787445068359375	-2.895355224609375	10.017938296508788	0.052073886108398436	-0.26874913635253905	3.818511962890625	-4.817962646484375	-2.23541259765625	
43	0.17200000000000001	0.0	0.0	0.0	0.0	0.003	0.006	0.003	0.006	9.886257205200195	0.07242460021972656	0.03591302490234375	2.7008056640625	-3.66973876953125	-0.766754150390625	9.787496386718749	0.2645592834472656	0.11432312927246092	0.392913818359375	-4.9896240234375	-3.0517578125	10.002974536132811	0.05686228942871093	-0.2932897033691406	3.68499755859375	-4.72259521484375	-2.185821533203125	
44	0.176	0.0	0.0	0.0	0.0	0.009000000000000001	0.003	0.003	0.003	9.887454306030273	0.09457096557617187	0.0143652099609375	2.81524658203125	-3.192901611328125	-0.667572021484375	9.787496386718749	0.28012159423828126	0.10773907470703124	0.31280517578125	-4.852294921875	-2.819061279296875	10.007762939453125	0.08140285644531249	-0.3124433166503906	3.8604736328125	-4.7149658203125	-2.31170654296875	
45	0.18	0.0	0.0	0.0	0.0	0.006	0.003	0.006	0.003	9.883264453125	0.09516951599121093	0.013168109130859374	2.483367919921875	-3.673553466796875	-0.698089599609375	9.78031378173828	0.29269115295410153	0.09457096557617187	0.5035400390625	-5.18035888671875	-3.0364990234375	10.001178884887695	0.08918401184082031	-0.3076549133300781	3.6468505859375	-4.734039306640625	-2.162933349609375	
46	0.184	0.0	0.0	0.0	0.0	0.003	0.003	0.003	0.006	9.884461553955077	0.1083376251220703	0.013766659545898436	2.49481201171875	-3.520965576171875	-0.8697509765625	9.785102185058593	0.2962824554443359	0.08439560852050781	0.141143798828125	-4.58526611328125	-2.696990966796875	9.997587582397461	0.0909796630859375	-0.32082302246093747	3.665924072265625	-4.49371337890625	-2.178192138671875	
47	0.188	0.0	0.0	0.0	0.0	0.003	0.003	0.003	0.003	9.89523546142578	0.1292868896484375	-0.003591302490234375	2.5177001953125	-3.742218017578125	-0.804901123046875	9.78629928588867	0.31483751831054685	0.07721300354003906	0.133514404296875	-4.75311279296875	-2.872467041015625	10.011354241943359	0.11252747802734374	-0.32082302246093747	3.604888916015625	-4.673004150390625	-2.147674560546875	
48	0.192	0.0	0.0	0.0	0.0	0.006	0.003	0.006	0.006	9.888052856445311	0.13108254089355467	0.009576806640625	2.582550048828125	-3.787994384765625	-0.797271728515625	9.788693487548828	0.3142389678955078	0.09217676391601562	0.3509521484375	-4.924774169921875	-2.89154052734375	10.006565838623047	0.11192892761230468	-0.3184288208007812	3.559112548828125	-4.375457763671875	-1.949310302734375	
49	0.196	0.0	0.0	0.0	0.0	0.003	0.006	0.003	0.003	9.889848507690429	0.13108254089355467	0.015562310791015624	2.72369384765625	-3.448486328125	-0.57220458984375	9.789890588378906	0.3136404174804687	0.09217676391601562	0.06103515625	-4.764556884765625	-2.895355224609375	10.004770187377929	0.10175357055664062	-0.31184476623535157	3.620147705078125	-4.63104248046875	-2.094268798828125	
50	0.2	0.0	0.0	0.0	0.0	0.003	0.003	0.003	0.003	9.900622415161132	0.13826514587402344	0.013168109130859374	2.7008056640625	-3.50189208984375	-0.865936279296875	9.787496386718749	0.3232172241210937	0.10414777221679687	0.133514404296875	-4.82940673828125	-2.960205078125	10.021529598999022	0.12389993591308593	-0.2998737579345703	3.559112548828125	-4.8065185546875	-2.2430419921875	
51	0.20400000000000001	0.0	0.0	0.0	0.0	0.006	0.003	0.006	0.006	9.882067352294921	0.12330138549804687	0.037110125732421874	2.414703369140625	-3.65447998046875	-0.83160400390625	9.790489138793944	0.3130418670654297	0.10354922180175781	0.110626220703125	-4.84466552734375	-3.0670166015625	10.016142645263672	0.11671733093261719	-0.2807201446533203	3.787994384765625	-4.688262939453125	-2.178192138671875	
52	0.20800000000000002	0.0	0.0	0.0	0.0	0.003	0.003	0.003	0.003	9.886257205200195	0.11611878051757812	0.029328970336914062	2.4871826171875	-3.57818603515625	-0.91552734375	9.785700735473633	0.2914940521240234	0.11731588134765625	0.003814697265625	-4.730224609375	-2.918243408203125	10.006565838623047	0.08259995727539061	-0.2597708801269531	3.757476806640625	-4.528045654296875	-2.025604248046875	
53	0.212	0.0	0.0	0.0	0.0	0.003	0.003	0.003	0.003	9.88386300354004	0.12090718383789062	0.023343466186523436	2.57110595703125	-3.574371337890625	-0.74005126953125	9.781510882568359	0.3058592620849609	0.1322796417236328	0.06866455078125	-4.627227783203125	-2.803802490234375	9.996390481567381	0.09217676391601562	-0.24779987182617186	3.62396240234375	-4.688262939453125	-2.3345947265625	
54	0.216	0.0	0.0	0.0	0.0	0.006	0.003	0.003	0.006	9.878476049804688	0.0987608184814453	0.040701428222656245	2.5634765625	-3.6468505859375	-0.701904296875	9.783905084228515	0.2855085479736328	0.15203180541992187	0.06103515625	-4.76837158203125	-2.54058837890625	10.002974536132811	0.09696516723632811	-0.2316390106201172	3.627777099609375	-4.604339599609375	-2.25067138671875	
55	0.22	0.0	0.0	0.0	0.0	0.006	0.006	0.003	0.006	9.87608184814453	0.07781155395507812	0.05027823486328125	2.735137939453125	-3.82232666015625	-0.80108642578125	9.783306533813477	0.2663549346923828	0.15502455749511718	0.484466552734375	-4.6844482421875	-2.895355224609375	10.003573086547851	0.0652419952392578	-0.2316390106201172	3.734588623046875	-4.7149658203125	-1.97601318359375	
56	0.224	0.0	0.0	0.0	0.0	0.003	0.003	0.006	0.006	9.888052856445311	0.08379705810546874	0.06823474731445311	2.803802490234375	-3.749847412109375	-0.797271728515625	9.798270294189452	0.28790274963378903	0.16280571289062498	0.274658203125	-4.962921142578125	-2.98309326171875	10.007762939453125	0.07122749938964844	-0.2346317626953125	3.73077392578125	-4.726409912109375	-2.288818359375	
57	0.228	0.0	0.0	0.0	0.0	0.006	0.006	0.003	0.006	9.881468801879882	0.0909796630859375	0.07541735229492187	2.6092529296875	-3.269195556640625	-0.728607177734375	9.781510882568359	0.27353753967285155	0.16819266662597654	0.6561279296875	-4.73785400390625	-2.788543701171875	10.007762939453125	0.07003039855957031	-0.23343466186523437	3.692626953125	-4.7607421875	-2.262115478515625	
58	0.232	0.0	0.0	0.0	0.0	0.003	0.003	0.003	0.006	9.885658654785155	0.07122749938964844	0.08319850769042968	2.532958984375	-3.59344482421875	-0.93841552734375	9.783306533813477	0.24061726684570311	0.17776947326660156	0.171661376953125	-5.218505859375	-2.86102294921875	10.007164389038085	0.03890577697753906	-0.2214636535644531	3.82232666015625	-4.730224609375	-2.017974853515625	
59	0.23600000000000002	0.0	0.0	0.0	0.0	0.006	0.006	0.003	0.006	9.890447058105469	0.06883329772949218	0.10474632263183593	2.742767333984375	-3.51715087890625	-0.5950927734375	9.785102185058593	0.24899697265624998	0.18614917907714842	0.255584716796875	-4.932403564453125	-3.01361083984375	10.004770187377929	0.04548983154296875	-0.21068974609375	3.631591796875	-4.611968994140625	-2.12860107421875	
60	0.24	0.0	0.0	0.0	0.0	0.006	0.003	0.003	0.006	9.88386300354004	0.054468087768554684	0.09995791931152344	2.40325927734375	-3.269195556640625	-0.77056884765625	9.787496386718749	0.2346317626953125	0.18854338073730467	0.476837158203125	-5.069732666015625	-2.872467041015625	10.011354241943359	0.037708676147460936	-0.20171148986816406	3.818511962890625	-4.856109619140625	-2.185821533203125	
61	0.244	0.0	0.0	0.0	0.0	0.003	0.003	0.003	0.0	9.897031112670899	0.028131869506835935	0.11552023010253906	2.590179443359375	-3.57818603515625	-1.07574462890625	9.784503634643555	0.21248539733886718	0.19333178405761717	0.354766845703125	-5.07354736328125	-2.86865234375	10.008960040283203	0.00718260498046875	-0.20829554443359374	3.635406494140625	-4.5928955078125	-2.025604248046875	
62	0.248	0.0	0.0	0.0	0.0	0.003	0.006	0.006	0.006	9.888052856445311	0.009576806640625	0.1406593475341797	2.7923583984375	-3.71551513671875	-0.957489013671875	9.789890588378906	0.20530279235839843	0.20530279235839843	0.095367431640625	-4.6539306640625	-2.92205810546875	10.013748443603514	-0.0017956512451171875	-0.20649989318847656	3.452301025390625	-4.70733642578125	-2.2430419921875	
63	0.252	0.0	0.0	0.0	0.0	0.003	0.003	0.003	0.003	9.877877499389648	-0.010175357055664061	0.1322796417236328	2.407073974609375	-3.452301025390625	-0.69427490234375	9.785700735473633	0.18136077575683593	0.2154781494140625	0.72479248046875	-5.126953125	-2.765655517578125	10.01733974609375	-0.010773907470703125	-0.18854338073730467	3.665924072265625	-4.673004150390625	-2.166748046875	
64	0.256	0.0	0.0	0.0	0.0	0.003	0.006	0.006	0.006	9.884461553955077	-0.016160861206054686	0.143652099609375	2.777099609375	-3.841400146484375	-0.896453857421875	9.785102185058593	0.16280571289062498	0.2166752502441406	0.209808349609375	-4.9285888671875	-2.994537353515625	10.003573086547851	-0.030526071166992186	-0.18136077575683593	3.57818603515625	-4.489898681640625	-2.056121826171875	
65	0.26	0.0	0.0	0.0	0.0	0.006	0.003	0.003	0.006	9.889848507690429	-0.020949264526367185	0.14903905334472656	2.544403076171875	-3.582000732421875	-0.87738037109375	9.795876092529296	0.16220716247558592	0.22266075439453123	0.186920166015625	-4.734039306640625	-2.750396728515625	10.011354241943359	-0.03591302490234375	-0.16519991455078123	3.73077392578125	-4.79888916015625	-2.349853515625	
66	0.264	0.0	0.0	0.0	0.0	0.006	0.003	0.003	0.003	9.886257205200195	-0.031124621582031248	0.15382745666503905	2.658843994140625	-3.765106201171875	-0.797271728515625	9.790489138793944	0.15562310791015624	0.22685060729980466	0.1983642578125	-4.96673583984375	-2.9296875	10.005368737792969	-0.05386953735351562	-0.1592144104003906	3.83758544921875	-4.764556884765625	-2.0599365234375	
67	0.268	0.0	0.0	0.0	0.0	0.003	0.003	0.003	0.006	9.888651406860351	-0.052073886108398436	0.14006079711914063	2.628326416015625	-3.566741943359375	-1.010894775390625	9.785102185058593	0.13766659545898435	0.22864625854492185	0.240325927734375	-4.9285888671875	-2.8228759765625	9.9981861328125	-0.07003039855957031	-0.15382745666503905	3.753662109375	-4.69207763671875	-2.00653076171875	
68	0.272	0.0	0.0	0.0	0.0	0.003	0.003	0.006	0.003	9.886257205200195	-0.05686228942871093	0.1406593475341797	2.376556396484375	-3.448486328125	-0.74005126953125	9.789890588378906	0.12868833923339842	0.2454056701660156	0.18310546875	-4.9896240234375	-3.841400146484375	10.011952792358398	-0.06763619689941405	-0.14484920043945312	3.692626953125	-4.741668701171875	-2.2735595703125	
69	0.276	0.0	0.0	0.0	0.0	0.009000000000000001	0.003	0.003	0.006	9.885658654785155	-0.061650692749023434	0.14185644836425781	2.758026123046875	-3.528594970703125	-0.873565673828125	9.78629928588867	0.1304839904785156	0.23702596435546874	0.102996826171875	-4.840850830078125	-2.7618408203125	10.005368737792969	-0.07601590270996093	-0.13766659545898435	3.73077392578125	-4.547119140625	-2.315521240234375	
70	0.28	0.0	0.0	0.0	0.0	0.006	0.003	0.003	0.003	9.875483297729492	-0.055066638183593745	0.13108254089355467	2.49481201171875	-3.4027099609375	-0.701904296875	9.78629928588867	0.12150573425292968	0.2280477081298828	0.278472900390625	-4.901885986328125	-2.719879150390625	10.006565838623047	-0.08858546142578125	-0.1466448516845703	3.570556640625	-4.360198974609375	-2.197265625	
71	0.28400000000000003	0.0	0.0	0.0	0.0	0.009000000000000001	0.003	0.003	0.006	9.886257205200195	-0.05686228942871093	0.12868833923339842	2.532958984375	-3.635406494140625	-0.926971435546875	9.78629928588867	0.12988544006347655	0.2262520568847656	0.202178955078125	-5.1422119140625	-2.9449462890625	10.000580334472655	-0.08140285644531249	-0.15562310791015624	3.772735595703125	-4.543304443359375	-2.086639404296875	
72	0.28800000000000003	0.0	0.0	0.0	0.0	-0.003	0.003	0.006	0.003	9.886855755615233	-0.04369418029785156	0.11133037719726561	2.674102783203125	-3.559112548828125	-0.881195068359375	9.789890588378906	0.14425065002441406	0.21487959899902342	0.408172607421875	-4.8980712890625	-2.86102294921875	10.004770187377929	-0.06703764648437499	-0.17238251953125	3.96728515625	-4.741668701171875	-2.3345947265625	
73	0.292	0.0	0.0	0.0	0.0	0.003	0.006	0.003	0.006	9.886855755615233	-0.034715924072265626	0.11013327636718749	2.475738525390625	-3.665924072265625	-0.888824462890625	9.788094937133788	0.1484405029296875	0.20290859069824219	0.339508056640625	-5.1422119140625	-2.8228759765625	10.001777435302733	-0.05985504150390625	-0.19632453613281248	3.887176513671875	-4.688262939453125	-2.124786376953125	
74	0.296	0.0	0.0	0.0	0.0	0.003	0.003	0.006	0.003	9.884461553955077	-0.01915361328125	0.10773907470703124	2.64739990234375	-3.360748291015625	-0.881195068359375	9.785700735473633	0.17118541870117188	0.1945288848876953	0.335693359375	-5.0201416015625	-2.99835205078125	10.01015714111328	-0.03651157531738281	-0.20829554443359374	3.9825439453125	-4.573822021484375	-2.155303955078125	
75	0.3	0.0	0.0	0.0	0.0	0.006	0.006	0.003	0.006	9.883264453125	0.00718260498046875	0.08319850769042968	2.76947021484375	-3.5552978515625	-0.75531005859375	9.788693487548828	0.18614917907714842	0.17477672119140625	0.354766845703125	-4.734039306640625	-2.777099609375	10.00955859069824	-0.02454056701660156	-0.22086510314941404	3.7078857421875	-4.779815673828125	-2.23541259765625	
76	0.304	0.0	0.0	0.0	0.0	0.006	0.003	0.006	0.006	9.874884747314452	0.01975216369628906	0.06643909606933593	2.803802490234375	-3.345489501953125	-0.759124755859375	9.78629928588867	0.201112939453125	0.1640028137207031	0.213623046875	-4.7454833984375	-2.8533935546875	9.999383233642577	-0.001197100830078125	-0.24181436767578124	3.60107421875	-4.73785400390625	-2.147674560546875	
77	0.308	0.0	0.0	0.0	0.0	0.006	0.003	0.006	0.006	9.880870251464843	0.04908113403320312	0.05626373901367187	2.7313232421875	-3.589630126953125	-0.835418701171875	9.78689783630371	0.2346317626953125	0.1406593475341797	0.324249267578125	-4.8828125	-2.910614013671875	10.005368737792969	0.027533319091796873	-0.2705447875976562	3.70025634765625	-4.444122314453125	-2.25067138671875	
78	0.312	0.0	0.0	0.0	0.0	0.003	0.003	0.003	0.003	9.883264453125	0.06763619689941405	0.05027823486328125	2.536773681640625	-3.631591796875	-0.743865966796875	9.78629928588867	0.24959552307128904	0.1149216796875	0.446319580078125	-4.82177734375	-2.79998779296875	10.01015714111328	0.04129997863769531	-0.26874913635253905	3.77655029296875	-4.6844482421875	-2.063751220703125	
79	0.316	0.0	0.0	0.0	0.0	0.003	0.003	0.003	0.003	9.89583401184082	0.07003039855957031	0.031124621582031248	2.64739990234375	-3.261566162109375	-0.789642333984375	9.784503634643555	0.2615665313720703	0.09816226806640624	0.202178955078125	-4.871368408203125	-2.6397705078125	10.002974536132811	0.04548983154296875	-0.2861070983886719	3.62396240234375	-4.73785400390625	-2.0599365234375	
80	0.32	0.0	0.0	0.0	0.0	0.003	0.006	0.006	0.003	9.888052856445311	0.09157821350097656	0.025139117431640625	2.60162353515625	-3.742218017578125	-0.881195068359375	9.787496386718749	0.2902969512939453	0.0987608184814453	0.1068115234375	-4.730224609375	-2.7008056640625	10.00417163696289	0.07601590270996093	-0.2932897033691406	3.772735595703125	-4.528045654296875	-2.0294189453125	
81	0.324	0.0	0.0	0.0	0.0	0.003	0.003	0.006	0.006	9.886257205200195	0.105344873046875	0.01915361328125	2.73895263671875	-3.68499755859375	-0.652313232421875	9.787496386718749	0.2855085479736328	0.09756371765136718	0.576019287109375	-5.023956298828125	-2.841949462890625	10.004770187377929	0.08678981018066406	-0.2998737579345703	3.4942626953125	-4.4403076171875	-2.25830078125	
82	0.328	0.0	0.0	0.0	0.0	0.009000000000000001	0.003	0.006	0.003	9.889249957275391	0.11791443176269531	0.0047884033203125	2.597808837890625	-3.62396240234375	-0.873565673828125	9.785102185058593	0.2950853546142578	0.09516951599121093	0.152587890625	-4.711151123046875	-2.758026123046875	10.000580334472655	0.09935936889648436	-0.30047230834960936	3.620147705078125	-4.665374755859375	-2.429962158203125	
83	0.332	0.0	0.0	0.0	0.0	0.0	0.003	0.003	0.003	9.887454306030273	0.13407529296874998	0.003591302490234375	2.353668212890625	-3.452301025390625	-0.6866455078125	9.79946739501953	0.3130418670654297	0.09337386474609374	0.28228759765625	-4.642486572265625	-3.032684326171875	10.01075569152832	0.12210428466796874	-0.2932897033691406	3.7689208984375	-4.69970703125	-2.2125244140625	
84	0.336	0.0	0.0	0.0	0.0	0.006	0.006	0.003	0.006	9.888651406860351	0.13646949462890623	0.004189852905273437	2.685546875	-3.60870361328125	-0.850677490234375	9.785102185058593	0.32441432495117184	0.10414777221679687	0.3662109375	-5.016326904296875	-2.895355224609375	10.012551342773437	0.12449848632812499	-0.297479556274414	3.749847412109375	-4.547119140625	-2.197265625	
85	0.34	0.0	0.0	0.0	0.0	0.003	0.003	0.003	0.006	9.892242709350585	0.1388636962890625	0.0005985504150390625	2.532958984375	-3.696441650390625	-0.79345703125	9.789890588378906	0.32620997619628905	0.10953472595214843	0.1068115234375	-4.680633544921875	-2.70843505859375	10.005368737792969	0.1304839904785156	-0.28730419921875	3.570556640625	-4.665374755859375	-2.11334228515625	
86	0.34400000000000003	0.0	0.0	0.0	0.0	0.0	0.003	0.006	0.003	9.898826763916015	0.1466448516845703	0.0143652099609375	2.5177001953125	-3.47900390625	-0.827789306640625	9.789890588378906	0.3226186737060547	0.11911153259277343	0.179290771484375	-4.8675537109375	-2.765655517578125	10.006565838623047	0.13587094421386717	-0.27952304382324217	3.856658935546875	-4.55474853515625	-2.0751953125	
87	0.34800000000000003	0.0	0.0	0.0	0.0	0.003	0.003	0.003	0.006	9.881468801879882	0.15203180541992187	0.02633621826171875	2.62451171875	-3.51715087890625	-0.823974609375	9.79408044128418	0.3280056274414062	0.12090718383789062	0.31280517578125	-4.856109619140625	-2.910614013671875	10.00955859069824	0.13766659545898435	-0.2657563842773437	3.650665283203125	-4.39453125	-1.995086669921875	
88	0.352	0.0	0.0	0.0	0.0	0.003	0.003	0.006	0.006	9.886257205200195	0.13407529296874998	0.016759411621093748	2.902984619140625	-3.803253173828125	-0.759124755859375	9.794678991699218	0.3268085266113281	0.13407529296874998	0.423431396484375	-5.092620849609375	-2.834320068359375	10.007164389038085	0.12210428466796874	-0.2741360900878906	3.643035888671875	-4.619598388671875	-2.26593017578125	
89	0.356	0.0	0.0	0.0	0.0	0.006	0.003	0.006	0.006	9.888651406860351	0.143652099609375	0.02154781494140625	2.55584716796875	-3.543853759765625	-1.01470947265625	9.785102185058593	0.3226186737060547	0.13108254089355467	0.331878662109375	-4.772186279296875	-2.788543701171875	10.007164389038085	0.12569558715820311	-0.25797522888183594	3.7384033203125	-4.73785400390625	-2.1820068359375	
90	0.36	0.0	0.0	0.0	0.0	0.006	0.003	0.006	0.006	9.884461553955077	0.1352723937988281	0.04369418029785156	2.544403076171875	-3.48663330078125	-0.690460205078125	9.784503634643555	0.3172317199707031	0.13646949462890623	0.60272216796875	-5.01251220703125	-2.86102294921875	10.003573086547851	0.11851298217773437	-0.2472013214111328	3.71551513671875	-4.4097900390625	-2.13623046875	
91	0.364	0.0	0.0	0.0	0.0	0.003	0.003	0.003	0.003	9.883264453125	0.12150573425292968	0.054468087768554684	2.62451171875	-3.376007080078125	-0.732421875	9.787496386718749	0.30885201416015623	0.14006079711914063	0.17547607421875	-4.741668701171875	-2.79998779296875	10.004770187377929	0.10594342346191406	-0.24899697265624998	3.74603271484375	-4.657745361328125	-2.1209716796875	
92	0.368	0.0	0.0	0.0	0.0	0.006	0.003	0.003	0.003	9.886257205200195	0.11731588134765625	0.054468087768554684	2.719879150390625	-3.5552978515625	-0.87738037109375	9.794678991699218	0.3022679595947265	0.14903905334472656	0.293731689453125	-4.82177734375	-2.910614013671875	10.01015714111328	0.10235212097167969	-0.24301146850585936	3.96728515625	-4.589080810546875	-2.201080322265625	
93	0.372	0.0	0.0	0.0	0.0	0.003	0.003	0.003	0.003	9.892841259765625	0.10594342346191406	0.07481880187988281	2.658843994140625	-3.452301025390625	-0.690460205078125	9.788693487548828	0.2962824554443359	0.16220716247558592	0.00762939453125	-5.306243896484375	-2.902984619140625	10.00417163696289	0.09576806640624999	-0.2376245147705078	3.59344482421875	-4.650115966796875	-2.124786376953125	
94	0.376	0.0	0.0	0.0	0.0	0.003	0.006	0.006	0.003	9.886257205200195	0.0909796630859375	0.08678981018066406	2.6702880859375	-3.60107421875	-0.70953369140625	9.787496386718749	0.2753331909179687	0.16041151123046873	0.40435791015625	-4.795074462890625	-2.76947021484375	10.004770187377929	0.0652419952392578	-0.2262520568847656	3.65447998046875	-4.69207763671875	-2.162933349609375	
95	0.38	0.0	0.0	0.0	0.0	0.003	0.003	0.006	0.006	9.892242709350585	0.0909796630859375	0.09516951599121093	2.445220947265625	-3.8604736328125	-0.682830810546875	9.783905084228515	0.25797522888183594	0.17118541870117188	0.438690185546875	-5.023956298828125	-2.788543701171875	10.008361489868163	0.058657940673828124	-0.2184709014892578	3.772735595703125	-4.665374755859375	-2.277374267578125	
96	0.384	0.0	0.0	0.0	0.0	0.006	0.003	0.006	0.006	9.885060104370117	0.07003039855957031	0.10654197387695312	2.47955322265625	-3.795623779296875	-0.70953369140625	9.787496386718749	0.24959552307128904	0.17956512451171874	0.40435791015625	-5.001068115234375	-2.74658203125	10.002974536132811	0.033518823242187495	-0.21128829650878905	3.841400146484375	-4.581451416015625	-2.330780029296875	
97	0.388	0.0	0.0	0.0	0.0	0.006	0.003	0.003	0.006	9.880870251464843	0.051475335693359374	0.11133037719726561	2.399444580078125	-3.505706787109375	-0.766754150390625	9.782707983398437	0.2262520568847656	0.19333178405761717	0.431060791015625	-5.039215087890625	-3.047943115234375	10.013149893188476	0.023343466186523436	-0.20470424194335937	3.696441650390625	-4.703521728515625	-2.166748046875	
98	0.392	0.0	0.0	0.0	0.0	0.006	0.003	0.006	0.006	9.882067352294921	0.022146365356445312	0.11192892761230468	2.635955810546875	-3.5858154296875	-0.820159912109375	9.785102185058593	0.20649989318847656	0.20530279235839843	0.29754638671875	-4.711151123046875	-2.89154052734375	10.005368737792969	0.00239420166015625	-0.1975216369628906	3.559112548828125	-4.7760009765625	-1.9989013671875	
99	0.396	0.0	0.0	0.0	0.0	0.006	0.003	0.003	0.006	9.880870251464843	0.015562310791015624	0.1274912384033203	2.445220947265625	-3.307342529296875	-0.904083251953125	9.788693487548828	0.1849520782470703	0.21009119567871093	0.087738037109375	-4.73785400390625	-2.979278564453125	10.001777435302733	-0.02154781494140625	-0.19213468322753904	3.574371337890625	-4.78363037109375	-2.307891845703125	
100	0.4	0.0	0.0	0.0	0.0	0.009000000000000001	0.003	0.003	0.003	9.879673150634765	-0.011971008300781249	0.12689268798828124	2.574920654296875	-3.551483154296875	-0.682830810546875	9.785102185058593	0.1693897674560547	0.21787235107421873	0.396728515625	-4.95147705078125	-2.696990966796875	10.011952792358398	-0.029328970336914062	-0.1801636749267578	3.803253173828125	-4.58526611328125	-2.140045166015625	
101	0.404	0.0	0.0	0.0	0.0	0.003	0.003	0.003	0.006	9.882067352294921	-0.023942016601562498	0.13826514587402344	2.64739990234375	-3.612518310546875	-0.751495361328125	9.788693487548828	0.15442600708007811	0.22266075439453123	0.141143798828125	-4.8980712890625	-2.704620361328125	10.004770187377929	-0.040701428222656245	-0.16879121704101563	3.520965576171875	-4.5166015625	-2.101898193359375	
102	0.40800000000000003	0.0	0.0	0.0	0.0	0.003	0.006	0.006	0.006	9.890447058105469	-0.044891281127929686	0.14185644836425781	2.513885498046875	-3.765106201171875	-0.804901123046875	9.792284790039062	0.1370680450439453	0.22505495605468748	0.08392333984375	-4.787445068359375	-2.9449462890625	10.01015714111328	-0.06643909606933593	-0.15741875915527342	3.6163330078125	-4.58526611328125	-2.14385986328125	
103	0.41200000000000003	0.0	0.0	0.0	0.0	0.0	0.003	0.006	0.006	9.885658654785155	-0.05027823486328125	0.13467384338378904	2.735137939453125	-3.673553466796875	-0.83160400390625	9.788693487548828	0.13467384338378904	0.21906945190429686	0.29754638671875	-4.730224609375	-2.742767333984375	10.001777435302733	-0.06883329772949218	-0.14425065002441406	3.429412841796875	-4.619598388671875	-2.147674560546875	
104	0.41600000000000004	0.0	0.0	0.0	0.0	0.009000000000000001	0.006	0.003	0.006	9.881468801879882	-0.05386953735351562	0.13467384338378904	2.780914306640625	-3.51715087890625	-0.81634521484375	9.78629928588867	0.12030863342285156	0.2262520568847656	0.4119873046875	-5.21087646484375	-2.864837646484375	10.005368737792969	-0.07481880187988281	-0.14484920043945312	3.757476806640625	-4.642486572265625	-2.277374267578125	
105	0.42	0.0	0.0	0.0	0.0	0.003	0.003	0.003	0.006	9.887454306030273	-0.058657940673828124	0.14484920043945312	2.6092529296875	-3.47137451171875	-0.827789306640625	9.785102185058593	0.11192892761230468	0.22565350646972654	0.019073486328125	-4.8980712890625	-2.620697021484375	10.00417163696289	-0.07900865478515624	-0.15981296081542967	3.711700439453125	-4.791259765625	-2.231597900390625	
106	0.424	0.0	0.0	0.0	0.0	0.006	0.006	0.003	0.006	9.883264453125	-0.05746083984375	0.12509703674316405	2.79998779296875	-3.82232666015625	-0.8544921875	9.78629928588867	0.12389993591308593	0.21966800231933592	0.25177001953125	-5.100250244140625	-3.063201904296875	9.998784683227539	-0.08080430603027343	-0.16699556579589842	3.7384033203125	-4.73785400390625	-2.140045166015625	
107	0.428	0.0	0.0	0.0	0.0	0.006	0.006	0.003	0.006	9.882067352294921	-0.054468087768554684	0.11432312927246092	2.582550048828125	-3.34930419921875	-0.8087158203125	9.788693487548828	0.13108254089355467	0.20350714111328125	0.240325927734375	-4.98199462890625	-2.857208251953125	10.00417163696289	-0.07900865478515624	-0.17776947326660156	3.627777099609375	-4.61578369140625	-2.13623046875	
108	0.432	0.0	0.0	0.0	0.0	0.003	0.003	0.003	0.003	9.88266590270996	-0.051475335693359374	0.0987608184814453	2.6702880859375	-3.71551513671875	-0.774383544921875	9.781510882568359	0.13946224670410157	0.18914193115234373	0.48828125	-5.077362060546875	-2.918243408203125	10.01075569152832	-0.06404489440917968	-0.19093758239746092	3.490447998046875	-4.604339599609375	-2.223968505859375	
109	0.436	0.0	0.0	0.0	0.0	0.003	0.006	0.006	0.006	9.885060104370117	-0.03950432739257812	0.09636661682128905	2.70843505859375	-3.66973876953125	-0.804901123046875	9.78629928588867	0.14305354919433594	0.18734627990722655	0.301361083984375	-4.7760009765625	-2.84576416015625	10.01015714111328	-0.055066638183593745	-0.20649989318847656	3.589630126953125	-4.581451416015625	-2.269744873046875	
110	0.44	0.0	0.0	0.0	0.0	0.003	0.003	0.003	0.003	9.890447058105469	-0.031124621582031248	0.08439560852050781	2.54058837890625	-3.62396240234375	-0.904083251953125	9.78629928588867	0.15322890625	0.17896657409667968	0.42724609375	-4.8675537109375	-2.99835205078125	10.013748443603514	-0.03411737365722656	-0.22685060729980466	3.82232666015625	-4.726409912109375	-2.197265625	
111	0.444	0.0	0.0	0.0	0.0	0.003	0.003	0.003	0.006	9.88386300354004	-0.011372457885742187	0.07900865478515624	2.735137939453125	-3.551483154296875	-0.896453857421875	9.792284790039062	0.17657237243652343	0.1580173095703125	0.255584716796875	-4.98199462890625	-2.62451171875	10.002974536132811	-0.02693476867675781	-0.2328361114501953	3.8299560546875	-4.75311279296875	-2.01416015625	
112	0.448	0.0	0.0	0.0	0.0	0.003	0.003	0.003	0.006	9.882067352294921	0.007781155395507812	0.07062894897460938	2.559661865234375	-3.57818603515625	-0.888824462890625	9.785102185058593	0.19812018737792966	0.1514332550048828	0.2288818359375	-4.63104248046875	-2.70843505859375	10.01015714111328	-0.016160861206054686	-0.2501940734863281	3.692626953125	-4.604339599609375	-2.117156982421875	
113	0.452	0.0	0.0	0.0	0.0	0.003	0.003	0.006	0.006	9.88386300354004	0.023942016601562498	0.05985504150390625	2.6397705078125	-3.6468505859375	-0.774383544921875	9.78629928588867	0.20829554443359374	0.14604630126953125	0.17547607421875	-4.795074462890625	-2.95257568359375	10.013748443603514	0.0047884033203125	-0.2609679809570312	3.711700439453125	-4.50897216796875	-2.124786376953125	
114	0.456	0.0	0.0	0.0	0.0	0.006	0.003	0.003	0.006	9.877877499389648	0.0430956298828125	0.04848258361816406	2.655029296875	-3.719329833984375	-0.736236572265625	9.787496386718749	0.2346317626953125	0.13168109130859373	0.362396240234375	-4.85992431640625	-2.92205810546875	10.008361489868163	0.02454056701660156	-0.26815058593749996	3.742218017578125	-4.825592041015625	-2.178192138671875	
115	0.46	0.0	0.0	0.0	0.0	0.003	0.003	0.006	0.006	9.874286196899414	0.059256491088867186	0.05746083984375	2.4261474609375	-3.665924072265625	-0.888824462890625	9.78629928588867	0.2454056701660156	0.1227028350830078	0.080108642578125	-4.787445068359375	-2.910614013671875	10.01015714111328	0.037110125732421874	-0.2753331909179687	3.7994384765625	-4.688262939453125	-2.25830078125	
116	0.464	0.0	0.0	0.0	0.0	0.006	0.003	0.006	0.003	9.880870251464843	0.07122749938964844	0.03411737365722656	2.445220947265625	-3.475189208984375	-0.8087158203125	9.788693487548828	0.2615665313720703	0.11432312927246092	0.217437744140625	-4.840850830078125	-2.742767333984375	10.00955859069824	0.047884033203124995	-0.2693476867675781	3.86810302734375	-4.57000732421875	-1.93023681640625	
117	0.468	0.0	0.0	0.0	0.0	0.0	0.003	0.003	0.003	9.87727894897461	0.07900865478515624	0.025737667846679687	2.593994140625	-3.536224365234375	-0.919342041015625	9.790489138793944	0.2741360900878906	0.12389993591308593	0.263214111328125	-4.978179931640625	-2.803802490234375	10.001178884887695	0.06404489440917968	-0.27293898925781246	3.551483154296875	-4.604339599609375	-2.26593017578125	
118	0.47200000000000003	0.0	0.0	0.0	0.0	0.003	0.003	0.003	0.006	9.874884747314452	0.08798691101074219	0.023343466186523436	2.597808837890625	-3.47900390625	-0.946044921875	9.787496386718749	0.2807201446533203	0.12210428466796874	0.324249267578125	-4.6844482421875	-2.819061279296875	10.006565838623047	0.07422025146484375	-0.2771288421630859	3.90625	-4.61578369140625	-2.25067138671875	
119	0.47600000000000003	0.0	0.0	0.0	0.0	0.003	0.006	0.003	0.003	9.86291373901367	0.10714052429199218	0.05686228942871093	2.46429443359375	-3.253936767578125	-0.72479248046875	9.78629928588867	0.28730419921875	0.11911153259277343	0.041961669921875	-5.157470703125	-2.716064453125	10.005967288208007	0.0718260498046875	-0.2807201446533203	3.60107421875	-4.787445068359375	-2.1514892578125	
120	0.48	0.0	0.0	0.0	0.0	0.0	0.006	0.006	0.006	9.90241806640625	0.12689268798828124	0.033518823242187495	2.72369384765625	-3.62396240234375	-0.835418701171875	9.817423907470703	0.29448680419921874	0.11073182678222655	0.202178955078125	-4.76837158203125	-2.895355224609375	10.034099157714843	0.07900865478515624	-0.31184476623535157	3.688812255859375	-4.60052490234375	-2.17437744140625	
121	0.484	0.0	0.0	0.0	0.0	0.006	0.006	0.003	0.003	9.852738381958007	0.17118541870117188	0.07781155395507812	2.52532958984375	-3.459930419921875	-0.77056884765625	9.78629928588867	0.36750995483398435	0.13287819213867186	0.457763671875	-5.008697509765625	-2.689361572265625	10.013748443603514	0.19153613281249998	-0.2549824768066406	3.757476806640625	-4.611968994140625	-2.09808349609375	
122	0.488	0.0	0.0	0.0	0.0	0.003	0.003	0.003	0.003	9.894038360595703	0.08080430603027343	0.04189852905273437	2.3956298828125	-3.414154052734375	-0.827789306640625	9.796474642944336	0.22266075439453123	0.1149216796875	0.324249267578125	-4.985809326171875	-2.9296875	10.035296258544921	-0.025139117431640625	-0.3178302703857422	3.772735595703125	-4.810333251953125	-2.18963623046875	
123	0.492	0.0	0.0	0.0	0.0	0.003	0.003	0.003	0.003	9.886855755615233	0.20769699401855468	-0.002992752075195312	2.9144287109375	-3.88336181640625	-0.77056884765625	9.78629928588867	0.4207809417724609	0.14604630126953125	0.499725341796875	-5.191802978515625	-2.90679931640625	10.000580334472655	0.1610100616455078	-0.239420166015625	3.8299560546875	-4.64630126953125	-2.41851806640625	
124	0.496	0.0	0.0	0.0	0.0	0.003	0.003	0.003	0.006	9.898228213500976	0.16879121704101563	0.07003039855957031	2.47955322265625	-3.44085693359375	-0.66375732421875	9.78031378173828	0.31184476623535157	0.1580173095703125	0.244140625	-4.940032958984375	-2.8533935546875	10.028712203979492	0.086191259765625	-0.3142389678955078	3.795623779296875	-4.8980712890625	-2.18963623046875	
125	0.5	0.0	0.0	0.0	0.0	0.009000000000000001	0.006	0.003	0.003	9.894038360595703	0.20769699401855468	0.002992752075195312	2.796173095703125	-4.062652587890625	-0.766754150390625	9.76116016845703	0.3124433166503906	0.14125789794921875	-0.03814697265625	-4.9285888671875	-2.6702880859375	9.964667309570311	0.13168109130859373	-0.23702596435546874	3.719329833984375	-4.558563232421875	-2.162933349609375	
126	0.504	0.0	0.0	0.0	0.0	0.009000000000000001	0.003	0.003	0.006	9.890447058105469	0.15502455749511718	0.00239420166015625	3.021240234375	-4.001617431640625	-0.522613525390625	9.79946739501953	0.2645592834472656	0.1657984649658203	0.308990478515625	-4.825592041015625	-2.803802490234375	9.963470208740233	0.05386953735351562	-0.20709844360351562	3.60107421875	-4.436492919921875	-2.06756591796875	
127	0.508	0.0	0.0	0.0	0.0	0.006	0.003	0.003	0.003	9.90241806640625	0.23044190979003906	0.006584054565429687	2.78472900390625	-3.631591796875	-0.67901611328125	9.758765966796874	0.39324762268066404	0.15382745666503905	0.240325927734375	-4.5166015625	-2.76947021484375	9.968258612060547	0.23582886352539062	-0.2262520568847656	3.376007080078125	-4.581451416015625	-2.31170654296875	
128	0.512	0.0	0.0	0.0	0.0	0.003	0.003	0.003	0.006	9.885658654785155	0.18136077575683593	-0.007781155395507812	3.0975341796875	-3.76129150390625	-0.43487548828125	9.795277542114258	0.20530279235839843	0.17357962036132812	0.41961669921875	-4.894256591796875	-2.620697021484375	9.9215716796875	0.06344634399414062	-0.21308394775390624	3.6163330078125	-4.634857177734375	-2.01416015625	
129	0.516	0.0	0.0	0.0	0.0	0.003	0.006	0.003	0.003	9.896432562255859	0.19871873779296872	0.023942016601562498	3.30352783203125	-3.8299560546875	-0.81634521484375	9.771335525512695	0.3286041778564453	0.17238251953125	0.396728515625	-4.87518310546875	-3.002166748046875	9.974244116210937	0.03531447448730469	-0.21487959899902342	3.7078857421875	-4.634857177734375	-2.2125244140625	
130	0.52	0.0	0.0	0.0	0.0	0.003	0.003	0.006	0.003	9.892242709350585	0.15741875915527342	0.004189852905273437	3.192901611328125	-4.00543212890625	-0.55694580078125	9.778518130493163	0.3082534637451172	0.12030863342285156	0.38909912109375	-4.98199462890625	-2.62451171875	9.9461122467041	0.059256491088867186	-0.20530279235839843	3.65447998046875	-4.61578369140625	-2.109527587890625	
131	0.524	0.0	0.0	0.0	0.0	0.009000000000000001	0.006	0.003	0.006	9.862315188598632	0.04548983154296875	0.09756371765136718	3.0517578125	-3.726959228515625	-0.7476806640625	9.74200655517578	0.32501287536621093	0.17776947326660156	0.18310546875	-4.57000732421875	-3.086090087890625	9.934739788818359	0.0652419952392578	-0.22445640563964842	3.73077392578125	-4.58526611328125	-2.46429443359375	
132	0.528	0.0	0.0	0.0	0.0	0.003	0.006	0.003	0.0	9.87608184814453	0.1274912384033203	0.023343466186523436	3.269195556640625	-4.09698486328125	-0.484466552734375	9.746794958496093	0.2819172454833984	0.14784195251464843	0.1220703125	-4.779815673828125	-2.620697021484375	9.925162982177733	0.03232172241210937	-0.16041151123046873	3.8299560546875	-4.6539306640625	-2.044677734375	
133	0.532	0.0	0.0	0.0	0.0	0.006	0.003	0.003	0.003	9.87608184814453	-0.022744915771484374	0.10714052429199218	2.758026123046875	-3.444671630859375	-0.79345703125	9.823409411621093	0.16280571289062498	0.09516951599121093	0.40435791015625	-4.547119140625	-3.093719482421875	9.976638317871092	-0.014963760375976562	-0.21009119567871093	3.63922119140625	-4.459381103515625	-2.338409423828125	
134	0.536	0.0	0.0	0.0	0.0	0.006	0.003	0.003	0.003	9.858125335693359	0.13168109130859373	0.009576806640625	1.80816650390625	-3.124237060546875	-1.07574462890625	9.743203656005859	0.26276363220214843	0.14425065002441406	0.17547607421875	-4.9591064453125	-2.6397705078125	9.98561657409668	0.1484405029296875	-0.17357962036132812	3.68499755859375	-4.5013427734375	-1.850128173828125	
135	0.54	0.0	0.0	0.0	0.0	0.003	0.003	0.006	0.003	9.85094273071289	-0.04848258361816406	0.11671733093261719	2.61688232421875	-3.566741943359375	-0.70953369140625	9.80066449584961	0.17956512451171874	0.12868833923339842	0.213623046875	-4.856109619140625	-2.99835205078125	9.934739788818359	-0.006584054565429687	-0.16340426330566404	3.803253173828125	-4.665374755859375	-2.35748291015625	
136	0.544	0.0	0.0	0.0	0.0	0.006	0.006	0.006	0.003	9.824007962036132	-0.1197100830078125	0.17776947326660156	1.636505126953125	-3.231048583984375	-1.255035400390625	9.781510882568359	0.3082534637451172	0.26396073303222656	-0.049591064453125	-4.924774169921875	-2.597808837890625	9.997587582397461	0.10414777221679687	-0.14903905334472656	3.6163330078125	-4.825592041015625	-2.11334228515625	
137	0.548	0.0	0.0	0.0	0.0	0.003	0.003	0.003	0.006	9.848548529052733	-0.1197100830078125	0.10773907470703124	2.643585205078125	-3.59344482421875	-0.8392333984375	9.821015209960937	0.0939724151611328	0.10893617553710937	0.63323974609375	-4.924774169921875	-3.18145751953125	10.114304913330077	-0.2346317626953125	-0.28371289672851563	3.948211669921875	-4.543304443359375	-2.498626708984375	
138	0.552	0.0	0.0	0.0	0.0	0.003	0.003	0.006	0.006	9.805452899169921	-0.13467384338378904	0.19692308654785154	1.232147216796875	-2.8076171875	-1.232147216796875	9.763554370117188	0.3381809844970703	0.2825157958984375	0.152587890625	-4.833221435546875	-2.72369384765625	9.967061511230469	0.1304839904785156	-0.1352723937988281	3.65447998046875	-4.589080810546875	-1.781463623046875	
139	0.556	0.0	0.0	0.0	0.0	0.006	0.003	0.006	0.006	9.910199221801758	-0.20649989318847656	0.06284779357910156	0.911712646484375	-2.8228759765625	-1.52587890625	9.860519537353515	0.0047884033203125	0.14784195251464843	0.400543212890625	-5.0201416015625	-2.994537353515625	10.117896215820313	-0.22565350646972654	-0.28012159423828126	3.757476806640625	-4.69970703125	-2.18963623046875	
140	0.56	0.0	0.0	0.0	0.0	0.003	0.006	0.003	0.006	9.816825357055663	-0.17357962036132812	0.1867477294921875	1.331329345703125	-2.803802490234375	-1.4190673828125	9.78031378173828	0.2651578338623047	0.2555810272216797	0.324249267578125	-5.11932373046875	-2.67791748046875	10.06223102722168	0.12569558715820311	-0.12868833923339842	3.871917724609375	-4.787445068359375	-2.25067138671875	
141	0.5640000000000001	0.0	0.0	0.0	0.0	0.006	0.003	0.006	0.003	9.93952819213867	-0.23403321228027343	0.059256491088867186	0.9918212890625	-2.674102783203125	-1.636505126953125	9.86291373901367	-0.022146365356445312	0.11552023010253906	0.48065185546875	-5.130767822265625	-2.773284912109375	10.128670123291014	-0.26396073303222656	-0.28969840087890625	3.780364990234375	-4.703521728515625	-2.338409423828125	
142	0.5680000000000001	0.0	0.0	0.0	0.0	0.006	0.003	0.003	0.003	9.824007962036132	-0.18255787658691405	0.21428104858398436	1.194000244140625	-2.635955810546875	-1.255035400390625	9.732429748535155	0.34656069030761716	0.33518823242187495	0.286102294921875	-4.89044189453125	-2.90679931640625	10.041281762695311	0.19572598571777342	-0.11911153259277343	3.5247802734375	-4.581451416015625	-2.109527587890625	
143	0.5720000000000001	0.0	0.0	0.0	0.0	0.003	0.003	0.003	0.003	9.936535440063476	-0.24839842224121092	0.07062894897460938	0.8087158203125	-2.4871826171875	-1.556396484375	9.87727894897461	-0.0652419952392578	0.08379705810546874	0.5340576171875	-4.7149658203125	-2.857208251953125	10.146028085327147	-0.3112462158203125	-0.3058592620849609	4.711151123046875	-4.703521728515625	-2.40325927734375	
144	0.5760000000000001	0.0	0.0	0.0	0.0	0.006	0.003	0.003	0.009000000000000001	9.904213717651366	0.21248539733886718	0.19512743530273435	2.7313232421875	-3.948211669921875	-0.560760498046875	9.731232647705077	0.33578678283691404	0.32082302246093747	0.16021728515625	-4.718780517578125	-2.735137939453125	10.073004934692381	0.1753752716064453	-0.1388636962890625	3.643035888671875	-4.73785400390625	-2.15911865234375	
145	0.58	0.0	0.0	0.0	0.0	0.003	0.003	0.006	0.003	9.94671079711914	-0.1879448303222656	0.07781155395507812	0.652313232421875	-2.63214111328125	-1.556396484375	9.813832604980469	-0.009576806640625	0.21308394775390624	0.202178955078125	-4.718780517578125	-2.69317626953125	10.101136804199218	-0.30526071166992186	-0.316034619140625	3.5400390625	-4.7454833984375	-2.12860107421875	
146	0.584	0.0	0.0	0.0	0.0	0.003	0.003	0.003	0.003	9.912593423461914	0.27353753967285155	0.16699556579589842	3.185272216796875	-3.73077392578125	-0.72479248046875	9.720458740234374	0.36631285400390623	0.32082302246093747	0.583648681640625	-4.894256591796875	-2.899169921875	10.06163247680664	0.18555062866210936	-0.1580173095703125	3.795623779296875	-4.75311279296875	-2.15911865234375	
147	0.588	0.0	0.0	0.0	0.0	0.003	0.003	0.003	0.006	9.957484704589843	-0.19033903198242186	0.05686228942871093	4.31060791015625	-4.17327880859375	0.141143798828125	9.832986218261718	-0.006584054565429687	0.1927332336425781	0.213623046875	-4.955291748046875	-2.87628173828125	10.1131078125	-0.32142157287597656	-0.3591302490234375	3.589630126953125	-4.673004150390625	-1.842498779296875	
148	0.592	0.0	0.0	0.0	0.0	0.006	0.003	0.003	0.006	9.936535440063476	0.33518823242187495	0.1610100616455078	3.631591796875	-3.963470458984375	-0.57220458984375	9.727042794799804	0.37888241271972656	0.32620997619628905	0.484466552734375	-4.78363037109375	-3.139495849609375	9.90241806640625	0.1562216583251953	-0.15083470458984374	3.50189208984375	-4.459381103515625	-2.437591552734375	
149	0.596	0.0	0.0	0.0	0.0	0.009000000000000001	0.003	0.003	0.003	9.95329485168457	0.20171148986816406	0.047285482788085934	4.5013427734375	-4.63104248046875	0.06103515625	9.81862100830078	-0.013766659545898436	0.18375497741699218	0.17547607421875	-4.810333251953125	-2.6092529296875	10.095151300048828	-0.3238157745361328	-0.3651157531738281	3.543853759765625	-4.756927490234375	-1.89208984375	
150	0.6	0.0	0.0	0.0	0.0	0.003	0.003	0.003	0.006	9.967660061645507	0.412401235961914	0.1388636962890625	3.833770751953125	-4.26483154296875	-0.324249267578125	9.785102185058593	0.3597287994384765	0.15263035583496093	0.308990478515625	-4.67681884765625	-3.16619873046875	9.907206469726562	0.20949264526367187	-0.15203180541992187	3.551483154296875	-4.547119140625	-2.498626708984375	
151	0.604	0.0	0.0	0.0	0.0	0.003	0.006	0.006	0.006	9.95329485168457	0.28490999755859375	0.023343466186523436	4.695892333984375	-4.55474853515625	0.3204345703125	9.8311905670166	0.006584054565429687	0.16699556579589842	0.28228759765625	-4.909515380859375	-2.70843505859375	9.85752678527832	0.004189852905273437	-0.1801636749267578	3.66973876953125	-4.673004150390625	-1.972198486328125	
152	0.608	0.0	0.0	0.0	0.0	0.0	0.003	0.003	0.006	9.83777462158203	0.16639701538085935	0.04967968444824218	4.886627197265625	-4.520416259765625	-0.14495849609375	9.765948571777344	0.3705027069091797	0.16340426330566404	0.42724609375	-4.69970703125	-3.070831298828125	9.885658654785155	0.19213468322753904	-0.14484920043945312	3.742218017578125	-4.627227783203125	-2.353668212890625	
153	0.612	0.0	0.0	0.0	0.0	0.003	0.003	0.003	0.006	9.951499200439452	0.3711012573242187	0.007781155395507812	5.138397216796875	-4.871368408203125	0.37384033203125	9.70968483276367	0.3280056274414062	0.16819266662597654	-0.17547607421875	-4.85992431640625	-2.719879150390625	9.847949978637695	0.06344634399414062	-0.17238251953125	3.704071044921875	-4.673004150390625	-2.147674560546875	
154	0.616	0.0	0.0	0.0	0.0	0.006	0.003	0.003	0.003	9.821015209960937	0.17357962036132812	0.047884033203124995	4.718780517578125	-4.46319580078125	-0.20599365234375	9.788094937133788	0.4177881896972656	0.15682020874023436	0.579833984375	-4.61578369140625	-2.994537353515625	9.903016616821288	0.24899697265624998	-0.16460136413574217	3.658294677734375	-4.60052490234375	-2.384185791015625	
155	0.62	0.0	0.0	0.0	0.0	0.003	0.003	0.006	0.003	9.934739788818359	0.41838674011230464	-0.0017956512451171875	5.218505859375	-5.2337646484375	0.0	9.701305126953125	0.3076549133300781	0.181959326171875	0.316619873046875	-5.031585693359375	-2.83050537109375	9.840767373657226	0.047285482788085934	-0.16519991455078123	3.83758544921875	-4.589080810546875	-2.079010009765625	
156	0.624	0.0	0.0	0.0	0.0	0.006	0.006	0.003	0.003	9.81862100830078	0.16460136413574217	0.05686228942871093	4.779815673828125	-4.352569580078125	-0.37384033203125	9.792284790039062	0.18854338073730467	0.04129997863769531	-0.049591064453125	-4.703521728515625	-3.177642822265625	9.909600671386718	0.08978256225585937	-0.2549824768066406	3.91387939453125	-4.66156005859375	-3.009796142578125	
157	0.628	0.0	0.0	0.0	0.0	0.006	0.003	0.003	0.003	9.777919580078125	-0.0987608184814453	-0.058657940673828124	1.171112060546875	-3.170013427734375	-1.255035400390625	9.712677584838866	0.3459621398925781	0.17597382202148437	0.270843505859375	-5.1116943359375	-2.658843994140625	9.842563024902343	0.1406593475341797	-0.19153613281249998	3.7078857421875	-4.566192626953125	-2.040863037109375	
158	0.632	0.0	0.0	0.0	0.0	0.003	0.006	0.003	0.003	9.809642752075195	0.10594342346191406	0.052073886108398436	4.367828369140625	-4.360198974609375	-0.751495361328125	9.771934075927733	0.16460136413574217	0.04548983154296875	-0.240325927734375	-4.69207763671875	-3.002166748046875	9.903016616821288	0.10414777221679687	-0.2651578338623047	3.803253173828125	-4.8828125	-2.819061279296875	
159	0.636	0.0	0.0	0.0	0.0	0.006	0.006	0.003	0.006	9.78031378173828	-0.15981296081542967	-0.025737667846679687	0.90789794921875	-2.99072265625	-1.552581787109375	9.770736975097655	0.3537432952880859	0.086191259765625	0.28228759765625	-5.0811767578125	-2.346038818359375	9.99160207824707	0.28969840087890625	-0.19692308654785154	3.696441650390625	-4.726409912109375	-2.109527587890625	
160	0.64	0.0	0.0	0.0	0.0	0.003	0.006	0.003	0.003	9.815628256225585	0.1149216796875	0.0652419952392578	-0.0457763671875	-2.349853515625	-1.83868408203125	9.770736975097655	0.19991583862304688	0.025737667846679687	-0.019073486328125	-4.87518310546875	-3.3111572265625	9.905410818481444	0.18076222534179687	-0.2651578338623047	3.772735595703125	-4.291534423828125	-2.613067626953125	
161	0.644	0.0	0.0	0.0	0.0	0.003	0.006	0.003	0.006	9.788094937133788	-0.22206220397949217	-0.01915361328125	0.400543212890625	-2.574920654296875	-1.40380859375	9.771934075927733	0.39145197143554683	0.07062894897460938	-0.03814697265625	-4.886627197265625	-2.5787353515625	9.996989031982421	0.3387795349121094	-0.21308394775390624	3.85284423828125	-4.90570068359375	-1.91497802734375	
162	0.648	0.0	0.0	0.0	0.0	0.006	0.003	0.006	0.006	9.848548529052733	-0.5345055206298828	-0.13467384338378904	-0.339508056640625	-2.269744873046875	-1.73187255859375	9.906009368896484	0.04249707946777344	-0.051475335693359374	0.614166259765625	-4.962921142578125	-2.857208251953125	10.228029492187499	-0.3938461730957031	-0.488417138671875	3.6163330078125	-4.482269287109375	-2.422332763671875	
163	0.652	0.0	0.0	0.0	0.0	0.003	0.003	0.003	0.003	9.79946739501953	-0.3028665100097656	-0.023343466186523436	0.3662109375	-2.872467041015625	-1.369476318359375	9.78031378173828	0.37289690856933594	0.061650692749023434	0.0457763671875	-4.901885986328125	-2.742767333984375	10.017938296508788	0.3094505645751953	-0.20769699401855468	3.83758544921875	-4.940032958984375	-1.995086669921875	
164	0.656	0.0	0.0	0.0	0.0	0.003	0.006	0.006	0.006	9.866505041503906	-0.5458779785156249	-0.13108254089355467	-0.392913818359375	-2.094268798828125	-1.781463623046875	9.89583401184082	0.09337386474609374	-0.04129997863769531	0.48828125	-4.878997802734375	-2.76947021484375	10.232817895507813	-0.32501287536621093	-0.4842272857666015	3.41033935546875	-4.528045654296875	-2.349853515625	
165	0.66	0.0	0.0	0.0	0.0	0.0	0.003	0.006	0.006	9.867103591918944	0.09995791931152344	0.3010708587646484	1.781463623046875	-3.116607666015625	-0.530242919921875	9.76894132385254	0.4860229370117187	0.32142157287597656	0.8087158203125	-4.787445068359375	-2.58636474609375	10.002375985717773	0.24361001892089842	-0.18914193115234373	3.475189208984375	-4.520416259765625	-1.903533935546875	
166	0.664	0.0	0.0	0.0	0.0	0.003	0.003	0.003	0.006	9.85692823486328	-0.6200982299804687	-0.12689268798828124	-0.377655029296875	-2.227783203125	-1.857757568359375	9.909600671386718	0.04548983154296875	-0.022146365356445312	0.55694580078125	-4.85992431640625	-2.841949462890625	10.259154113769531	-0.4064157318115234	-0.4836287353515625	3.6773681640625	-4.5928955078125	-2.44140625	
167	0.668	0.0	0.0	0.0	0.0	0.003	0.003	0.003	0.003	9.879673150634765	0.12569558715820311	0.35015199279785153	1.983642578125	-3.147125244140625	-0.469207763671875	9.789292037963866	0.5476736297607422	0.3399766357421875	0.782012939453125	-5.016326904296875	-2.9449462890625	10.06881508178711	0.30047230834960936	-0.08020575561523437	3.726959228515625	-4.69970703125	-2.00653076171875	
168	0.672	0.0	0.0	0.0	0.0	0.006	0.003	0.003	0.006	9.852139831542969	-0.6763619689941406	-0.10714052429199218	-0.8697509765625	-1.865386962890625	-2.170562744140625	9.893439810180663	0.06823474731445311	-0.02454056701660156	0.54931640625	-5.1116943359375	-2.819061279296875	10.227430941772461	-0.39923312683105466	-0.4656722229003906	3.597259521484375	-4.486083984375	-2.29644775390625	
169	0.676	0.0	0.0	0.0	0.0	0.006	0.003	0.003	0.006	9.85692823486328	0.14125789794921875	0.39863457641601563	2.1209716796875	-3.246307373046875	-0.51116943359375	9.785700735473633	0.5123591552734374	0.3687070556640625	0.667572021484375	-5.046844482421875	-2.994537353515625	10.087968695068358	0.21487959899902342	-0.07781155395507812	3.673553466796875	-4.726409912109375	-1.64794921875	
170	0.68	0.0	0.0	0.0	0.0	0.003	0.003	0.006	0.003	10.008960040283203	0.23582886352539062	0.19512743530273435	3.589630126953125	-3.74603271484375	-0.156402587890625	9.890447058105469	0.1370680450439453	0.15263035583496093	0.545501708984375	-4.817962646484375	-3.0517578125	10.117896215820313	-0.4129997863769531	-0.3477577911376953	3.42559814453125	-4.87518310546875	-1.857757568359375	
171	0.684	0.0	0.0	0.0	0.0	0.009000000000000001	0.003	0.006	0.003	9.843760125732421	0.2519897247314453	0.42796354675292964	2.620697021484375	-3.48663330078125	-0.28228759765625	9.769539874267577	0.5470750793457031	0.3908534210205078	0.484466552734375	-4.89044189453125	-3.101348876953125	10.070012182617187	0.22505495605468748	-0.08738836059570312	3.4332275390625	-4.833221435546875	-1.861572265625	
172	0.6880000000000001	0.0	0.0	0.0	0.0	0.003	0.003	0.003	0.006	9.993397729492187	0.2699462371826172	0.22086510314941404	3.72314453125	-4.146575927734375	-0.171661376953125	9.873687646484374	0.09995791931152344	0.19033903198242186	0.522613525390625	-4.85992431640625	-2.758026123046875	10.09395419921875	-0.4004302276611328	-0.35015199279785153	3.570556640625	-4.638671875	-1.85394287109375	
173	0.6920000000000001	0.0	0.0	0.0	0.0	0.003	0.003	0.006	0.003	9.817423907470703	0.32561142578124996	0.4626794708251953	5.523681640625	-5.031585693359375	-0.270843505859375	9.77432827758789	0.4752490295410156	0.2663549346923828	0.23651123046875	-4.787445068359375	-3.040313720703125	9.889848507690429	0.37828386230468747	-0.12210428466796874	3.85284423828125	-4.810333251953125	-2.605438232421875	
174	0.6960000000000001	0.0	0.0	0.0	0.0	-0.003	0.003	0.003	0.003	9.995791931152343	0.2663549346923828	0.2136824981689453	3.66973876953125	-4.184722900390625	-0.331878662109375	9.900622415161132	0.0143652099609375	0.17238251953125	0.6561279296875	-5.08880615234375	-3.1280517578125	10.112509262084961	-0.5225345123291015	-0.36092590026855464	3.5858154296875	-4.695892333984375	-1.750946044921875	
175	0.7000000000000001	0.0	0.0	0.0	0.0	0.003	0.003	0.006	0.006	9.969455712890625	0.5572504364013672	-0.0053869537353515625	5.207061767578125	-4.81414794921875	-0.255584716796875	9.770736975097655	0.5279214660644531	0.24480711975097655	0.240325927734375	-4.53948974609375	-3.22723388671875	9.861716638183593	0.44891281127929683	-0.1131260284423828	3.59344482421875	-4.63104248046875	-2.32696533203125	
176	0.704	0.0	0.0	0.0	0.0	0.006	0.006	0.006	0.003	9.97783541870117	0.40402153015136716	0.22086510314941404	3.986358642578125	-4.207611083984375	0.00762939453125	9.733626849365233	0.0718260498046875	0.2867056488037109	-0.217437744140625	-4.85992431640625	-2.3651123046875	10.107720858764647	-0.5087678527832031	-0.3573345977783203	3.742218017578125	-4.75311279296875	-2.09808349609375	
177	0.708	0.0	0.0	0.0	0.0	0.0	0.006	0.003	0.003	9.93294413757324	0.508169302368164	-0.037708676147460936	5.31768798828125	-4.852294921875	-0.537872314453125	9.791087689208984	0.4752490295410156	0.21487959899902342	0.42724609375	-4.856109619140625	-3.093719482421875	9.898228213500976	0.42317514343261714	-0.1610100616455078	3.54766845703125	-4.680633544921875	-2.399444580078125	
178	0.712	0.0	0.0	0.0	0.0	0.003	0.003	0.003	0.003	9.853336932373047	0.2166752502441406	-0.025139117431640625	3.5400390625	-4.08935546875	-0.4730224609375	9.739612353515625	-0.02633621826171875	0.28730419921875	-0.16021728515625	-4.772186279296875	-2.361297607421875	9.83178911743164	0.23044190979003906	-0.2537853759765625	4.230499267578125	-4.7454833984375	-1.9378662109375	
179	0.716	0.0	0.0	0.0	0.0	0.003	0.003	0.003	0.0	9.898826763916015	0.46627077331542965	-0.04249707946777344	4.82177734375	-5.035400390625	-0.698089599609375	9.727641345214844	0.040102877807617184	0.14604630126953125	0.049591064453125	-4.703521728515625	-3.284454345703125	9.880870251464843	0.33698388366699217	-0.15263035583496093	3.631591796875	-4.5013427734375	-2.475738525390625	
180	0.72	0.0	0.0	0.0	0.0	0.009000000000000001	0.003	0.006	0.009000000000000001	9.847351428222655	-0.02633621826171875	-0.008379705810546874	2.712249755859375	-3.7078857421875	-0.26702880859375	9.764751470947266	-0.02454056701660156	0.239420166015625	-0.5035400390625	-4.913330078125	-2.3345947265625	9.836577520751952	0.21787235107421873	-0.2771288421630859	3.7689208984375	-5.191802978515625	-2.010345458984375	
181	0.724	0.0	0.0	0.0	0.0	0.009000000000000001	0.003	0.003	0.006	9.918578927612304	-0.025139117431640625	-0.0939724151611328	3.31878662109375	-4.001617431640625	-0.514984130859375	9.738415252685547	-0.023942016601562498	0.11731588134765625	0.118255615234375	-4.64630126953125	-3.345489501953125	9.89463691101074	0.002992752075195312	-0.20051438903808594	3.734588623046875	-4.4097900390625	-2.84576416015625	
182	0.728	0.0	0.0	0.0	0.0	0.006	0.003	0.003	0.003	9.858723886108399	-0.2609679809570312	-0.00718260498046875	3.093719482421875	-3.8909912109375	-0.4119873046875	9.751583361816406	0.16041151123046873	0.008379705810546874	0.408172607421875	-5.2032470703125	-2.9144287109375	9.828197814941406	0.06823474731445311	-0.239420166015625	3.77655029296875	-4.913330078125	-1.65557861328125	
183	0.732	0.0	0.0	0.0	0.0	0.003	0.006	0.003	0.003	9.90122096557617	-0.31004911499023435	0.015562310791015624	1.88446044921875	-3.3721923828125	-0.60272216796875	9.696516723632811	0.8385691314697266	0.12389993591308593	0.278472900390625	-4.871368408203125	-2.685546875	9.904812268066406	-0.33039982910156246	-0.17597382202148437	3.673553466796875	-4.413604736328125	-2.750396728515625	
184	0.736	0.0	0.0	0.0	0.0	0.003	0.006	0.003	0.003	9.878476049804688	-0.076614453125	-0.047884033203124995	4.093170166015625	-4.608154296875	0.110626220703125	9.770736975097655	-0.37229835815429685	-0.0047884033203125	0.45013427734375	-5.062103271484375	-2.590179443359375	9.944316595458984	0.3226186737060547	0.03531447448730469	3.665924072265625	-4.848480224609375	-2.12860107421875	
185	0.74	0.0	0.0	0.0	0.0	0.012	0.006	0.006	0.003	9.841365924072266	-0.2041056915283203	0.0017956512451171875	2.5177001953125	-3.48663330078125	-1.0528564453125	9.840168823242188	0.412401235961914	0.12030863342285156	1.007080078125	-4.90570068359375	-3.0059814453125	9.928754284667969	-0.2507926239013672	-0.2136824981689453	3.7994384765625	-4.344940185546875	-2.490997314453125	
186	0.744	0.0	0.0	0.0	0.0	0.006	0.003	0.003	0.003	9.775525378417969	-0.32082302246093747	-0.022146365356445312	0.263214111328125	-2.384185791015625	-1.861572265625	9.771934075927733	-0.12988544006347655	-0.09816226806640624	0.457763671875	-4.878997802734375	-2.86865234375	9.983820922851562	0.2346317626953125	-0.037110125732421874	3.887176513671875	-4.848480224609375	-1.953125	
187	0.748	0.0	0.0	0.0	0.0	0.003	0.006	0.003	0.003	9.822212310791015	-0.41838674011230464	-0.04129997863769531	-0.835418701171875	-1.842498779296875	-2.02178955078125	9.829394915771484	0.47644613037109373	0.05985504150390625	1.003265380859375	-5.3253173828125	-2.74658203125	9.900023864746093	-0.13646949462890623	-0.23822306518554687	3.772735595703125	-4.451751708984375	-2.01416015625	
188	0.752	0.0	0.0	0.0	0.0	0.003	0.003	0.006	0.003	9.852139831542969	-0.02633621826171875	0.3220201232910156	0.38909912109375	-2.315521240234375	-1.678466796875	9.737218151855469	0.07541735229492187	-0.09337386474609374	0.091552734375	-4.913330078125	-2.864837646484375	10.006565838623047	0.1484405029296875	-0.044292730712890624	3.84521484375	-4.901885986328125	-1.979827880859375	
189	0.756	0.0	0.0	0.0	0.0	0.003	0.003	0.003	0.003	9.847949978637695	-0.23104046020507812	-0.08499415893554688	-0.438690185546875	-2.109527587890625	-1.983642578125	9.868300692749022	0.2855085479736328	0.037708676147460936	1.140594482421875	-5.1422119140625	-2.597808837890625	10.315417852783202	-0.13467384338378904	-0.46148236999511716	3.6468505859375	-4.6539306640625	-2.063751220703125	
190	0.76	0.0	0.0	0.0	0.0	0.003	0.003	0.006	0.003	9.843760125732421	-0.0143652099609375	0.3327940307617187	1.590728759765625	-2.9144287109375	-1.3275146484375	9.787496386718749	0.2184709014892578	0.4860229370117187	0.026702880859375	-4.76837158203125	-2.880096435546875	9.956287603759765	0.05985504150390625	0.04548983154296875	3.894805908203125	-4.81414794921875	-2.185821533203125	
191	0.764	0.0	0.0	0.0	0.0	0.006	0.003	0.003	0.003	10.013748443603514	0.5913678100585937	0.13407529296874998	3.398895263671875	-3.82232666015625	-0.4425048828125	9.829394915771484	0.16220716247558592	0.09576806640624999	0.530242919921875	-4.825592041015625	-2.857208251953125	10.284293231201172	-0.0383072265625	-0.5189432098388671	3.6773681640625	-4.467010498046875	-2.0599365234375	
192	0.768	0.0	0.0	0.0	0.0	0.006	0.003	0.006	0.006	9.892841259765625	0.20171148986816406	0.34656069030761716	2.429962158203125	-3.253936767578125	-1.06048583984375	9.78629928588867	0.34715924072265625	0.5141548065185546	0.102996826171875	-4.84466552734375	-2.834320068359375	10.14483098449707	0.04908113403320312	-0.19333178405761717	3.65447998046875	-4.634857177734375	-2.216339111328125	
193	0.772	0.0	0.0	0.0	0.0	0.006	0.006	0.003	0.003	10.044873065185547	0.5542576843261718	0.07781155395507812	4.05120849609375	-4.06646728515625	-0.4730224609375	9.888052856445311	0.18555062866210936	0.10414777221679687	0.35858154296875	-5.0811767578125	-3.0364990234375	10.301052642822265	-0.013766659545898436	-0.5500678314208984	3.726959228515625	-4.352569580078125	-2.231597900390625	
194	0.776	0.0	0.0	0.0	0.0	0.006	0.006	0.006	0.003	9.873089096069336	0.26695348510742184	0.3716998077392578	3.24249267578125	-3.7841796875	-0.8392333984375	9.779116680908203	0.3381809844970703	0.48662148742675776	0.274658203125	-4.909515380859375	-2.780914306640625	10.086173043823242	0.11432312927246092	-0.18734627990722655	3.5858154296875	-4.779815673828125	-2.227783203125	
195	0.78	0.0	0.0	0.0	0.0	0.006	0.003	0.003	0.006	10.05504842224121	0.4213794921875	0.017956512451171875	3.520965576171875	-3.83758544921875	-0.049591064453125	9.885658654785155	0.2567781280517578	0.08978256225585937	0.499725341796875	-4.82177734375	-2.758026123046875	10.025120901489258	-0.01915361328125	-0.46507367248535153	3.5858154296875	-4.825592041015625	-2.197265625	
196	0.784	0.0	0.0	0.0	0.0	0.006	0.003	0.003	0.006	9.880870251464843	0.16699556579589842	-0.12569558715820311	4.64630126953125	-4.5166015625	-0.20599365234375	9.795277542114258	0.3800795135498047	0.047285482788085934	0.232696533203125	-4.650115966796875	-2.7313232421875	10.146626635742187	0.13287819213867186	-0.2998737579345703	3.7078857421875	-4.60052490234375	-2.071380615234375	
197	0.788	0.0	0.0	0.0	0.0	0.003	0.006	0.006	0.003	10.060435375976562	0.5165490081787109	-0.04249707946777344	4.852294921875	-4.741668701171875	-0.095367431640625	9.87009634399414	0.3872621185302734	0.058657940673828124	0.301361083984375	-4.93621826171875	-2.716064453125	10.00955859069824	-0.010175357055664061	-0.5105635040283203	3.814697265625	-4.638671875	-2.010345458984375	
198	0.792	0.0	0.0	0.0	0.0	0.006	0.003	0.003	0.006	9.83178911743164	-0.02693476867675781	-0.1370680450439453	4.02069091796875	-4.1961669921875	-0.293731689453125	9.792284790039062	0.3459621398925781	0.016160861206054686	0.16021728515625	-4.795074462890625	-2.574920654296875	10.150217938232421	0.19871873779296872	-0.35793314819335936	3.757476806640625	-4.76837158203125	-2.01416015625	
199	0.796	0.0	0.0	0.0	0.0	0.009000000000000001	0.003	0.003	0.006	9.982025271606444	0.201112939453125	-0.10354922180175781	1.2359619140625	-3.032684326171875	-1.369476318359375	9.813234054565429	0.239420166015625	-0.04908113403320312	0.240325927734375	-5.008697509765625	-2.960205078125	10.050260018920898	-0.08259995727539061	-0.5135562561035156	3.65447998046875	-4.82177734375	-2.246856689453125	
200	0.8	0.0	0.0	0.0	0.0	0.006	0.003	0.006	0.003	9.792284790039062	-0.15861585998535155	-0.11851298217773437	2.147674560546875	-3.63922119140625	-1.308441162109375	9.771934075927733	0.33399113159179683	0.05746083984375	-0.05340576171875	-4.886627197265625	-2.506256103515625	9.898228213500976	0.23882161560058593	-0.19033903198242186	3.620147705078125	-4.764556884765625	-2.0599365234375	
201	0.804	0.0	0.0	0.0	0.0	0.006	0.003	0.003	0.006	9.76235726928711	-0.04848258361816406	0.07062894897460938	0.659942626953125	-2.838134765625	-1.4495849609375	9.811438403320311	0.28730419921875	-0.03890577697753906	0.34332275390625	-4.932403564453125	-2.895355224609375	10.040683212280273	-0.061650692749023434	-0.5123591552734374	3.50189208984375	-4.726409912109375	-2.25830078125	
202	0.808	0.0	0.0	0.0	0.0	-0.003	0.003	0.006	0.003	9.835380419921874	-0.15382745666503905	-0.06883329772949218	1.338958740234375	-3.116607666015625	-1.27410888671875	9.76894132385254	0.24361001892089842	0.16759411621093748	0.591278076171875	-4.93621826171875	-3.08990478515625	9.923965881347655	0.21428104858398436	-0.1370680450439453	3.620147705078125	-4.535675048828125	-1.9683837890625	
203	0.812	0.0	0.0	0.0	0.0	0.003	0.006	0.003	0.003	9.813832604980469	0.040701428222656245	0.1005564697265625	1.346588134765625	-2.86865234375	-1.10626220703125	9.80665	0.26216508178710934	-0.014963760375976562	0.25177001953125	-5.1116943359375	-2.89154052734375	9.906009368896484	-0.05805939025878906	-0.1897404815673828	3.490447998046875	-4.787445068359375	-2.262115478515625	
204	0.8160000000000001	0.0	0.0	0.0	0.0	0.003	0.003	0.003	0.003	9.91558617553711	0.14185644836425781	0.16340426330566404	2.2125244140625	-3.307342529296875	-0.827789306640625	9.722254391479492	0.25917232971191406	0.17836802368164062	0.518798828125	-4.703521728515625	-3.086090087890625	9.87727894897461	0.1927332336425781	-0.1149216796875	3.6773681640625	-4.669189453125	-2.11334228515625	
205	0.8200000000000001	0.0	0.0	0.0	0.0	0.003	0.003	0.006	0.003	9.887454306030273	0.12988544006347655	0.11791443176269531	2.14385986328125	-3.16619873046875	-0.728607177734375	9.6917283203125	0.16280571289062498	0.2184709014892578	0.606536865234375	-5.1727294921875	-2.86102294921875	9.897031112670899	-0.037110125732421874	-0.1292868896484375	3.826141357421875	-4.8065185546875	-2.330780029296875	
206	0.8240000000000001	0.0	0.0	0.0	0.0	0.006	0.003	0.003	0.006	9.964667309570311	0.05566518859863281	0.12569558715820311	3.215789794921875	-3.95965576171875	-0.270843505859375	9.76175871887207	0.2603694305419922	0.14784195251464843	0.3662109375	-4.66156005859375	-3.246307373046875	9.907206469726562	0.030526071166992186	-0.04369418029785156	3.71551513671875	-4.41741943359375	-2.49481201171875	
207	0.8280000000000001	0.0	0.0	0.0	0.0	0.006	0.003	0.006	0.006	9.906009368896484	0.22565350646972654	0.09038111267089843	3.6163330078125	-4.100799560546875	0.003814697265625	9.662997900390625	0.12509703674316405	0.17657237243652343	0.354766845703125	-4.8828125	-2.7618408203125	9.843760125732421	-0.015562310791015624	-0.16041151123046873	3.70025634765625	-4.66156005859375	-2.117156982421875	
208	0.8320000000000001	0.0	0.0	0.0	0.0	0.003	0.006	0.003	0.006	9.911994873046874	-0.11013327636718749	0.14484920043945312	3.543853759765625	-3.902435302734375	-0.431060791015625	9.794678991699218	0.3010708587646484	0.18914193115234373	0.67901611328125	-4.70733642578125	-2.899169921875	9.88386300354004	0.03172317199707031	-0.07422025146484375	3.7994384765625	-4.444122314453125	-2.597808837890625	
209	0.836	0.0	0.0	0.0	0.0	0.003	0.003	0.006	0.006	9.875483297729492	-0.3172317199707031	0.01975216369628906	2.25830078125	-3.56292724609375	-1.270294189453125	9.72285294189453	0.08379705810546874	0.1484405029296875	0.45013427734375	-5.199432373046875	-2.796173095703125	9.916783276367187	0.001197100830078125	-0.2232593048095703	3.79180908203125	-4.558563232421875	-1.995086669921875	
210	0.84	0.0	0.0	0.0	0.0	0.006	0.003	0.003	0.003	9.836577520751952	-0.27832594299316404	0.16699556579589842	2.735137939453125	-3.5247802734375	-0.5950927734375	9.795876092529296	0.2998737579345703	0.19033903198242186	0.79345703125	-4.8065185546875	-2.9449462890625	9.90181951599121	-0.01915361328125	-0.13287819213867186	3.650665283203125	-4.486083984375	-2.460479736328125	
211	0.844	0.0	0.0	0.0	0.0	0.006	0.003	0.003	0.003	9.842563024902343	-0.1897404815673828	0.04548983154296875	1.0986328125	-3.23486328125	-1.50299072265625	9.650428341674804	0.1975216369628906	0.16160861206054686	0.09918212890625	-4.99725341796875	-2.81524658203125	9.889848507690429	0.12449848632812499	0.0796072052001953	3.6468505859375	-4.688262939453125	-1.9683837890625	
212	0.848	0.0	0.0	0.0	0.0	0.003	0.003	0.003	0.003	9.855731134033203	-0.22685060729980466	0.22565350646972654	1.613616943359375	-3.047943115234375	-0.26702880859375	9.82580361328125	0.23582886352539062	0.2232593048095703	0.629425048828125	-4.9285888671875	-2.960205078125	9.952696301269532	-0.02154781494140625	-0.1610100616455078	3.89862060546875	-4.486083984375	-2.597808837890625	
213	0.852	0.0	0.0	0.0	0.0	0.006	0.003	0.003	0.003	9.958083255004881	-0.1592144104003906	0.047884033203124995	1.453399658203125	-3.16619873046875	-1.377105712890625	9.858125335693359	0.1304839904785156	0.38666356811523434	0.263214111328125	-5.01251220703125	-2.841949462890625	10.022726699829102	0.025737667846679687	0.004189852905273437	3.559112548828125	-4.695892333984375	-1.983642578125	
214	0.856	0.0	0.0	0.0	0.0	0.003	0.003	0.003	0.003	9.89583401184082	0.21487959899902342	0.003591302490234375	2.445220947265625	-3.505706787109375	-1.064300537109375	9.759364517211914	0.24899697265624998	0.17178396911621094	0.614166259765625	-4.779815673828125	-2.849578857421875	10.156203442382813	-0.05626373901367187	-0.4082113830566406	3.574371337890625	-4.390716552734375	-2.178192138671875	
215	0.86	0.0	0.0	0.0	0.0	0.003	0.003	0.003	0.006	9.923965881347655	-0.23343466186523437	0.06823474731445311	2.3651123046875	-3.60870361328125	-1.102447509765625	9.795876092529296	0.20350714111328125	0.3597287994384765	0.06866455078125	-5.039215087890625	-2.651214599609375	9.962871658325195	0.11791443176269531	-0.028730419921875	3.582000732421875	-4.734039306640625	-1.758575439453125	
216	0.864	0.0	0.0	0.0	0.0	0.006	0.003	0.003	0.003	9.925162982177733	-0.023343466186523436	-0.14305354919433594	2.0599365234375	-3.337860107421875	-1.277923583984375	10.005967288208007	0.2555810272216797	-0.017956512451171875	0.75531005859375	-4.802703857421875	-2.52532958984375	10.360309133911132	-0.15322890625	-0.5063736511230469	3.627777099609375	-4.638671875	-1.9989013671875	
217	0.868	0.0	0.0	0.0	0.0	0.003	0.003	0.003	0.003	9.715071786499022	0.2555810272216797	0.39983167724609375	3.185272216796875	-3.7078857421875	-0.644683837890625	9.789292037963866	0.18914193115234373	0.3507505432128906	-0.00762939453125	-5.0506591796875	-3.01361083984375	10.08677159423828	0.06105214233398437	-0.1753752716064453	3.643035888671875	-4.72259521484375	-2.307891845703125	
218	0.872	0.0	0.0	0.0	0.0	0.003	0.003	0.003	0.003	9.82520506286621	-0.1322796417236328	-0.09636661682128905	1.0528564453125	-2.803802490234375	-1.5106201171875	9.878476049804688	0.37888241271972656	0.010175357055664061	0.67138671875	-4.825592041015625	-2.613067626953125	10.186729513549803	0.010773907470703125	-0.47704468078613277	3.589630126953125	-4.573822021484375	-2.105712890625	
219	0.876	0.0	0.0	0.0	0.0	0.003	0.003	0.003	0.006	9.742605105590819	0.3758896606445312	0.31064766540527344	2.72369384765625	-3.421783447265625	-0.850677490234375	9.72285294189453	0.2615665313720703	0.4255693450927734	-0.003814697265625	-4.688262939453125	-2.719879150390625	10.17655415649414	0.04548983154296875	-0.16220716247558592	3.5552978515625	-4.608154296875	-2.13623046875	
220	0.88	0.0	0.0	0.0	0.0	0.003	0.003	0.003	0.003	9.849745629882811	-0.2136824981689453	-0.11073182678222655	1.003265380859375	-2.887725830078125	-1.953125	9.909600671386718	0.2807201446533203	0.044891281127929686	0.629425048828125	-4.726409912109375	-2.971649169921875	10.16338604736328	-0.15263035583496093	-0.4914098907470703	3.673553466796875	-4.8675537109375	-2.048492431640625	
221	0.884	0.0	0.0	0.0	0.0	0.003	0.003	0.003	0.009000000000000001	9.752181912231444	0.3711012573242187	0.22086510314941404	2.353668212890625	-3.23486328125	-1.0223388671875	9.559448678588867	0.34177228698730466	0.5291185668945312	-0.14495849609375	-4.611968994140625	-2.544403076171875	9.954491952514648	0.2166752502441406	-0.17357962036132812	3.83758544921875	-4.70733642578125	-2.25830078125	
222	0.888	0.0	0.0	0.0	0.0	0.006	0.003	0.003	0.003	9.935936889648437	0.41898529052734373	0.21308394775390624	2.826690673828125	-3.71551513671875	-0.667572021484375	9.89463691101074	0.258573779296875	0.008978256225585938	0.316619873046875	-5.1422119140625	-2.811431884765625	10.0748005859375	0.007781155395507812	-0.4159925384521484	3.574371337890625	-4.703521728515625	-1.895904541015625	
223	0.892	0.0	0.0	0.0	0.0	0.003	0.003	0.003	0.006	9.76116016845703	0.1897404815673828	0.16998831787109375	2.895355224609375	-3.604888916015625	-1.1138916015625	9.706093530273437	0.11611878051757812	0.517746109008789	-0.34332275390625	-4.970550537109375	-2.902984619140625	10.178948358154296	-0.04369418029785156	-0.18734627990722655	3.6163330078125	-4.67681884765625	-2.475738525390625	
224	0.896	0.0	0.0	0.0	0.0	0.006	0.006	0.003	0.003	9.963470208740233	0.24121581726074218	0.10654197387695312	1.861572265625	-3.326416015625	-0.66375732421875	9.855731134033203	0.36152445068359373	-0.07841010437011718	0.225067138671875	-4.680633544921875	-2.956390380859375	10.005368737792969	0.11552023010253906	-0.5267243652343749	3.57818603515625	-4.75311279296875	-1.972198486328125	
225	0.9	0.0	0.0	0.0	0.0	0.003	0.006	0.003	0.003	9.708487731933593	0.5602431884765625	0.1849520782470703	4.169464111328125	-4.6539306640625	-0.865936279296875	9.600748657226562	0.25258827514648435	0.3220201232910156	-0.03814697265625	-4.79888916015625	-2.826690673828125	9.74200655517578	0.06643909606933593	-0.10893617553710937	3.4942626953125	-4.436492919921875	-2.1209716796875	
226	0.904	0.0	0.0	0.0	0.0	0.003	0.003	0.003	0.006	9.987412225341796	-0.07302315063476562	0.11851298217773437	2.063751220703125	-3.276824951171875	-0.698089599609375	9.980229620361328	0.12689268798828124	-0.03172317199707031	0.568389892578125	-5.039215087890625	-2.8839111328125	10.209474429321288	-0.14245499877929688	-0.4159925384521484	3.79180908203125	-4.79888916015625	-2.094268798828125	
227	0.908	0.0	0.0	0.0	0.0	0.0	0.006	0.006	0.003	9.949703549194336	0.2041056915283203	-0.0383072265625	4.41741943359375	-4.413604736328125	-0.26702880859375	9.724050042724608	0.3064578125	0.14305354919433594	0.0	-4.367828369140625	-2.918243408203125	9.855731134033203	-0.02154781494140625	-0.2597708801269531	3.490447998046875	-4.665374755859375	-2.34222412109375	
228	0.912	0.0	0.0	0.0	0.0	0.003	0.003	0.006	0.003	9.962273107910155	0.6476315490722656	0.13108254089355467	3.330230712890625	-3.871917724609375	-0.152587890625	9.631274728393555	0.21487959899902342	0.06943184814453125	0.484466552734375	-5.0048828125	-2.613067626953125	9.701903677368163	0.2603694305419922	-0.15263035583496093	3.696441650390625	-4.871368408203125	-2.162933349609375	
229	0.916	0.0	0.0	0.0	0.0	0.0	0.006	0.006	0.003	9.837176071166992	-0.181959326171875	0.10115502014160156	4.886627197265625	-4.604339599609375	-0.331878662109375	9.717465988159178	0.18136077575683593	0.3124433166503906	-0.02288818359375	-4.756927490234375	-2.9296875	9.890447058105469	-0.14125789794921875	-0.04129997863769531	3.780364990234375	-4.680633544921875	-2.17437744140625	
230	0.92	0.0	0.0	0.0	0.0	0.003	0.006	0.006	0.006	10.019135397338866	-0.42317514343261714	-0.29388825378417965	1.514434814453125	-3.368377685546875	-0.782012939453125	9.828796365356444	0.1227028350830078	-0.11252747802734374	0.51116943359375	-5.222320556640625	-2.83050537109375	10.002974536132811	0.09516951599121093	-0.37229835815429685	3.482818603515625	-4.642486572265625	-2.4566650390625	
231	0.924	0.0	0.0	0.0	0.0	0.0	0.003	0.003	0.003	9.861716638183593	0.13108254089355467	0.03411737365722656	3.509521484375	-3.925323486328125	0.213623046875	9.540893615722656	0.36092590026855464	0.3573345977783203	0.247955322265625	-4.390716552734375	-3.10516357421875	9.81263550415039	-0.033518823242187495	-0.3298012786865234	3.94439697265625	-4.2572021484375	-2.15911865234375	
232	0.928	0.0	0.0	0.0	0.0	0.006	0.003	0.003	0.006	9.889249957275391	0.21966800231933592	-0.10115502014160156	5.039215087890625	-5.100250244140625	-0.469207763671875	9.765350021362304	0.105344873046875	0.059256491088867186	0.1678466796875	-4.9896240234375	-2.5787353515625	9.883264453125	0.21009119567871093	-0.21009119567871093	3.76129150390625	-4.650115966796875	-2.17437744140625	
233	0.932	0.0	0.0	0.0	0.0	0.003	0.003	0.003	0.003	9.874884747314452	0.086191259765625	0.04369418029785156	6.8817138671875	-5.6610107421875	0.06103515625	9.812036953735351	0.1640028137207031	0.08020575561523437	0.03814697265625	-4.547119140625	-3.07464599609375	10.073603485107421	-0.2705447875976562	-0.32022447204589843	3.54766845703125	-4.2724609375	-2.20489501953125	
234	0.936	0.0	0.0	0.0	0.0	1.842	4.6290000000000004	4.641	4.599	9.886855755615233	-0.535702621459961	-0.13407529296874998	1.461029052734375	-3.086090087890625	-1.12152099609375	9.690531219482422	0.20290859069824219	0.011971008300781249	0.324249267578125	-4.848480224609375	-2.819061279296875	9.756970315551758	0.29269115295410153	-0.2136824981689453	3.505706787109375	-4.8980712890625	-2.3651123046875	
235	0.9400000000000001	0.0	0.0	0.0	0.0	4.599	4.644	4.644	4.596	9.897031112670899	0.22505495605468748	-0.11731588134765625	2.330780029296875	-3.292083740234375	-0.186920166015625	9.62169792175293	0.29448680419921874	0.21428104858398436	0.156402587890625	-4.669189453125	-2.83050537109375	9.833584768676758	-0.08798691101074219	-0.19572598571777342	3.826141357421875	-4.43267822265625	-1.987457275390625	
236	0.9440000000000001	0.0	0.0	0.0	0.0	4.59	4.641	4.638	4.605	10.046070166015625	0.39923312683105466	-0.21068974609375	5.008697509765625	-5.054473876953125	0.019073486328125	9.969455712890625	0.028730419921875	0.03172317199707031	0.476837158203125	-5.4473876953125	-2.58636474609375	10.089165795898436	0.025139117431640625	0.0047884033203125	3.631591796875	-4.878997802734375	-2.105712890625	
237	0.9480000000000001	0.0	0.0	0.0	0.0	4.605	4.644	4.644	4.581	9.776123928833007	-0.29388825378417965	-0.16460136413574217	4.451751708984375	-4.241943359375	-0.946044921875	9.682750064086914	0.26755203552246093	0.14245499877929688	0.019073486328125	-4.383087158203125	-2.98309326171875	9.920374578857421	-0.10654197387695312	-0.3136404174804687	3.650665283203125	-4.4403076171875	-2.643585205078125	
238	0.9520000000000001	0.0	0.0	0.0	0.0	4.605	4.644	4.644	4.575	9.69831237487793	-0.4944026428222656	0.09816226806640624	-1.194000244140625	-3.50189208984375	-1.567840576171875	9.700108026123047	0.22026655273437498	0.3298012786865234	-0.240325927734375	-4.978179931640625	-2.597808837890625	9.846752877807617	0.21128829650878905	-0.017956512451171875	3.993988037109375	-4.55474853515625	-2.2430419921875	
239	0.9560000000000001	0.0	0.0	0.0	0.0	4.6080000000000005	4.644	4.644	4.5840000000000005	9.923965881347655	-0.6105214233398437	-0.1227028350830078	-1.16729736328125	-1.800537109375	-1.3885498046875	9.965265859985351	0.27174188842773433	-0.06045359191894531	0.77056884765625	-4.6234130859375	-2.765655517578125	10.362703335571288	-0.10295067138671875	-0.5530605834960938	3.76129150390625	-4.688262939453125	-2.03704833984375	
240	0.96	0.0	0.0	0.0	0.0	4.6080000000000005	4.635	4.644	4.593	9.965265859985351	0.8661024505615234	0.06045359191894531	6.267547607421875	-5.3863525390625	0.202178955078125	9.904812268066406	0.11611878051757812	0.07781155395507812	0.400543212890625	-4.7149658203125	-2.5634765625	10.084975942993163	0.06883329772949218	-0.15442600708007811	3.91387939453125	-4.718780517578125	-2.17437744140625	
241	0.964	0.0	0.0	0.0	0.0	4.605	4.647	4.65	4.596	9.884461553955077	0.7966706024169922	-0.028131869506835935	7.95745849609375	-6.237030029296875	0.301361083984375	9.849745629882811	0.40462008056640625	-0.08978256225585937	0.732421875	-4.734039306640625	-2.597808837890625	10.168174450683592	0.07362170104980469	-0.5416881256103515	3.734588623046875	-4.467010498046875	-1.91497802734375	
242	0.968	0.0	0.0	0.0	0.0	4.596	4.644	4.644	4.602	9.488221179199218	-0.37768531188964843	0.5195417602539062	2.8076171875	-3.963470458984375	-1.25885009765625	9.66000514831543	0.3064578125	0.48722003784179685	-0.457763671875	-4.94384765625	-2.6397705078125	9.983820922851562	0.10115502014160156	-0.1005564697265625	3.48663330078125	-4.741668701171875	-2.201080322265625	
243	0.972	0.0	0.0	0.0	0.0	4.593	4.644	4.638	4.605	9.657012396240233	-0.3848679168701172	-0.10414777221679687	-5.100250244140625	0.5035400390625	-2.635955810546875	10.025120901489258	0.24600422058105467	-0.12509703674316405	0.52642822265625	-4.6539306640625	-2.681732177734375	10.48301196899414	-0.12868833923339842	-0.651821401977539	3.91387939453125	-4.79888916015625	-2.048492431640625	
244	0.976	0.0	0.0	0.0	0.0	4.605	4.644	4.647	4.5840000000000005	9.86351228942871	0.06045359191894531	0.2454056701660156	-1.613616943359375	-0.972747802734375	-1.04522705078125	9.720458740234374	0.3082534637451172	0.2950853546142578	0.492095947265625	-4.82940673828125	-3.08990478515625	10.018536846923828	0.0718260498046875	-0.21308394775390624	3.6773681640625	-4.5166015625	-2.323150634765625	
245	0.98	0.0	0.0	0.0	0.0	4.6080000000000005	4.641	4.644	4.572	10.06881508178711	0.843956085205078	-0.0987608184814453	4.2266845703125	-4.52423095703125	-0.598907470703125	9.874884747314452	0.3489548919677734	0.0047884033203125	0.766754150390625	-5.08880615234375	-2.719879150390625	10.147823736572265	0.058657940673828124	-0.43634325256347656	3.80706787109375	-4.863739013671875	-1.705169677734375	
246	0.984	0.0	0.0	0.0	0.0	4.605	4.641	4.641	4.5840000000000005	9.87727894897461	0.6667851623535156	0.14903905334472656	7.938385009765625	-6.473541259765625	0.629425048828125	9.89463691101074	0.2232593048095703	0.17417817077636719	0.194549560546875	-5.252838134765625	-2.35748291015625	10.165780249023436	-0.012569558715820313	-0.1753752716064453	3.448486328125	-4.901885986328125	-2.262115478515625	
247	0.988	0.0	0.0	0.0	0.0	4.605	4.644	4.647	4.599	9.809044201660155	-0.2615665313720703	-0.020350714111328123	0.48065185546875	-2.277374267578125	-2.61688232421875	10.022726699829102	0.2885013000488281	-0.09935936889648436	0.743865966796875	-4.848480224609375	-3.208160400390625	10.200496173095702	0.1610100616455078	-0.3848679168701172	3.56292724609375	-4.7760009765625	-1.97601318359375	
248	0.992	0.0	0.0	0.0	0.0	4.605	4.647	4.65	4.596	9.804255798339844	-0.09935936889648436	0.37409400939941406	-3.0517578125	-0.316619873046875	-2.66265869140625	9.566032733154296	0.37768531188964843	0.45489831542968745	0.152587890625	-4.7454833984375	-3.131866455078125	9.913191973876952	0.10594342346191406	-0.040701428222656245	3.71551513671875	-4.940032958984375	-2.361297607421875	
249	0.996	0.0	0.0	0.0	0.0	4.593	4.644	4.644	4.599	9.90241806640625	-0.02154781494140625	0.11372457885742186	-5.48553466796875	0.48828125	-3.360748291015625	9.966462960815429	0.22505495605468748	0.04848258361816406	0.7781982421875	-4.95147705078125	-3.19671630859375	10.09993970336914	0.18315642700195311	-0.3028665100097656	3.627777099609375	-5.039215087890625	-1.636505126953125	
250	1.0	0.0	0.0	0.0	0.0	4.599	4.641	0.003	0.006	10.235810647583007	0.3872621185302734	0.00718260498046875	4.032135009765625	-4.1046142578125	-0.156402587890625	9.762955819702148	0.31184476623535157	0.3028665100097656	0.171661376953125	-4.573822021484375	-3.269195556640625	9.906009368896484	-0.201112939453125	-0.05985504150390625	3.66973876953125	-4.4097900390625	-2.17437744140625	
251	1.004	0.0	0.0	0.0	0.0	0.006	0.003	0.003	0.003	10.135852728271484	0.488417138671875	0.047884033203124995	1.926422119140625	-2.613067626953125	-1.3885498046875	9.874286196899414	0.2693476867675781	0.10115502014160156	-0.011444091796875	-4.428863525390625	-2.902984619140625	9.996390481567381	0.23343466186523437	-0.30526071166992186	3.856658935546875	-4.924774169921875	-1.873016357421875	
252	1.008	0.0	0.0	0.0	0.0	0.006	0.003	0.003	0.003	10.001178884887695	0.181959326171875	0.076614453125	5.687713623046875	-5.2337646484375	0.20599365234375	9.63366893005371	0.4207809417724609	0.37289690856933594	0.5035400390625	-4.985809326171875	-3.032684326171875	9.673771807861328	-0.014963760375976562	0.10594342346191406	3.70025634765625	-4.5013427734375	-2.0294189453125	
253	1.012	0.0	0.0	0.0	0.0	0.009000000000000001	0.003	0.003	0.006	9.94671079711914	0.07781155395507812	0.0	4.474639892578125	-4.543304443359375	0.34332275390625	9.822212310791015	0.047884033203124995	0.201112939453125	0.25177001953125	-4.940032958984375	-2.9754638671875	9.973047015380859	0.07721300354003906	-0.09516951599121093	3.7078857421875	-4.734039306640625	-2.46429443359375	
254	1.016	0.0	0.0	0.0	0.0	0.003	0.003	0.006	0.003	9.926958633422851	0.12330138549804687	-0.0053869537353515625	4.093170166015625	-4.589080810546875	-0.54168701171875	9.694122521972655	0.42018239135742186	0.22026655273437498	0.091552734375	-4.817962646484375	-2.96783447265625	9.828197814941406	-0.03950432739257812	-0.05327098693847656	3.749847412109375	-4.730224609375	-2.185821533203125	
255	1.02	0.0	0.0	0.0	0.0	-0.003	0.003	0.006	0.006	9.785700735473633	0.2741360900878906	0.20231004028320312	2.6397705078125	-3.68499755859375	-0.713348388671875	9.6396544342041	0.20709844360351562	0.3136404174804687	0.354766845703125	-4.894256591796875	-3.04412841796875	9.68454571533203	0.18854338073730467	0.06584054565429687	3.620147705078125	-4.66156005859375	-2.262115478515625	
256	1.024	0.0	0.0	0.0	0.0	0.003	0.003	0.006	0.003	9.900023864746093	0.062249243164062495	0.10714052429199218	2.292633056640625	-3.261566162109375	-0.640869140625	9.728239895629882	0.21188684692382811	0.25438392639160157	0.1373291015625	-4.901885986328125	-3.0364990234375	9.935936889648437	-0.047285482788085934	-0.11073182678222655	3.559112548828125	-4.3792724609375	-1.857757568359375	
257	1.028	0.0	0.0	0.0	0.0	0.003	0.003	0.006	0.006	10.026318002319336	0.15562310791015624	-0.028131869506835935	2.06756591796875	-3.22723388671875	-1.10626220703125	9.783306533813477	0.09038111267089843	0.2693476867675781	0.072479248046875	-4.810333251953125	-3.116607666015625	9.95987890625	-0.04608838195800781	-0.16998831787109375	3.85284423828125	-4.657745361328125	-2.429962158203125	
258	1.032	0.0	0.0	0.0	0.0	0.003	0.003	0.003	0.003	10.032303506469725	0.1849520782470703	0.13407529296874998	4.45556640625	-4.344940185546875	0.415802001953125	9.58339069519043	0.2549824768066406	0.3082534637451172	-0.011444091796875	-4.673004150390625	-3.009796142578125	9.81263550415039	0.09457096557617187	-0.12210428466796874	3.658294677734375	-4.2877197265625	-2.277374267578125	
259	1.036	0.0	0.0	0.0	0.0	0.003	0.006	0.006	0.006	10.09335564880371	0.41898529052734373	-0.1274912384033203	4.741668701171875	-4.96673583984375	0.293731689453125	9.737218151855469	0.17836802368164062	0.16879121704101563	0.347137451171875	-5.008697509765625	-2.437591552734375	9.770138424682617	0.023942016601562498	-0.04967968444824218	3.70025634765625	-4.619598388671875	-2.31170654296875	
260	1.04	0.0	0.0	0.0	0.0	0.003	0.003	0.003	0.006	10.025719451904296	-0.33518823242187495	-0.07422025146484375	5.5084228515625	-4.840850830078125	0.827789306640625	9.816226806640625	0.0939724151611328	0.10354922180175781	0.1678466796875	-4.8065185546875	-2.895355224609375	10.04846436767578	-0.02154781494140625	-0.2615665313720703	3.89862060546875	-4.66156005859375	-2.1820068359375	
261	1.044	0.0	0.0	0.0	0.0	0.003	0.003	0.003	0.006	9.78031378173828	-0.5213374114990235	0.10115502014160156	2.071380615234375	-3.326416015625	-1.15966796875	9.758167416381836	0.19213468322753904	0.08918401184082031	0.1068115234375	-4.993438720703125	-2.643585205078125	10.067617980957031	-0.10773907470703124	-0.22266075439453123	3.753662109375	-4.634857177734375	-2.101898193359375	
262	1.048	0.0	0.0	0.0	0.0	0.006	0.003	0.003	0.006	9.773131176757811	-0.25258827514648435	0.1897404815673828	3.093719482421875	-3.734588623046875	-0.164031982421875	9.782707983398437	0.24301146850585936	0.08259995727539061	1.094818115234375	-5.191802978515625	-2.735137939453125	9.829394915771484	0.17298106994628906	-0.18136077575683593	3.662109375	-4.390716552734375	-2.086639404296875	
263	1.052	0.0	0.0	0.0	0.0	0.003	0.006	0.003	0.006	9.83897172241211	-0.40402153015136716	0.09457096557617187	1.094818115234375	-2.872467041015625	-1.605987548828125	9.86411083984375	0.09516951599121093	-0.07122749938964844	0.507354736328125	-4.93621826171875	-2.735137939453125	10.09335564880371	-0.16519991455078123	-0.1849520782470703	3.753662109375	-4.82940673828125	-1.750946044921875	
264	1.056	0.0	0.0	0.0	0.0	0.006	0.006	0.003	0.003	9.855132583618163	-0.32620997619628905	0.03890577697753906	2.13623046875	-3.047943115234375	-0.84686279296875	9.941922393798828	0.18375497741699218	-0.09457096557617187	0.79345703125	-4.833221435546875	-2.811431884765625	10.36150623474121	0.008379705810546874	-0.6117185241699218	3.60107421875	-4.5013427734375	-2.368927001953125	
265	1.06	0.0	0.0	0.0	0.0	0.003	0.003	0.006	0.003	9.843760125732421	-0.479438882446289	0.10773907470703124	0.377655029296875	-2.437591552734375	-1.636505126953125	9.746196408081055	0.3537432952880859	0.35613749694824215	0.278472900390625	-4.749298095703125	-2.64739990234375	9.941323843383788	-0.037708676147460936	-0.12150573425292968	3.742218017578125	-4.680633544921875	-1.94549560546875	
266	1.064	0.0	0.0	0.0	0.0	0.003	0.003	0.003	0.003	9.873089096069336	-0.6979097839355468	-0.12569558715820311	-0.965118408203125	-2.033233642578125	-2.25830078125	9.89583401184082	0.23104046020507812	-0.05566518859863281	0.408172607421875	-4.8370361328125	-2.72369384765625	10.22204398803711	0.08678981018066406	-0.527322915649414	3.936767578125	-4.665374755859375	-2.208709716796875	
267	1.068	0.0	0.0	0.0	0.0	0.003	0.003	0.003	0.003	9.894038360595703	-0.7386112121582031	0.011372457885742187	-1.53350830078125	-1.628875732421875	-1.8157958984375	9.889249957275391	0.1897404815673828	0.2771288421630859	0.370025634765625	-4.817962646484375	-2.887725830078125	10.134655627441406	-0.1897404815673828	-0.18555062866210936	3.696441650390625	-4.459381103515625	-1.76239013671875	
268	1.072	0.0	0.0	0.0	0.0	0.0	0.003	0.006	0.003	9.906607919311522	-0.2855085479736328	-0.0017956512451171875	-0.3814697265625	-1.9989013671875	-1.796722412109375	9.882067352294921	0.29867665710449215	0.07422025146484375	0.78582763671875	-4.913330078125	-3.204345703125	10.219649786376953	0.07841010437011718	-0.5267243652343749	3.879547119140625	-4.35638427734375	-2.4261474609375	
269	1.076	0.0	0.0	0.0	0.0	0.003	0.006	0.003	0.003	9.83897172241211	-0.3286041778564453	0.044292730712890624	4.50897216796875	-4.57000732421875	-0.469207763671875	9.780912332153319	0.23882161560058593	0.37409400939941406	0.171661376953125	-4.90570068359375	-2.803802490234375	10.019733947753906	0.11791443176269531	-0.07781155395507812	3.68499755859375	-4.8828125	-1.6937255859375	
270	1.08	0.0	0.0	0.0	0.0	0.006	0.003	0.003	0.006	9.919177478027343	0.3447650390625	0.04608838195800781	1.88446044921875	-3.37982177734375	-1.54876708984375	9.91438907470703	0.2280477081298828	0.10414777221679687	0.812530517578125	-4.93621826171875	-2.925872802734375	10.326790310668944	-0.030526071166992186	-0.5003881469726562	3.673553466796875	-4.268646240234375	-2.34222412109375	
271	1.084	0.0	0.0	0.0	0.0	0.006	0.006	0.003	0.003	9.794678991699218	0.27952304382324217	0.3764882110595703	3.086090087890625	-3.635406494140625	-0.89263916015625	9.759963067626952	0.35015199279785153	0.42018239135742186	-0.110626220703125	-4.657745361328125	-2.83050537109375	10.092757098388672	0.10893617553710937	-0.07302315063476562	3.765106201171875	-4.711151123046875	-2.010345458984375	
272	1.088	0.0	0.0	0.0	0.0	0.003	0.003	0.003	0.003	9.873687646484374	0.20649989318847656	0.24959552307128904	-0.255584716796875	-2.1820068359375	-2.033233642578125	9.80724855041504	0.2603694305419922	0.24361001892089842	0.484466552734375	-4.749298095703125	-3.08990478515625	9.961076007080077	-0.09457096557617187	-0.3890577697753906	3.688812255859375	-4.7607421875	-2.25067138671875	
273	1.092	0.0	0.0	0.0	0.0	0.003	0.003	0.003	0.003	9.957484704589843	0.7823053924560547	0.2292448089599609	4.001617431640625	-4.291534423828125	-0.14495849609375	9.782109432983399	0.36930560607910157	0.21009119567871093	-0.171661376953125	-4.848480224609375	-2.5482177734375	10.15740054321289	0.11013327636718749	-0.18435352783203124	3.803253173828125	-4.940032958984375	-1.74713134765625	
274	1.096	0.0	0.0	0.0	0.0	0.003	0.003	0.003	0.003	10.01075569152832	0.08020575561523437	-0.3178302703857422	6.4239501953125	-5.43212890625	0.5645751953125	9.90181951599121	0.26755203552246093	0.10893617553710937	0.148773193359375	-4.726409912109375	-3.208160400390625	10.008960040283203	-0.20051438903808594	-0.4560954162597656	3.662109375	-4.398345947265625	-2.445220947265625	
275	1.1	0.0	0.0	0.0	0.0	-0.003	0.006	0.003	0.003	9.868899243164062	0.5009866973876953	0.21009119567871093	5.870819091796875	-5.115509033203125	0.31280517578125	9.74799205932617	0.32561142578124996	0.16160861206054686	-0.20599365234375	-4.7607421875	-2.58636474609375	9.718064538574218	0.2920926025390625	-0.05087678527832031	3.73077392578125	-4.72259521484375	-2.353668212890625	
276	1.104	0.0	0.0	0.0	0.0	0.003	0.003	0.003	0.006	9.88266590270996	-0.19033903198242186	-0.2262520568847656	3.719329833984375	-4.390716552734375	0.0762939453125	9.803058697509766	0.16819266662597654	-0.07302315063476562	0.244140625	-4.840850830078125	-2.925872802734375	10.02392380065918	-0.15981296081542967	-0.4997895965576172	3.490447998046875	-4.619598388671875	-2.1514892578125	
277	1.108	0.0	0.0	0.0	0.0	0.003	0.003	0.003	0.003	9.94072529296875	0.23223756103515625	-0.018555062866210937	5.107879638671875	-4.76837158203125	0.29754638671875	9.795876092529296	0.14305354919433594	0.09576806640624999	-0.09918212890625	-4.962921142578125	-2.93731689453125	9.871891995239258	0.21966800231933592	-0.1640028137207031	3.84521484375	-4.596710205078125	-2.323150634765625	
278	1.112	0.0	0.0	0.0	0.0	0.003	0.003	0.003	0.006	9.778518130493163	0.09816226806640624	-0.023343466186523436	4.425048828125	-4.40216064453125	-0.19073486328125	9.744999307250977	0.3477577911376953	-0.029927520751953124	0.08392333984375	-4.856109619140625	-2.956390380859375	9.94671079711914	-0.12449848632812499	-0.4477157104492187	3.92913818359375	-4.932403564453125	-2.239227294921875	
279	1.116	0.0	0.0	0.0	0.0	0.003	0.006	0.003	0.006	9.673173257446289	-0.29089550170898437	0.21428104858398436	0.61798095703125	-2.777099609375	-1.628875732421875	9.664793551635741	0.16280571289062498	0.21727380065917967	0.55694580078125	-4.89044189453125	-2.87628173828125	9.848548529052733	0.2711433380126953	-0.1005564697265625	3.4942626953125	-4.680633544921875	-2.1514892578125	
280	1.12	0.0	0.0	0.0	0.0	0.003	0.006	0.003	0.003	9.753977563476562	-0.2950853546142578	0.07362170104980469	1.377105712890625	-2.9754638671875	-1.21307373046875	9.8449572265625	0.2920926025390625	-0.08379705810546874	0.11444091796875	-4.909515380859375	-2.887725830078125	9.977236868286132	-0.143652099609375	-0.17956512451171874	3.8299560546875	-4.878997802734375	-2.044677734375	
281	1.124	0.0	0.0	0.0	0.0	0.006	0.003	0.003	0.003	9.816825357055663	-0.10893617553710937	0.17417817077636719	0.095367431640625	-1.911163330078125	-1.60980224609375	9.682151513671874	0.16639701538085935	0.17956512451171874	0.499725341796875	-4.4403076171875	-3.082275390625	9.836577520751952	0.2346317626953125	-0.17238251953125	3.803253173828125	-4.695892333984375	-2.323150634765625	
282	1.1280000000000001	0.0	0.0	0.0	0.0	0.003	0.003	0.003	0.003	9.822212310791015	0.20290859069824219	0.22685060729980466	2.597808837890625	-3.85284423828125	-0.896453857421875	9.673173257446289	0.28311434631347654	0.2537853759765625	0.58746337890625	-5.1422119140625	-2.857208251953125	9.781510882568359	0.05626373901367187	-0.08439560852050781	3.559112548828125	-4.6844482421875	-2.094268798828125	
283	1.1320000000000001	0.0	0.0	0.0	0.0	0.003	0.006	0.006	0.003	9.962273107910155	-0.03531447448730469	0.13467384338378904	3.261566162109375	-3.5247802734375	-0.560760498046875	9.76894132385254	0.13766659545898435	0.1849520782470703	0.225067138671875	-4.665374755859375	-3.204345703125	10.022128149414062	-0.059256491088867186	-0.13587094421386717	3.89862060546875	-4.405975341796875	-2.216339111328125	
284	1.1360000000000001	0.0	0.0	0.0	0.0	0.003	0.003	0.003	0.003	10.053252770996092	-0.3507505432128906	-0.18136077575683593	3.2958984375	-4.29534912109375	-0.19073486328125	9.790489138793944	0.12868833923339842	0.06344634399414062	0.640869140625	-4.95147705078125	-2.727508544921875	9.87009634399414	0.00239420166015625	-0.13946224670410157	3.92913818359375	-4.8370361328125	-2.223968505859375	
285	1.1400000000000001	0.0	0.0	0.0	0.0	0.003	0.006	0.006	0.006	9.8449572265625	0.07122749938964844	0.21248539733886718	4.32586669921875	-4.573822021484375	0.247955322265625	9.734823950195311	0.3848679168701172	0.19572598571777342	0.499725341796875	-4.772186279296875	-2.98309326171875	9.795277542114258	0.02693476867675781	-0.12569558715820311	3.719329833984375	-4.344940185546875	-2.28118896484375	
286	1.1440000000000001	0.0	0.0	0.0	0.0	0.009000000000000001	0.006	0.003	0.003	9.892841259765625	-0.2561795776367187	-0.076614453125	2.727508544921875	-3.9520263671875	-0.77056884765625	9.83238766784668	0.032920272827148434	0.06464344482421874	0.31280517578125	-5.161285400390625	-2.468109130859375	10.086173043823242	0.21428104858398436	-0.13108254089355467	3.627777099609375	-4.680633544921875	-1.79290771484375	
287	1.1480000000000001	0.0	0.0	0.0	0.0	0.006	0.003	0.003	0.003	9.8449572265625	-0.18136077575683593	-0.04848258361816406	0.95367431640625	-2.681732177734375	-1.842498779296875	9.92755718383789	0.35134909362792965	0.12509703674316405	0.606536865234375	-4.856109619140625	-2.979278564453125	10.102932455444336	-0.20350714111328125	-0.16998831787109375	3.589630126953125	-4.35638427734375	-2.338409423828125	
288	1.1520000000000001	0.0	0.0	0.0	0.0	0.003	0.003	0.003	0.006	9.763554370117188	-0.29867665710449215	0.020350714111328123	1.59454345703125	-3.07464599609375	-1.537322998046875	9.74799205932617	0.13646949462890623	0.421978042602539	0.186920166015625	-5.146026611328125	-3.16619873046875	9.91558617553711	0.2292448089599609	-0.013168109130859374	3.559112548828125	-4.596710205078125	-1.903533935546875	
289	1.156	0.0	0.0	0.0	0.0	0.003	0.003	0.006	0.003	9.823409411621093	0.008379705810546874	0.04668693237304687	0.370025634765625	-2.445220947265625	-1.888275146484375	9.82520506286621	0.41838674011230464	0.16639701538085935	0.60272216796875	-4.840850830078125	-2.52532958984375	9.943119494628906	-0.03232172241210937	-0.11611878051757812	3.79180908203125	-4.512786865234375	-1.934051513671875	
290	1.16	0.0	0.0	0.0	0.0	0.006	0.003	0.003	0.006	9.949703549194336	-0.2867056488037109	0.04668693237304687	1.38092041015625	-3.070831298828125	-1.27410888671875	9.947907897949218	0.044891281127929686	0.36691140441894526	0.23651123046875	-5.05828857421875	-2.895355224609375	10.251971508789062	0.03411737365722656	-0.11073182678222655	3.643035888671875	-4.7149658203125	-1.995086669921875	
291	1.164	0.0	0.0	0.0	0.0	0.006	0.006	0.003	0.003	9.87668039855957	0.004189852905273437	-0.06703764648437499	1.354217529296875	-2.87628173828125	-1.628875732421875	9.787496386718749	0.2765302917480469	0.10175357055664062	0.8544921875	-4.505157470703125	-2.8839111328125	10.275314974975585	-0.13287819213867186	-0.46627077331542965	3.925323486328125	-4.673004150390625	-2.010345458984375	
292	1.168	0.0	0.0	0.0	0.0	0.006	0.003	0.003	0.006	9.715071786499022	0.42018239135742186	0.3938461730957031	2.64739990234375	-3.612518310546875	-0.732421875	9.73063409729004	0.373495458984375	0.38666356811523434	0.141143798828125	-4.93621826171875	-2.727508544921875	9.910199221801758	0.35613749694824215	-0.11671733093261719	3.734588623046875	-4.695892333984375	-1.82342529296875	
293	1.172	0.0	0.0	0.0	0.0	0.006	0.003	0.003	0.003	9.847351428222655	-0.17896657409667968	0.06344634399414062	1.5411376953125	-3.200531005859375	-1.369476318359375	10.011354241943359	0.28790274963378903	0.016759411621093748	0.885009765625	-4.98199462890625	-2.7313232421875	10.40639751586914	-0.13766659545898435	-0.49260699157714843	3.787994384765625	-4.688262939453125	-1.827239990234375	
294	1.176	0.0	0.0	0.0	0.0	0.006	0.006	0.006	0.003	9.816825357055663	0.33399113159179683	0.36750995483398435	2.044677734375	-3.27301025390625	-0.835418701171875	9.913191973876952	0.09457096557617187	0.2059013427734375	-0.263214111328125	-5.748748779296875	-2.819061279296875	10.248380206298828	-0.009576806640625	-0.2920926025390625	3.5858154296875	-4.795074462890625	-2.28118896484375	
295	1.18	0.0	0.0	0.0	0.0	0.006	0.9450000000000001	4.632	4.596	9.74200655517578	0.037110125732421874	0.12509703674316405	1.07574462890625	-2.811431884765625	-1.522064208984375	9.771335525512695	0.5506663818359374	0.03411737365722656	1.068115234375	-4.82177734375	-2.76947021484375	10.02990930480957	0.17298106994628906	-0.4339490509033203	3.803253173828125	-4.489898681640625	-1.91497802734375	
296	1.184	0.0	0.0	0.0	0.0	4.596	4.641	4.641	4.596	9.683348614501952	0.41060558471679687	0.5015852478027344	2.124786376953125	-3.08990478515625	-0.92315673828125	9.599551556396484	0.33758243408203126	0.49380409240722656	0.17547607421875	-5.062103271484375	-2.681732177734375	9.963470208740233	0.14425065002441406	-0.04129997863769531	3.818511962890625	-4.894256591796875	-2.269744873046875	
297	1.188	0.0	0.0	0.0	0.0	4.593	4.641	4.644	4.6080000000000005	10.085574493408203	0.09696516723632811	0.0526724365234375	0.9002685546875	-2.62451171875	-1.003265380859375	10.128670123291014	0.15263035583496093	-0.14604630126953125	0.942230224609375	-4.741668701171875	-2.994537353515625	10.328585961914062	-0.05746083984375	-0.4435258575439453	3.574371337890625	-4.924774169921875	-2.0294189453125	
298	1.192	0.0	0.0	0.0	0.0	4.6080000000000005	4.644	4.644	4.59	9.725247143554688	0.5446808776855468	0.3345896820068359	1.705169677734375	-3.2196044921875	-1.148223876953125	9.551667523193359	0.507570751953125	0.3585316986083984	0.08392333984375	-5.0811767578125	-3.154754638671875	9.87069489440918	0.14245499877929688	-0.1897404815673828	3.742218017578125	-4.772186279296875	-2.399444580078125	
299	1.196	0.0	0.0	0.0	0.0	4.6080000000000005	4.644	4.644	4.575	9.926360083007811	0.4471171600341797	0.11552023010253906	1.28936767578125	-3.284454345703125	-0.95367431640625	9.721655841064452	0.2741360900878906	0.1322796417236328	0.400543212890625	-4.833221435546875	-2.66265869140625	9.866505041503906	0.3752911102294922	-0.29568390502929687	3.650665283203125	-4.791259765625	-1.667022705078125	
300	1.2	0.0	0.0	0.0	0.0	4.605	4.638	4.641	4.578	10.001178884887695	-0.17417817077636719	-0.031124621582031248	3.879547119140625	-4.344940185546875	-0.14495849609375	9.865307940673828	0.31543606872558594	0.2807201446533203	0.072479248046875	-5.06591796875	-2.84576416015625	10.363301885986328	-0.24779987182617186	-0.24121581726074218	3.696441650390625	-4.37164306640625	-2.529144287109375	
301	1.204	0.0	0.0	0.0	0.0	4.6080000000000005	4.638	4.644	4.602	9.981426721191406	0.031124621582031248	-0.10175357055664062	0.579833984375	-2.81524658203125	-1.705169677734375	9.86411083984375	0.030526071166992186	-0.001197100830078125	0.396728515625	-4.78363037109375	-3.4332275390625	10.058041174316406	0.08738836059570312	-0.37409400939941406	3.51715087890625	-4.547119140625	-2.17437744140625	
302	1.208	0.0	0.0	0.0	0.0	4.602	4.647	4.647	4.599	9.783905084228515	0.1945288848876953	0.1227028350830078	2.246856689453125	-3.204345703125	-1.094818115234375	9.496600885009766	0.556053335571289	0.229843359375	0.148773193359375	-4.909515380859375	-3.002166748046875	9.488221179199218	0.12449848632812499	-0.05805939025878906	3.88336181640625	-4.322052001953125	-2.216339111328125	
303	1.212	0.0	0.0	0.0	0.0	4.602	4.644	4.641	4.596	9.961674557495117	-0.10714052429199218	0.031124621582031248	0.186920166015625	-2.384185791015625	-0.980377197265625	9.969455712890625	0.044292730712890624	0.05805939025878906	0.34332275390625	-5.1116943359375	-2.84576416015625	10.274716424560546	0.008978256225585938	-0.364517202758789	3.437042236328125	-4.8675537109375	-1.62506103515625	
304	1.216	0.0	0.0	0.0	0.0	4.587	4.638	4.635	4.605	10.001777435302733	-0.05805939025878906	-0.07302315063476562	2.910614013671875	-3.5858154296875	-1.2054443359375	9.789890588378906	0.10893617553710937	0.2424129180908203	0.08392333984375	-4.581451416015625	-3.345489501953125	9.981426721191406	-0.40581718139648437	-0.15382745666503905	3.45611572265625	-4.39453125	-2.651214599609375	
305	1.22	0.0	0.0	0.0	0.0	4.605	4.641	4.644	4.59	9.999383233642577	0.21009119567871093	-0.0718260498046875	3.833770751953125	-4.11224365234375	-0.316619873046875	9.612719665527344	0.2501940734863281	0.0796072052001953	0.3814697265625	-4.69207763671875	-2.8533935546875	9.654019644165038	0.3345896820068359	-0.229843359375	3.80706787109375	-4.734039306640625	-2.521514892578125	
306	1.224	0.0	0.0	0.0	0.0	4.611	0.003	0.003	0.006	9.8449572265625	0.08319850769042968	0.1131260284423828	2.529144287109375	-3.459930419921875	-0.537872314453125	9.634267480468749	0.2819172454833984	0.3872621185302734	0.164031982421875	-4.756927490234375	-3.192901611328125	9.710881933593749	-0.12689268798828124	0.1083376251220703	3.856658935546875	-4.67681884765625	-2.048492431640625	
